sample name	sample
index	1204
start time	 04-26-2021  12:55:26 PM


Wavelength (nm)	Absorbance
494.344910	NaN
494.563924	NaN
494.782919	NaN
495.001897	0.602060
495.220856	NaN
495.439797	NaN
495.658719	NaN
495.877624	NaN
496.096510	NaN
496.315378	0.162555
496.534227	0.355616
496.753059	0.184329
496.971872	0.301626
497.190667	0.151676
497.409444	0.145837
497.628203	0.143596
497.846943	0.143892
498.065665	0.143385
498.284369	0.145149
498.503055	0.143994
498.721723	0.143306
498.940372	0.142592
499.159003	0.143572
499.377616	0.143488
499.596210	0.144231
499.814787	0.142677
500.033345	0.142419
500.251885	0.142937
500.470406	0.142666
500.688910	0.142283
500.907395	0.142151
501.125862	0.141961
501.344311	0.142317
501.562742	0.142659
501.781154	0.144913
501.999548	0.144859
502.217924	0.144526
502.436282	0.145653
502.654621	0.147491
502.872942	0.147633
503.091245	0.147411
503.309530	0.147039
503.527797	0.146183
503.746045	0.145218
503.964275	0.146489
504.182487	0.146516
504.400681	0.145586
504.618856	0.143124
504.837013	0.142696
505.055152	0.143200
505.273273	0.142834
505.491376	0.142566
505.709460	0.141899
505.927526	0.141098
506.145574	0.140462
506.363604	0.141356
506.581615	0.144111
506.799608	0.144255
507.017583	0.144878
507.235540	0.146117
507.453478	0.147117
507.671399	0.147601
507.889301	0.146400
508.107185	0.147495
508.325050	0.147075
508.542898	0.145814
508.760727	0.145575
508.978538	0.143613
509.196330	0.143799
509.414105	0.142884
509.631861	0.142744
509.849599	0.143544
510.067319	0.142694
510.285021	0.142891
510.502704	0.142517
510.720369	0.141477
510.938016	0.143527
511.155645	0.143204
511.373255	0.143610
511.590848	0.144648
511.808422	0.144328
512.025977	0.144732
512.243515	0.145333
512.461034	0.146240
512.678536	0.146913
512.896018	0.146200
513.113483	0.145685
513.330930	0.146505
513.548358	0.146368
513.765768	0.146655
513.983160	0.147397
514.200533	0.146634
514.417889	0.146869
514.635226	0.148768
514.852545	0.149224
515.069845	0.149549
515.287128	0.149442
515.504392	0.150003
515.721638	0.150805
515.938866	0.150469
516.156075	0.151623
516.373267	0.151120
516.590440	0.151242
516.807594	0.150865
517.024731	0.151486
517.241850	0.152049
517.458950	0.151263
517.676032	0.150724
517.893095	0.151212
518.110141	0.151246
518.327168	0.151506
518.544177	0.150564
518.761168	0.150727
518.978141	0.150766
519.195095	0.151421
519.412031	0.151925
519.628949	0.153263
519.845849	0.153230
520.062731	0.153167
520.279594	0.153986
520.496439	0.154893
520.713266	0.154407
520.930074	0.154802
521.146865	0.154078
521.363637	0.154835
521.580391	0.154837
521.797127	0.154558
522.013844	0.155090
522.230543	0.154484
522.447224	0.155134
522.663887	0.155737
522.880532	0.155850
523.097158	0.155930
523.313766	0.155470
523.530356	0.155860
523.746928	0.156500
523.963481	0.156195
524.180017	0.156555
524.396534	0.155807
524.613032	0.156229
524.829513	0.156327
525.045975	0.156427
525.262420	0.157045
525.478845	0.157040
525.695253	0.156621
525.911643	0.156122
526.128014	0.155956
526.344367	0.156126
526.560702	0.156187
526.777018	0.156235
526.993316	0.156496
527.209597	0.156511
527.425858	0.156747
527.642102	0.157032
527.858328	0.157708
528.074535	0.157899
528.290724	0.157988
528.506894	0.158444
528.723047	0.158479
528.939181	0.159171
529.155297	0.159180
529.371395	0.159081
529.587475	0.160048
529.803536	0.160594
530.019579	0.161608
530.235604	0.162045
530.451611	0.162974
530.667600	0.163135
530.883570	0.163378
531.099522	0.164138
531.315456	0.164456
531.531372	0.164556
531.747269	0.165053
531.963148	0.165208
532.179009	0.166003
532.394852	0.165247
532.610676	0.165747
532.826482	0.165952
533.042271	0.166078
533.258040	0.166547
533.473792	0.166933
533.689525	0.166759
533.905240	0.166680
534.120937	0.166265
534.336616	0.166804
534.552277	0.166896
534.767919	0.167118
534.983543	0.167016
535.199149	0.166561
535.414736	0.166351
535.630306	0.166732
535.845857	0.167651
536.061390	0.168539
536.276904	0.169492
536.492401	0.170455
536.707879	0.170622
536.923339	0.171066
537.138781	0.172411
537.354204	0.172631
537.569610	0.172298
537.784997	0.172238
538.000366	0.172035
538.215716	0.171649
538.431049	0.171794
538.646363	0.172115
538.861659	0.172599
539.076937	0.172473
539.292196	0.173283
539.507438	0.174147
539.722661	0.174326
539.937866	0.174962
540.153052	0.175111
540.368221	0.174646
540.583371	0.175213
540.798503	0.175402
541.013617	0.175779
541.228712	0.175914
541.443789	0.175735
541.658848	0.175871
541.873889	0.175977
542.088912	0.176667
542.303916	0.177273
542.518902	0.177134
542.733870	0.176997
542.948820	0.176776
543.163752	0.176568
543.378665	0.177716
543.593560	0.178274
543.808437	0.178547
544.023295	0.178553
544.238136	0.178673
544.452958	0.179051
544.667762	0.179484
544.882548	0.179932
545.097315	0.181139
545.312064	0.181280
545.526795	0.181532
545.741508	0.181958
545.956203	0.181857
546.170879	0.182219
546.385537	0.181963
546.600177	0.182111
546.814799	0.182026
547.029402	0.180992
547.243988	0.180432
547.458555	0.180186
547.673103	0.179930
547.887634	0.180728
548.102146	0.180825
548.316640	0.181222
548.531116	0.181615
548.745574	0.181899
548.960013	0.182339
549.174435	0.183179
549.388838	0.183442
549.603222	0.183890
549.817589	0.183588
550.031937	0.183630
550.246267	0.183893
550.460579	0.184266
550.674873	0.184326
550.889148	0.184566
551.103405	0.184491
551.317644	0.184790
551.531865	0.184913
551.746068	0.185356
551.960252	0.185532
552.174418	0.185318
552.388566	0.184988
552.602696	0.185145
552.816807	0.185592
553.030900	0.185698
553.244975	0.185752
553.459032	0.185926
553.673070	0.185384
553.887091	0.185701
554.101093	0.185995
554.315077	0.186359
554.529042	0.186492
554.742990	0.186275
554.956919	0.186617
555.170830	0.186623
555.384722	0.186353
555.598597	0.186925
555.812453	0.186624
556.026291	0.186559
556.240111	0.186492
556.453913	0.186928
556.667696	0.187175
556.881461	0.187096
557.095208	0.187562
557.308937	0.187856
557.522647	0.187701
557.736339	0.187788
557.950013	0.187875
558.163669	0.188061
558.377307	0.187708
558.590926	0.187672
558.804527	0.188049
559.018110	0.188015
559.231675	0.188330
559.445221	0.188451
559.658749	0.188675
559.872259	0.188865
560.085751	0.189098
560.299225	0.189779
560.512680	0.190192
560.726117	0.189910
560.939536	0.189740
561.152937	0.189519
561.366319	0.190118
561.579683	0.190274
561.793029	0.190502
562.006357	0.190729
562.219667	0.190596
562.432958	0.190239
562.646231	0.190233
562.859486	0.190464
563.072723	0.190680
563.285941	0.190434
563.499141	0.190572
563.712323	0.190553
563.925487	0.190346
564.138632	0.190487
564.351760	0.190779
564.564869	0.190866
564.777960	0.191266
564.991032	0.191242
565.204087	0.191432
565.417123	0.191734
565.630141	0.191496
565.843140	0.191537
566.056122	0.191507
566.269085	0.191434
566.482030	0.191689
566.694957	0.191300
566.907866	0.191106
567.120756	0.191077
567.333628	0.190581
567.546482	0.191069
567.759318	0.191023
567.972135	0.190784
568.184935	0.190846
568.397716	0.190784
568.610478	0.191198
568.823223	0.191371
569.035949	0.191882
569.248657	0.192139
569.461347	0.192255
569.674019	0.192512
569.886672	0.193249
570.099308	0.193776
570.311925	0.194126
570.524523	0.193986
570.737104	0.194711
570.949666	0.194322
571.162210	0.194765
571.374736	0.194988
571.587244	0.195302
571.799733	0.195279
572.012205	0.195150
572.224658	0.195132
572.437092	0.195545
572.649509	0.195556
572.861907	0.195801
573.074287	0.195717
573.286649	0.195635
573.498993	0.195823
573.711318	0.195763
573.923625	0.196261
574.135914	0.195899
574.348185	0.195941
574.560438	0.196095
574.772672	0.196253
574.984888	0.196899
575.197086	0.197211
575.409266	0.197134
575.621427	0.197343
575.833570	0.197589
576.045695	0.198297
576.257802	0.198655
576.469890	0.198559
576.681961	0.198372
576.894013	0.198420
577.106046	0.198447
577.318062	0.198805
577.530059	0.198868
577.742039	0.198652
577.954000	0.199020
578.165942	0.198697
578.377867	0.198853
578.589773	0.199421
578.801661	0.199456
579.013531	0.199594
579.225382	0.199530
579.437216	0.199653
579.649031	0.199696
579.860828	0.199469
580.072606	0.199617
580.284367	0.199775
580.496109	0.199581
580.707833	0.199184
580.919539	0.199289
581.131227	0.199468
581.342896	0.199564
581.554547	0.199800
581.766180	0.199913
581.977795	0.200257
582.189391	0.200588
582.400969	0.201084
582.612529	0.201519
582.824071	0.201905
583.035595	0.201787
583.247100	0.202041
583.458587	0.202329
583.670056	0.202416
583.881506	0.202569
584.092939	0.202611
584.304353	0.202283
584.515749	0.202534
584.727127	0.202576
584.938486	0.202521
585.149828	0.202641
585.361151	0.202595
585.572456	0.203158
585.783742	0.203360
585.995011	0.202930
586.206261	0.203539
586.417493	0.203767
586.628706	0.203783
586.839902	0.204455
587.051079	0.204620
587.262238	0.204905
587.473379	0.204771
587.684502	0.204632
587.895606	0.205001
588.106692	0.204882
588.317760	0.205077
588.528810	0.205307
588.739841	0.205345
588.950855	0.205814
589.161850	0.205841
589.372827	0.206010
589.583785	0.206295
589.794726	0.206643
590.005648	0.206549
590.216552	0.206753
590.427437	0.206921
590.638305	0.207095
590.849154	0.206726
591.059985	0.206653
591.270798	0.206782
591.481592	0.207023
591.692369	0.207580
591.903127	0.208231
592.113867	0.208511
592.324588	0.208994
592.535292	0.209170
592.745977	0.209402
592.956644	0.209375
593.167293	0.209608
593.377923	0.209900
593.588536	0.209451
593.799130	0.209581
594.009706	0.209605
594.220263	0.209195
594.430803	0.209304
594.641324	0.209094
594.851827	0.209831
595.062312	0.209744
595.272778	0.209774
595.483227	0.210198
595.693657	0.210274
595.904069	0.210174
596.114462	0.210258
596.324838	0.210389
596.535195	0.210784
596.745534	0.210716
596.955855	0.210838
597.166157	0.211149
597.376441	0.211295
597.586707	0.210885
597.796955	0.210951
598.007185	0.211147
598.217396	0.211014
598.427589	0.211153
598.637764	0.210848
598.847921	0.210819
599.058060	0.210506
599.268180	0.210518
599.478282	0.211233
599.688366	0.211375
599.898431	0.211742
600.108479	0.212062
600.318508	0.212434
600.528519	0.212837
600.738511	0.213409
600.948486	0.213593
601.158442	0.213764
601.368380	0.213787
601.578300	0.214185
601.788202	0.214723
601.998085	0.215136
602.207950	0.215364
602.417797	0.215950
602.627626	0.215818
602.837436	0.215889
603.047228	0.215870
603.257002	0.215986
603.466758	0.215800
603.676496	0.215514
603.886215	0.215589
604.095916	0.215505
604.305599	0.215145
604.515264	0.215337
604.724910	0.215742
604.934538	0.215945
605.144148	0.216031
605.353740	0.216313
605.563314	0.216799
605.772869	0.216991
605.982406	0.217323
606.191925	0.217942
606.401425	0.217786
606.610908	0.217654
606.820372	0.217530
607.029818	0.217928
607.239246	0.217884
607.448655	0.217682
607.658047	0.217134
607.867420	0.216861
608.076775	0.216610
608.286111	0.216547
608.495430	0.216802
608.704730	0.217097
608.914012	0.216770
609.123275	0.216650
609.332521	0.216808
609.541748	0.217401
609.750957	0.217761
609.960148	0.217936
610.169321	0.218430
610.378475	0.218489
610.587611	0.218646
610.796729	0.218903
611.005829	0.219396
611.214910	0.219257
611.423974	0.219605
611.633019	0.219644
611.842045	0.219887
612.051054	0.220334
612.260044	0.220621
612.469017	0.220715
612.677970	0.220853
612.886906	0.221088
613.095824	0.221649
613.304723	0.221624
613.513604	0.221875
613.722467	0.221762
613.931311	0.221665
614.140138	0.222318
614.348946	0.222675
614.557736	0.222966
614.766507	0.223000
614.975261	0.222888
615.183996	0.222910
615.392713	0.223012
615.601412	0.223387
615.810092	0.223551
616.018754	0.223219
616.227399	0.223294
616.436024	0.223490
616.644632	0.223681
616.853222	0.223952
617.061793	0.224302
617.270346	0.224293
617.478880	0.224021
617.687397	0.224252
617.895895	0.224024
618.104375	0.224016
618.312837	0.224182
618.521281	0.224222
618.729706	0.224480
618.938113	0.224544
619.146502	0.224725
619.354873	0.224969
619.563226	0.224827
619.771560	0.225457
619.979876	0.225376
620.188174	0.225502
620.396453	0.225455
620.604715	0.225242
620.812958	0.224984
621.021183	0.225212
621.229390	0.225690
621.437578	0.226082
621.645748	0.226138
621.853900	0.226451
622.062034	0.226597
622.270150	0.227128
622.478247	0.227272
622.686326	0.227889
622.894387	0.227885
623.102430	0.227683
623.310454	0.227583
623.518461	0.227475
623.726449	0.227337
623.934418	0.227549
624.142370	0.227540
624.350303	0.227716
624.558218	0.227583
624.766115	0.227878
624.973994	0.228230
625.181855	0.228465
625.389697	0.228694
625.597521	0.229099
625.805327	0.229194
626.013114	0.229397
626.220883	0.229582
626.428634	0.229622
626.636367	0.229565
626.844082	0.229455
627.051778	0.229553
627.259457	0.229825
627.467117	0.229978
627.674758	0.229846
627.882382	0.229945
628.089987	0.230045
628.297574	0.230467
628.505143	0.230887
628.712694	0.231372
628.920226	0.231608
629.127740	0.231627
629.335236	0.231813
629.542714	0.232038
629.750174	0.232241
629.957615	0.232434
630.165038	0.232545
630.372443	0.232411
630.579829	0.232248
630.787198	0.232167
630.994548	0.232267
631.201880	0.232321
631.409194	0.232320
631.616489	0.232624
631.823766	0.232617
632.031025	0.232594
632.238266	0.232929
632.445489	0.233300
632.652693	0.233687
632.859879	0.233783
633.067047	0.234050
633.274197	0.234332
633.481329	0.234220
633.688442	0.234552
633.895537	0.234851
634.102614	0.235099
634.309672	0.235258
634.516713	0.235466
634.723735	0.235690
634.930739	0.235916
635.137724	0.236105
635.344692	0.236019
635.551641	0.236199
635.758572	0.236286
635.965485	0.236280
636.172379	0.236415
636.379256	0.236281
636.586114	0.236005
636.792954	0.235991
636.999775	0.235954
637.206579	0.236374
637.413364	0.236376
637.620131	0.236508
637.826880	0.236515
638.033610	0.236590
638.240323	0.237056
638.447017	0.237542
638.653692	0.237584
638.860350	0.237752
639.066990	0.237675
639.273611	0.237889
639.480214	0.237957
639.686798	0.238348
639.893365	0.238481
640.099913	0.238456
640.306443	0.238563
640.512955	0.238947
640.719449	0.239399
640.925924	0.239862
641.132381	0.240195
641.338820	0.240394
641.545241	0.240381
641.751644	0.240490
641.958028	0.240923
642.164394	0.241217
642.370742	0.241329
642.577071	0.241390
642.783383	0.241533
642.989676	0.241635
643.195951	0.241653
643.402207	0.241985
643.608446	0.242388
643.814666	0.242193
644.020868	0.242530
644.227052	0.242623
644.433218	0.242821
644.639365	0.242800
644.845494	0.242773
645.051605	0.243094
645.257698	0.243032
645.463772	0.242974
645.669828	0.243168
645.875866	0.243111
646.081886	0.243265
646.287888	0.243225
646.493871	0.243409
646.699836	0.243510
646.905783	0.243515
647.111712	0.243699
647.317622	0.244034
647.523514	0.244364
647.729388	0.244309
647.935244	0.244573
648.141082	0.244743
648.346901	0.244887
648.552702	0.245074
648.758485	0.245456
648.964250	0.245501
649.169996	0.245404
649.375724	0.245097
649.581434	0.245261
649.787126	0.245216
649.992800	0.245522
650.198455	0.245770
650.404092	0.246040
650.609711	0.246170
650.815311	0.246669
651.020894	0.247046
651.226458	0.247317
651.432004	0.247413
651.637532	0.247707
651.843041	0.247789
652.048532	0.247904
652.254006	0.247844
652.459460	0.247839
652.664897	0.247914
652.870315	0.247906
653.075716	0.248316
653.281097	0.248595
653.486461	0.248750
653.691807	0.248930
653.897134	0.249075
654.102443	0.249290
654.307734	0.249441
654.513006	0.249480
654.718261	0.249452
654.923497	0.249474
655.128715	0.249681
655.333915	0.249798
655.539096	0.249740
655.744259	0.249911
655.949404	0.250007
656.154531	0.250375
656.359640	0.250468
656.564730	0.250925
656.769802	0.251280
656.974856	0.251486
657.179892	0.251612
657.384909	0.252058
657.589908	0.252088
657.794889	0.252481
657.999852	0.252368
658.204797	0.252596
658.409723	0.252633
658.614631	0.252662
658.819521	0.252819
659.024393	0.253124
659.229246	0.253157
659.434081	0.253511
659.638898	0.253517
659.843697	0.253830
660.048478	0.254257
660.253240	0.254536
660.457984	0.254591
660.662710	0.254971
660.867417	0.255092
661.072107	0.255161
661.276778	0.255470
661.481431	0.255948
661.686066	0.256298
661.890682	0.256557
662.095281	0.256767
662.299861	0.257392
662.504422	0.257405
662.708966	0.257674
662.913491	0.257831
663.117999	0.257746
663.322488	0.257663
663.526958	0.257744
663.731411	0.257688
663.935845	0.257793
664.140261	0.257971
664.344659	0.258007
664.549038	0.258288
664.753400	0.258464
664.957743	0.258745
665.162068	0.258853
665.366375	0.258933
665.570663	0.259020
665.774933	0.259056
665.979185	0.258970
666.183419	0.259400
666.387635	0.259622
666.591832	0.260089
666.796011	0.260046
667.000172	0.260357
667.204315	0.260745
667.408439	0.261063
667.612545	0.261531
667.816634	0.261559
668.020703	0.261655
668.224755	0.261568
668.428788	0.261502
668.632803	0.261970
668.836800	0.262224
669.040779	0.262379
669.244739	0.262734
669.448681	0.262683
669.652605	0.263136
669.856511	0.263409
670.060399	0.263729
670.264268	0.264233
670.468119	0.264512
670.671952	0.264797
670.875767	0.265069
671.079563	0.265316
671.283341	0.265719
671.487101	0.265875
671.690843	0.265991
671.894567	0.266063
672.098272	0.266155
672.301959	0.266289
672.505628	0.266475
672.709278	0.266541
672.912911	0.266466
673.116525	0.266882
673.320121	0.267180
673.523699	0.267495
673.727258	0.267938
673.930799	0.268250
674.134322	0.268350
674.337827	0.268475
674.541314	0.268837
674.744782	0.269056
674.948232	0.268933
675.151664	0.269149
675.355078	0.269254
675.558474	0.269211
675.761851	0.269038
675.965210	0.269225
676.168551	0.269320
676.371873	0.269365
676.575178	0.269708
676.778464	0.269934
676.981732	0.269883
677.184981	0.270090
677.388213	0.270524
677.591426	0.271050
677.794621	0.271402
677.997798	0.271686
678.200956	0.271756
678.404097	0.271635
678.607219	0.271902
678.810323	0.271986
679.013408	0.271849
679.216476	0.272141
679.419525	0.272223
679.622556	0.272217
679.825569	0.272320
680.028563	0.272410
680.231540	0.272681
680.434498	0.272788
680.637438	0.273245
680.840359	0.273722
681.043263	0.273698
681.246148	0.273730
681.449015	0.273911
681.651864	0.274204
681.854694	0.274459
682.057506	0.274693
682.260301	0.274862
682.463076	0.274806
682.665834	0.274912
682.868573	0.274901
683.071295	0.275332
683.273998	0.275287
683.476682	0.275137
683.679349	0.275119
683.881997	0.275219
684.084627	0.275255
684.287239	0.275323
684.489833	0.275482
684.692408	0.275607
684.894965	0.275619
685.097504	0.275827
685.300025	0.276305
685.502527	0.276840
685.705012	0.277091
685.907478	0.277133
686.109925	0.277340
686.312355	0.277432
686.514766	0.277739
686.717159	0.277611
686.919534	0.277905
687.121891	0.278045
687.324230	0.278279
687.526550	0.278418
687.728852	0.278773
687.931136	0.279074
688.133401	0.279358
688.335649	0.279485
688.537878	0.280144
688.740089	0.280166
688.942281	0.280184
689.144456	0.280066
689.346612	0.280102
689.548750	0.280316
689.750870	0.280529
689.952971	0.280901
690.155055	0.280931
690.357120	0.280891
690.559167	0.281296
690.761195	0.281706
690.963206	0.282116
691.165198	0.282293
691.367172	0.282323
691.569128	0.282355
691.771065	0.282488
691.972984	0.282895
692.174885	0.283053
692.376768	0.283103
692.578633	0.282939
692.780479	0.282960
692.982308	0.283270
693.184118	0.283673
693.385909	0.284064
693.587683	0.284005
693.789438	0.283912
693.991175	0.284167
694.192894	0.284394
694.394595	0.284945
694.596277	0.284807
694.797941	0.284822
694.999587	0.284828
695.201215	0.284919
695.402824	0.285171
695.604416	0.285584
695.805989	0.285895
696.007543	0.286043
696.209080	0.286022
696.410598	0.286336
696.612099	0.286504
696.813580	0.286447
697.015044	0.286557
697.216490	0.286560
697.417917	0.286401
697.619326	0.286064
697.820717	0.285989
698.022089	0.285835
698.223444	0.285790
698.424780	0.285760
698.626098	0.285834
698.827397	0.285607
699.028679	0.285630
699.229942	0.286102
699.431187	0.286433
699.632414	0.286541
699.833622	0.286657
700.034813	0.287027
700.235985	0.287157
700.437139	0.287395
700.638274	0.287883
700.839392	0.288321
701.040491	0.288393
701.241572	0.288227
701.442635	0.288379
701.643679	0.288765
701.844706	0.288792
702.045714	0.288922
702.246704	0.288944
702.447675	0.288814
702.648629	0.288575
702.849564	0.288364
703.050481	0.288609
703.251380	0.288772
703.452260	0.288720
703.653122	0.288692
703.853966	0.288856
704.054792	0.289211
704.255600	0.289502
704.456389	0.289584
704.657160	0.289545
704.857913	0.289632
705.058648	0.289574
705.259365	0.289447
705.460063	0.289800
705.660743	0.289616
705.861405	0.289604
706.062048	0.289422
706.262674	0.289448
706.463281	0.289701
706.663870	0.289787
706.864441	0.289958
707.064993	0.290253
707.265527	0.290106
707.466043	0.290441
707.666541	0.290319
707.867021	0.290561
708.067482	0.290576
708.267925	0.290691
708.468350	0.290813
708.668757	0.290783
708.869145	0.290906
709.069516	0.291071
709.269868	0.290850
709.470201	0.291263
709.670517	0.291173
709.870814	0.291362
710.071093	0.291191
710.271354	0.290879
710.471597	0.291023
710.671821	0.290951
710.872028	0.290856
711.072216	0.291189
711.272385	0.290822
711.472537	0.290744
711.672670	0.290668
711.872785	0.290790
712.072882	0.290915
712.272961	0.290761
712.473021	0.290658
712.673063	0.290606
712.873087	0.290424
713.073093	0.290746
713.273081	0.290727
713.473050	0.290829
713.673001	0.290740
713.872934	0.290799
714.072849	0.290953
714.272745	0.290668
714.472623	0.290442
714.672483	0.290378
714.872325	0.289778
715.072148	0.289745
715.271954	0.289521
715.471741	0.289496
715.671509	0.289318
715.871260	0.289023
716.070992	0.289105
716.270707	0.289143
716.470403	0.288746
716.670080	0.288754
716.869740	0.288659
717.069381	0.288553
717.269004	0.288595
717.468609	0.288505
717.668195	0.288444
717.867764	0.288289
718.067314	0.288115
718.266846	0.288413
718.466360	0.288383
718.665855	0.288388
718.865332	0.288601
719.064791	0.288242
719.264232	0.288311
719.463655	0.288185
719.663059	0.288225
719.862445	0.288160
720.061813	0.288300
720.261163	0.288211
720.460494	0.288096
720.659807	0.287894
720.859102	0.287778
721.058379	0.287503
721.257638	0.287439
721.456878	0.287242
721.656100	0.287239
721.855304	0.286799
722.054490	0.286772
722.253657	0.286638
722.452806	0.286314
722.651937	0.286481
722.851050	0.286591
723.050145	0.286551
723.249221	0.286471
723.448279	0.286421
723.647319	0.286241
723.846340	0.286049
724.045344	0.286044
724.244329	0.285844
724.443296	0.285484
724.642245	0.284989
724.841175	0.284640
725.040088	0.284236
725.238982	0.284026
725.437857	0.284017
725.636715	0.283892
725.835554	0.283595
726.034376	0.283455
726.233179	0.283364
726.431963	0.283505
726.630730	0.283652
726.829478	0.283766
727.028208	0.283450
727.226920	0.283286
727.425614	0.283112
727.624289	0.282983
727.822946	0.283135
728.021585	0.282718
728.220206	0.282296
728.418808	0.281961
728.617392	0.281931
728.815958	0.282003
729.014506	0.282035
729.213036	0.282179
729.411547	0.281941
729.610040	0.281729
729.808515	0.281938
730.006972	0.282060
730.205410	0.282106
730.403831	0.281992
730.602233	0.281996
730.800616	0.281810
730.998982	0.281263
731.197329	0.281300
731.395658	0.281140
731.593969	0.280808
731.792262	0.280656
731.990536	0.280537
732.188793	0.280628
732.387031	0.280353
732.585250	0.280004
732.783452	0.280074
732.981635	0.279975
733.179800	0.279826
733.377947	0.279859
733.576076	0.279946
733.774186	0.279727
733.972278	0.279452
734.170352	0.279411
734.368408	0.279454
734.566446	0.279440
734.764465	0.279127
734.962466	0.279311
735.160449	0.279343
735.358413	0.279149
735.556360	0.279340
735.754288	0.279121
735.952198	0.279139
736.150090	0.279284
736.347963	0.279318
736.545818	0.279276
736.743655	0.278832
736.941474	0.278605
737.139275	0.278418
737.337057	0.277946
737.534821	0.277908
737.732567	0.277482
737.930295	0.277049
738.128005	0.276858
738.325696	0.276760
738.523369	0.276706
738.721024	0.276627
738.918660	0.276503
739.116279	0.276476
739.313879	0.276303
739.511461	0.276454
739.709024	0.276382
739.906570	0.276263
740.104097	0.276389
740.301606	0.276133
740.499097	0.275953
740.696569	0.275507
740.894024	0.275484
741.091460	0.275262
741.288878	0.275000
741.486277	0.274753
741.683659	0.274523
741.881022	0.274271
742.078367	0.274366
742.275694	0.274324
742.473002	0.274648
742.670293	0.274568
742.867565	0.274281
743.064819	0.274193
743.262054	0.274073
743.459272	0.273883
743.656471	0.273579
743.853652	0.273098
744.050815	0.272824
744.247959	0.272571
744.445085	0.272190
744.642194	0.272114
744.839283	0.271824
745.036355	0.271563
745.233408	0.271618
745.430444	0.271382
745.627461	0.271576
745.824459	0.271414
746.021440	0.271291
746.218402	0.271333
746.415346	0.271213
746.612272	0.271211
746.809180	0.271289
747.006069	0.270699
747.202940	0.270430
747.399793	0.270127
747.596628	0.270017
747.793444	0.269720
747.990243	0.269231
748.187023	0.269145
748.383784	0.268681
748.580528	0.268085
748.777253	0.267959
748.973960	0.267936
749.170649	0.267632
749.367320	0.267490
749.563973	0.267339
749.760607	0.267260
749.957223	0.266958
750.153821	0.267010
750.350400	0.267225
750.546962	0.267275
750.743505	0.267142
750.940030	0.267290
751.136536	0.267109
751.333025	0.266843
751.529495	0.266686
751.725947	0.266620
751.922381	0.266316
752.118796	0.265929
752.315194	0.265636
752.511573	0.265289
752.707934	0.264920
752.904276	0.264761
753.100601	0.264624
753.296907	0.264357
753.493195	0.264237
753.689465	0.264045
753.885716	0.264234
754.081949	0.264052
754.278164	0.264311
754.474361	0.263981
754.670540	0.263650
754.866700	0.263491
755.062843	0.263832
755.258967	0.263588
755.455072	0.263517
755.651160	0.263248
755.847229	0.263293
756.043280	0.262938
756.239313	0.262710
756.435328	0.262825
756.631324	0.262590
756.827302	0.262234
757.023262	0.262153
757.219204	0.261789
757.415127	0.261441
757.611033	0.261267
757.806920	0.261305
758.002788	0.261146
758.198639	0.260927
758.394471	0.260968
758.590286	0.260494
758.786081	0.260064
758.981859	0.260187
759.177619	0.260106
759.373360	0.260006
759.569083	0.259600
759.764788	0.259720
759.960474	0.259426
760.156143	0.259386
760.351793	0.259469
760.547425	0.259567
760.743038	0.259648
760.938634	0.259568
761.134211	0.259210
761.329770	0.259428
761.525311	0.259306
761.720833	0.259249
761.916338	0.258902
762.111824	0.258628
762.307292	0.258488
762.502741	0.258220
762.698173	0.257915
762.893586	0.258142
763.088981	0.257633
763.284358	0.257403
763.479716	0.257377
763.675057	0.257043
763.870379	0.257029
764.065683	0.257120
764.260968	0.256901
764.456236	0.257156
764.651485	0.256683
764.846716	0.256620
765.041929	0.256687
765.237123	0.256628
765.432299	0.256549
765.627457	0.256541
765.822597	0.256493
766.017719	0.256349
766.212822	0.255907
766.407907	0.256036
766.602974	0.255942
766.798023	0.255979
766.993054	0.255867
767.188066	0.256140
767.383060	0.255842
767.578036	0.255714
767.772993	0.255752
767.967933	0.255715
768.162854	0.255559
768.357757	0.255595
768.552642	0.255245
768.747508	0.255065
768.942356	0.254829
769.137186	0.255092
769.331998	0.254743
769.526792	0.254756
769.721567	0.254987
769.916324	0.254976
770.111063	0.254982
770.305784	0.255207
770.500486	0.255155
770.695171	0.255061
770.889837	0.254858
771.084484	0.255043
771.279114	0.254807
771.473725	0.254324
771.668318	0.254096
771.862893	0.253948
772.057450	0.253766
772.251988	0.253689
772.446509	0.253932
772.641011	0.253939
772.835494	0.253879
773.029960	0.254064
773.224407	0.254056
773.418836	0.254196
773.613247	0.254166
773.807640	0.254224
774.002014	0.254219
774.196370	0.253909
774.390708	0.254026
774.585028	0.254077
774.779330	0.253827
774.973613	0.254054
775.167878	0.253880
775.362125	0.253884
775.556354	0.253367
775.750564	0.253054
775.944756	0.253107
776.138930	0.252934
776.333086	0.252666
776.527223	0.252575
776.721343	0.252659
776.915444	0.252760
777.109526	0.252486
777.303591	0.252682
777.497637	0.252777
777.691666	0.252708
777.885676	0.252696
778.079667	0.252675
778.273641	0.252858
778.467596	0.252628
778.661533	0.252576
778.855452	0.252805
779.049352	0.252691
779.243235	0.252859
779.437099	0.252889
779.630945	0.252763
779.824773	0.252830
780.018582	0.252783
780.212373	0.252612
780.406146	0.252620
780.599901	0.252655
780.793638	0.252896
780.987356	0.252929
781.181056	0.252870
781.374738	0.252935
781.568402	0.252944
781.762047	0.252835
781.955674	0.253040
782.149283	0.253002
782.342874	0.252947
782.536447	0.253101
782.730001	0.253151
782.923537	0.253137
783.117055	0.253122
783.310555	0.253270
783.504036	0.253289
783.697499	0.253297
783.890944	0.253171
784.084371	0.253287
784.277780	0.252869
784.471170	0.252725
784.664542	0.252848
784.857896	0.252979
785.051231	0.252789
785.244549	0.252833
785.437848	0.252995
785.631129	0.253105
785.824392	0.253009
786.017636	0.253336
786.210863	0.253376
786.404071	0.253452
786.597260	0.253389
786.790432	0.253608
786.983585	0.253760
787.176721	0.253903
787.369838	0.254157
787.562936	0.254118
787.756017	0.254372
787.949079	0.254497
788.142123	0.254603
788.335149	0.254675
788.528156	0.254704
788.721146	0.254925
788.914117	0.254951
789.107070	0.255105
789.300005	0.255222
789.492921	0.255377
789.685819	0.255559
789.878699	0.255867
790.071561	0.255986
790.264405	0.255906
790.457230	0.255944
790.650037	0.256194
790.842826	0.256528
791.035597	0.256658
791.228349	0.256633
791.421084	0.256771
791.613800	0.256707
791.806497	0.256937
791.999177	0.257363
792.191838	0.257317
792.384481	0.257400
792.577106	0.257227
792.769713	0.257570
792.962301	0.257409
793.154871	0.257499
793.347423	0.257571
793.539957	0.257694
793.732473	0.257576
793.924970	0.257932
794.117449	0.257859
794.309910	0.258070
794.502353	0.257955
794.694777	0.258106
794.887183	0.258241
795.079571	0.258226
795.271941	0.258072
795.464293	0.258154
795.656626	0.258224
795.848941	0.257846
796.041238	0.257875
796.233516	0.258193
796.425777	0.258507
796.618019	0.258870
796.810243	0.259138
797.002449	0.259421
797.194636	0.259742
797.386805	0.259915
797.578956	0.260269
797.771089	0.260481
797.963204	0.260529
798.155300	0.260741
798.347378	0.260835
798.539438	0.261125
798.731480	0.261139
798.923503	0.261298
799.115509	0.261484
799.307496	0.262015
799.499465	0.262171
799.691415	0.262359
799.883348	0.262348
800.075262	0.262332
800.267158	0.262277
800.459035	0.262555
800.650895	0.262896
800.842736	0.263158
801.034559	0.263398
801.226364	0.263678
801.418150	0.263920
801.609919	0.264309
801.801669	0.264720
801.993401	0.265105
802.185114	0.265421
802.376810	0.265464
802.568487	0.265501
802.760146	0.265530
802.951787	0.265674
803.143409	0.265779
803.335014	0.265952
803.526600	0.266256
803.718168	0.266502
803.909717	0.266912
804.101249	0.267151
804.292762	0.267136
804.484257	0.267526
804.675734	0.267562
804.867192	0.267832
805.058632	0.268039
805.250054	0.268130
805.441458	0.268293
805.632844	0.268483
805.824211	0.268808
806.015561	0.269304
806.206891	0.269545
806.398204	0.269836
806.589499	0.270225
806.780775	0.270249
806.972033	0.270474
807.163273	0.270484
807.354495	0.270531
807.545698	0.270567
807.736883	0.270822
807.928050	0.271272
808.119199	0.271767
808.310329	0.271833
808.501441	0.272153
808.692535	0.272468
808.883611	0.272893
809.074669	0.273243
809.265708	0.273514
809.456729	0.273744
809.647732	0.273440
809.838717	0.273646
810.029683	0.274091
810.220632	0.274597
810.411562	0.274805
810.602474	0.275194
810.793367	0.275084
810.984242	0.275553
811.175100	0.275737
811.365938	0.276318
811.556759	0.276490
811.747562	0.276679
811.938346	0.276878
812.129112	0.277116
812.319860	0.277322
812.510589	0.277906
812.701300	0.278252
812.891994	0.278439
813.082668	0.278530
813.273325	0.278559
813.463964	0.278795
813.654584	0.279021
813.845186	0.279198
814.035769	0.279375
814.226335	0.279674
814.416882	0.279576
814.607411	0.279980
814.797922	0.280419
814.988415	0.280474
815.178889	0.280709
815.369345	0.280951
815.559783	0.281057
815.750203	0.281695
815.940605	0.282219
816.130988	0.283010
816.321353	0.283358
816.511700	0.283960
816.702028	0.284663
816.892339	0.285196
817.082631	0.286123
817.272905	0.286748
817.463161	0.286845
817.653398	0.286839
817.843617	0.287119
818.033819	0.287420
818.224001	0.287684
818.414166	0.288210
818.604312	0.288377
818.794440	0.288173
818.984550	0.288321
819.174642	0.288980
819.364716	0.289398
819.554771	0.289694
819.744808	0.289854
819.934827	0.290179
820.124827	0.290265
820.314810	0.290588
820.504774	0.290777
820.694720	0.291117
820.884647	0.290892
821.074557	0.291568
821.264448	0.291941
821.454321	0.292688
821.644176	0.293097
821.834012	0.293389
822.023831	0.293817
822.213631	0.294028
822.403413	0.294812
822.593176	0.295554
822.782922	0.295596
822.972649	0.295670
823.162358	0.295705
823.352049	0.296087
823.541721	0.296711
823.731376	0.297145
823.921012	0.297673
824.110629	0.297828
824.300229	0.297783
824.489811	0.298125
824.679374	0.298279
824.868919	0.298757
825.058445	0.298829
825.247954	0.299167
825.437444	0.299540
825.626916	0.300028
825.816370	0.299984
826.005806	0.300642
826.195223	0.300818
826.384622	0.301629
826.574003	0.302126
826.763366	0.302303
826.952711	0.302440
827.142037	0.302734
827.331345	0.303168
827.520635	0.303799
827.709906	0.304202
827.899160	0.304746
828.088395	0.304672
828.277612	0.304790
828.466810	0.305268
828.655991	0.305817
828.845153	0.306090
829.034297	0.306293
829.223423	0.306590
829.412531	0.306848
829.601620	0.307298
829.790691	0.308167
829.979744	0.308668
830.168779	0.308977
830.357795	0.309057
830.546793	0.309708
830.735773	0.310132
830.924735	0.310749
831.113679	0.311371
831.302604	0.311440
831.491511	0.311393
831.680400	0.311712
831.869271	0.312201
832.058123	0.312979
832.246957	0.313262
832.435773	0.313736
832.624571	0.314129
832.813351	0.314503
833.002112	0.315194
833.190855	0.315732
833.379580	0.315847
833.568287	0.316326
833.756975	0.316886
833.945645	0.317248
834.134297	0.318035
834.322931	0.318332
834.511547	0.318396
834.700144	0.318694
834.888723	0.319257
835.077284	0.319884
835.265826	0.320185
835.454351	0.320251
835.642857	0.320628
835.831345	0.320860
836.019815	0.321315
836.208266	0.322060
836.396699	0.322580
836.585114	0.322889
836.773511	0.323531
836.961890	0.324150
837.150250	0.324726
837.338592	0.325299
837.526916	0.325499
837.715222	0.325853
837.903510	0.326021
838.091779	0.326703
838.280030	0.327196
838.468263	0.327365
838.656477	0.328125
838.844674	0.328345
839.032852	0.328930
839.221012	0.329408
839.409153	0.330036
839.597277	0.330688
839.785382	0.330877
839.973469	0.331635
840.161538	0.332580
840.349589	0.332608
840.537621	0.333307
840.725635	0.333758
840.913631	0.334286
841.101609	0.334586
841.289568	0.335211
841.477509	0.335806
841.665432	0.335876
841.853337	0.336321
842.041224	0.336979
842.229092	0.337557
842.416942	0.337870
842.604774	0.338188
842.792588	0.338955
842.980383	0.339144
843.168160	0.339690
843.355919	0.340054
843.543660	0.340243
843.731382	0.340803
843.919087	0.341100
844.106773	0.341591
844.294441	0.342286
844.482090	0.342601
844.669722	0.343339
844.857335	0.343443
845.044930	0.344827
845.232507	0.345345
845.420065	0.345792
845.607605	0.346237
845.795127	0.346455
845.982631	0.346812
846.170117	0.347174
846.357584	0.347556
846.545033	0.348367
846.732464	0.348246
846.919877	0.348562
847.107272	0.349074
847.294648	0.349835
847.482006	0.350861
847.669346	0.351266
847.856667	0.351957
848.043971	0.352328
848.231256	0.352876
848.418523	0.353174
848.605771	0.354051
848.793002	0.354227
848.980214	0.354519
849.167408	0.354835
849.354584	0.355273
849.541742	0.355860
849.728881	0.356636
849.916002	0.357336
850.103105	0.357926
850.290190	0.358073
850.477256	0.358589
850.664304	0.359380
850.851334	0.360111
851.038346	0.361341
851.225340	0.361372
851.412315	0.361949
851.599272	0.362585
851.786211	0.363152
851.973132	0.363614
852.160034	0.364048
852.346918	0.364118
852.533784	0.364026
852.720632	0.363606
852.907462	0.364374
853.094273	0.364254
853.281066	0.364199
853.467841	0.364863
853.654598	0.365465
853.841336	0.366167
854.028056	0.366519
854.214758	0.366754
854.401442	0.367246
854.588107	0.367551
854.774755	0.368132
854.961384	0.368447
855.147995	0.368791
855.334587	0.369404
855.521162	0.369499
855.707718	0.369859
855.894256	0.370288
856.080775	0.370663
856.267277	0.370739
856.453760	0.370820
856.640225	0.371287
856.826672	0.371185
857.013101	0.371488
857.199511	0.372677
857.385903	0.372927
857.572277	0.373807
857.758633	0.374693
857.944970	0.375801
858.131290	0.376484
858.317591	0.377223
858.503873	0.378231
858.690138	0.378796
858.876384	0.378845
859.062612	0.379787
859.248822	0.380250
859.435014	0.380655
859.621188	0.380772
859.807343	0.381637
859.993480	0.382051
860.179599	0.382580
860.365699	0.383144
860.551781	0.383463
860.737846	0.384250
860.923891	0.384832
861.109919	0.385370
861.295929	0.386061
861.481920	0.386350
861.667893	0.386864
861.853848	0.387015
862.039784	0.387103
862.225702	0.387554
862.411603	0.387686
862.597484	0.387831
862.783348	0.388358
862.969193	0.388437
863.155021	0.388612
863.340830	0.388530
863.526620	0.389120
863.712393	0.389847
863.898147	0.390108
864.083883	0.390519
864.269601	0.390746
864.455301	0.390843
864.640982	0.391619
864.826645	0.392086
865.012290	0.392722
865.197917	0.392935
865.383526	0.393198
865.569116	0.393777
865.754688	0.394246
865.940242	0.394862
866.125777	0.395273
866.311295	0.395057
866.496794	0.395249
866.682275	0.395613
866.867737	0.395722
867.053182	0.395809
867.238608	0.396067
867.424016	0.396152
867.609406	0.396723
867.794778	0.396974
867.980131	0.397446
868.165466	0.397917
868.350783	0.398154
868.536082	0.398479
868.721362	0.398571
868.906625	0.398458
869.091869	0.398633
869.277094	0.398475
869.462302	0.398660
869.647491	0.398751
869.832662	0.399372
870.017815	0.399301
870.202950	0.399667
870.388066	0.400281
870.573165	0.400566
870.758245	0.400418
870.943306	0.401006
871.128350	0.400735
871.313375	0.401300
871.498382	0.401079
871.683371	0.401260
871.868342	0.401089
872.053294	0.401168
872.238229	0.401363
872.423144	0.402245
872.608042	0.402099
872.792922	0.402793
872.977783	0.402667
873.162626	0.402828
873.347451	0.403861
873.532258	0.404797
873.717046	0.405224
873.901816	0.405895
874.086568	0.406130
874.271302	0.406603
874.456017	0.407213
874.640715	0.407590
874.825394	0.408411
875.010055	0.407970
875.194697	0.407790
875.379322	0.407856
875.563928	0.407882
875.748516	0.407933
875.933085	0.408166
876.117637	0.408132
876.302170	0.408555
876.486685	0.408534
876.671182	0.408891
876.855661	0.409474
877.040121	0.409410
877.224563	0.409632
877.408987	0.409956
877.593393	0.410083
877.777780	0.410195
877.962150	0.410178
878.146501	0.410277
878.330833	0.410444
878.515148	0.410867
878.699444	0.411335
878.883722	0.411790
879.067982	0.411933
879.252224	0.412402
879.436447	0.412761
879.620653	0.413379
879.804840	0.413569
879.989008	0.414465
880.173159	0.414277
880.357291	0.414208
880.541405	0.414008
880.725501	0.413858
880.909579	0.413680
881.093638	0.414096
881.277680	0.414229
881.461703	0.414627
881.645707	0.414400
881.829694	0.414770
882.013662	0.415150
882.197612	0.415712
882.381544	0.416193
882.565458	0.416021
882.749353	0.415871
882.933230	0.415842
883.117089	0.415944
883.300930	0.415979
883.484753	0.415927
883.668557	0.416232
883.852343	0.416185
884.036111	0.416177
884.219861	0.416648
884.403592	0.416993
884.587305	0.416796
884.771000	0.416678
884.954677	0.416808
885.138335	0.416917
885.321976	0.416607
885.505598	0.417377
885.689201	0.417663
885.872787	0.417950
886.056354	0.417437
886.239904	0.418216
886.423434	0.418482
886.606947	0.418736
886.790442	0.418851
886.973918	0.419107
887.157376	0.418514
887.340816	0.418679
887.524237	0.418346
887.707641	0.419000
887.891026	0.418469
888.074393	0.418374
888.257741	0.418348
888.441072	0.418075
888.624384	0.418092
888.807678	0.417970
888.990954	0.417729
889.174211	0.417819
889.357451	0.417577
889.540672	0.417574
889.723875	0.417571
889.907059	0.417159
890.090226	0.417479
890.273374	0.417466
890.456504	0.417302
890.639616	0.417241
890.822709	0.417195
891.005785	0.417105
891.188842	0.417289
891.371881	0.417399
891.554901	0.417948
891.737904	0.417382
891.920888	0.417193
892.103854	0.417529
892.286802	0.417529
892.469731	0.417493
892.652643	0.417393
892.835536	0.416800
893.018410	0.416197
893.201267	0.415468
893.384106	0.415905
893.566926	0.416287
893.749728	0.415777
893.932511	0.415495
894.115277	0.415598
894.298024	0.415547
894.480753	0.415704
894.663464	0.416060
894.846157	0.416246
895.028831	0.415645
895.211487	0.415169
895.394125	0.414975
895.576745	0.414810
895.759346	0.414731
895.941930	0.414425
896.124495	0.414131
896.307041	0.413613
896.489570	0.413231
896.672080	0.413402
896.854573	0.413325
897.037046	0.413102
897.219502	0.413158
897.401940	0.412869
897.584359	0.412827
897.766760	0.413245
897.949143	0.412969
898.131507	0.412838
898.313854	0.412648
898.496182	0.412227
898.678492	0.411934
898.860783	0.411454
899.043057	0.410737
899.225312	0.410259
899.407549	0.409787
899.589768	0.409635
899.771968	0.409232
899.954151	0.408583
900.136315	0.408227
900.318461	0.408581
900.500588	0.408564
900.682698	0.408835
900.864789	0.408881
901.046862	0.408336
901.228917	0.408286
901.410953	0.408239
901.592971	0.408325
901.774972	0.408466
901.956953	0.407911
902.138917	0.407174
902.320862	0.406936
902.502790	0.406728
902.684699	0.406571
902.866589	0.406477
903.048462	0.406118
903.230316	0.405887
903.412152	0.405707
903.593970	0.405218
903.775770	0.405577
903.957551	0.405550
904.139314	0.405100
904.321059	0.404903
904.502786	0.404440
904.684494	0.404712
904.866185	0.404011
905.047857	0.403569
905.229510	0.403519
905.411146	0.403228
905.592763	0.402721
905.774363	0.401872
905.955943	0.401121
906.137506	0.400591
906.319051	0.399599
906.500577	0.399504
906.682085	0.399580
906.863575	0.399191
907.045046	0.398732
907.226500	0.397819
907.407935	0.397364
907.589352	0.397568
907.770750	0.397281
907.952131	0.396616
908.133493	0.396285
908.314837	0.395166
908.496163	0.394829
908.677470	0.394063
908.858760	0.393598
909.040031	0.393826
909.221284	0.392667
909.402518	0.391553
909.583735	0.391186
909.764933	0.390364
909.946113	0.389681
910.127275	0.388635
910.308418	0.387951
910.489544	0.387722
910.670651	0.387316
910.851740	0.386784
911.032810	0.386333
911.213863	0.385748
911.394897	0.385593
911.575913	0.385496
911.756911	0.385097
911.937890	0.384470
912.118851	0.383417
912.299794	0.382147
912.480719	0.382171
912.661626	0.381646
912.842514	0.381342
913.023384	0.380252
913.204236	0.379460
913.385070	0.378594
913.565886	0.378600
913.746683	0.377989
913.927462	0.377888
914.108223	0.377400
914.288965	0.376895
914.469690	0.376067
914.650396	0.375331
914.831084	0.374406
915.011754	0.374458
915.192405	0.373548
915.373038	0.373783
915.553653	0.373238
915.734250	0.371969
915.914829	0.371779
916.095389	0.370765
916.275931	0.371161
916.456455	0.370755
916.636961	0.369489
916.817448	0.368858
916.997917	0.368168
917.178368	0.366836
917.358801	0.365677
917.539216	0.364662
917.719612	0.364864
917.899990	0.363620
918.080350	0.363512
918.260692	0.363467
918.441015	0.362545
918.621320	0.361357
918.801607	0.361590
918.981876	0.361263
919.162127	0.360759
919.342359	0.359400
919.522573	0.359058
919.702769	0.357836
919.882947	0.357159
920.063106	0.356920
920.243247	0.356134
920.423370	0.354891
920.603475	0.354499
920.783562	0.353441
920.963630	0.353123
921.143680	0.351891
921.323712	0.350787
921.503725	0.349813
921.683721	0.348945
921.863698	0.348468
922.043657	0.347982
922.223598	0.347690
922.403520	0.347382
922.583424	0.346866
922.763311	0.346160
922.943178	0.345266
923.123028	0.344736
923.302859	0.343723
923.482673	0.342350
923.662467	0.340922
923.842244	0.340209
924.022003	0.338977
924.201743	0.337221
924.381465	0.336096
924.561169	0.335769
924.740854	0.334176
924.920522	0.333431
925.100171	0.332749
925.279802	0.332170
925.459414	0.330996
925.639009	0.330624
925.818585	0.330598
925.998143	0.329361
926.177683	0.328717
926.357205	0.327877
926.536708	0.326892
926.716193	0.326352
926.895660	0.325281
927.075109	0.323940
927.254539	0.322613
927.433951	0.320835
927.613345	0.319868
927.792721	0.318406
927.972079	0.317568
928.151418	0.317478
928.330739	0.316960
928.510042	0.316632
928.689327	0.315344
928.868593	0.314539
929.047841	0.313923
929.227071	0.313716
929.406283	0.312840
929.585476	0.311732
929.764652	0.309452
929.943809	0.307668
930.122948	0.305547
930.302068	0.304342
930.481171	0.303772
930.660255	0.302926
930.839321	0.301710
931.018369	0.300817
931.197398	0.300682
931.376409	0.299841
931.555402	0.299198
931.734377	0.298446
931.913334	0.298231
932.092272	0.297185
932.271192	0.295649
932.450094	0.295689
932.628978	0.294764
932.807844	0.294090
932.986691	0.293352
933.165520	0.292403
933.344331	0.292451
933.523123	0.292126
933.701898	0.290716
933.880654	0.290514
934.059392	0.288301
934.238111	0.286694
934.416813	0.285470
934.595496	0.284966
934.774161	0.283680
934.952808	0.282366
935.131437	0.282591
935.310047	0.281232
935.488639	0.280413
935.667213	0.279970
935.845769	0.278903
936.024306	0.277237
936.202825	0.276276
936.381326	0.275453
936.559809	0.273751
936.738274	0.270438
936.916720	0.269584
937.095148	0.268981
937.273558	0.267531
937.451950	0.267850
937.630323	0.266494
937.808678	0.264826
937.987015	0.263542
938.165334	0.263995
938.343635	0.262414
938.521917	0.262563
938.700181	0.260412
938.878427	0.258941
939.056655	0.256592
939.234864	0.255911
939.413055	0.254727
939.591228	0.253479
939.769383	0.251751
939.947519	0.251625
940.125638	0.249546
940.303738	0.247728
940.481820	0.246794
940.659883	0.246393
940.837929	0.245465
941.015956	0.243773
941.193965	0.242436
941.371955	0.240438
941.549928	0.239996
941.727882	0.239851
941.905818	0.239273
942.083736	0.238442
942.261636	0.236954
942.439517	0.236088
942.617380	0.234820
942.795225	0.233518
942.973052	0.233349
943.150860	0.231529
943.328651	0.229387
943.506423	0.229834
943.684176	0.228818
943.861912	0.227386
944.039629	0.226057
944.217328	0.225381
944.395009	0.225836
944.572672	0.224659
944.750317	0.223426
944.927943	0.221995
945.105551	0.220136
945.283141	0.219324
945.460712	0.219017
945.638265	0.216977
945.815801	0.216540
945.993317	0.214452
946.170816	0.214183
946.348297	0.214046
946.525759	0.213647
946.703203	0.212005
946.880629	0.210306
947.058036	0.209881
947.235425	0.208613
947.412797	0.207626
947.590149	0.207282
947.767484	0.204848
947.944800	0.202047
948.122099	0.200917
948.299379	0.200621
948.476640	0.199161
948.653884	0.196150
948.831109	0.196457
949.008316	0.196043
949.185505	0.193033
949.362676	0.190303
949.539828	0.190696
949.716962	0.189460
949.894078	0.187162
950.071176	0.186446
950.248256	0.187202
950.425317	0.185848
950.602360	0.185214
950.779385	0.187058
950.956391	0.188349
951.133380	0.186646
951.310350	0.185642
951.487302	0.184733
951.664235	0.185401
951.841151	0.183927
952.018048	0.182647
952.194927	0.179788
952.371788	0.177118
952.548631	0.175888
952.725455	0.175086
952.902261	0.173642
953.079049	0.173048
953.255819	0.172036
953.432570	0.169872
953.609303	0.168575
953.786018	0.167984
953.962715	0.167519
954.139394	0.165378
954.316054	0.164386
954.492696	0.164642
954.669320	0.165149
954.845926	0.163765
955.022513	0.165112
955.199083	0.165285
955.375634	0.165428
955.552166	0.166084
955.728681	0.166901
955.905177	0.164260
956.081655	0.163602
956.258115	0.163027
956.434557	0.160425
956.610980	0.158645
956.787385	0.156680
956.963772	0.157291
957.140141	0.154542
957.316492	0.153414
957.492824	0.154744
957.669138	0.152887
957.845434	0.150379
958.021712	0.152418
958.197971	0.153426
958.374212	0.154325
958.550435	0.153778
958.726640	0.155615
958.902826	0.156589
959.078995	0.154657
959.255145	0.156404
959.431277	0.156280
959.607390	0.153267
959.783486	0.151937
959.959563	0.152722
960.135622	0.150476
960.311662	0.151369
960.487685	0.149960
960.663689	0.151473
960.839675	0.149486
961.015643	0.150395
961.191593	0.153905
961.367524	0.154496
961.543437	0.151967
961.719332	0.152039
961.895209	0.149970
962.071067	0.149240
962.246907	0.147586
962.422730	0.145173
962.598533	0.143103
962.774319	0.139439
962.950086	0.136157
963.125835	0.138922
963.301566	0.139666
963.477279	0.139545
963.652973	0.140996
963.828650	0.142287
964.004308	0.146458
964.179947	0.150832
964.355569	0.152648
964.531172	0.156733
964.706757	0.155173
964.882324	0.154265
965.057873	0.153500
965.233403	0.151698
965.408916	0.152188
965.584410	0.149590
965.759885	0.146067
965.935343	0.145795
966.110782	0.143191
966.286203	0.143538
966.461606	0.144157
966.636991	0.143313
966.812357	0.143788
966.987705	0.143277
967.163035	0.143658
967.338347	0.144645
967.513641	0.142480
967.688916	0.144971
967.864173	0.145542
968.039412	0.144593
968.214632	0.145128
968.389835	0.145718
968.565019	0.145953
968.740185	0.147267
968.915333	0.147484
969.090462	0.149542
969.265573	0.150019
969.440667	0.147249
969.615741	0.147097
969.790798	0.146780
969.965836	0.147850
970.140856	0.146723
970.315858	0.146744
970.490842	0.145421
970.665808	0.144032
970.840755	0.140752
971.015684	0.142834
971.190595	0.144754
971.365487	0.143380
971.540362	0.139911
971.715218	0.139921
971.890056	0.139070
972.064875	0.138386
972.239677	0.137235
972.414460	0.139304
972.589225	0.139478
972.763972	0.138999
972.938700	0.141228
973.113411	0.143270
973.288103	0.142429
973.462777	0.140877
973.637432	0.143701
973.812070	0.147068
973.986689	0.146764
974.161290	0.147164
974.335873	0.147608
974.510437	0.148739
974.684984	0.148090
974.859512	0.148568
975.034022	0.149871
975.208513	0.148976
975.382987	0.148973
975.557442	0.150494
975.731879	0.148667
975.906298	0.148422
976.080698	0.146663
976.255080	0.146621
976.429445	0.148490
976.603790	0.149422
976.778118	0.148510
976.952427	0.148094
977.126719	0.144921
977.300992	0.145278
977.475246	0.142945
977.649483	0.141058
977.823701	0.141015
977.997901	0.140469
978.172083	0.138334
978.346247	0.139400
978.520392	0.138351
978.694519	0.139428
978.868628	0.140233
979.042719	0.140995
979.216791	0.142567
979.390845	0.143263
979.564882	0.144472
979.738899	0.146567
979.912899	0.144357
980.086880	0.145231
980.260843	0.146341
980.434788	0.147021
980.608715	0.147714
980.782623	0.147859
980.956514	0.147792
981.130386	0.145176
981.304240	0.142984
981.478075	0.144316
981.651892	0.143113
981.825692	0.140857
981.999472	0.139549
982.173235	0.139619
982.346980	0.138619
982.520706	0.137363
982.694414	0.137560
982.868104	0.139086
983.041775	0.139753
983.215428	0.138368
983.389064	0.139410
983.562680	0.139755
983.736279	0.138429
983.909860	0.140303
984.083422	0.140252
984.256966	0.141113
984.430491	0.139984
984.603999	0.137597
984.777488	0.141754
984.950959	0.142335
985.124412	0.140615
985.297847	0.141814
985.471263	0.140075
985.644661	0.143515
985.818041	0.142464
985.991403	0.139638
986.164747	0.143451
986.338072	0.142053
986.511379	0.140414
986.684668	0.140433
986.857938	0.136857
987.031191	0.138020
987.204425	0.136193
987.377641	0.136946
987.550839	0.139117
987.724018	0.135905
987.897179	0.134352
988.070322	0.134316
988.243447	0.135150
988.416554	0.137521
988.589642	0.136681
988.762712	0.135310
988.935764	0.137606
989.108798	0.139235
989.281813	0.139781
989.454811	0.138575
989.627790	0.139449
989.800751	0.138427
989.973693	0.138340
990.146617	0.137860
990.319524	0.137896
990.492412	0.137112
990.665281	0.135321
990.838133	0.133207
991.010966	0.136057
991.183781	0.136511
991.356578	0.138226
991.529356	0.136917
991.702117	0.137880
991.874859	0.139821
992.047583	0.139216
992.220288	0.137443
992.392976	0.138984
992.565645	0.136808
992.738296	0.136901
992.910929	0.135654
993.083543	0.138938
993.256139	0.137974
993.428718	0.136176
993.601277	0.134590
993.773819	0.137778
993.946342	0.138741
994.118848	0.139418
994.291335	0.138413
994.463803	0.137682
994.636254	0.136708
994.808686	0.135916
994.981100	0.135974
995.153496	0.138077
995.325874	0.136157
995.498233	0.136909
995.670574	0.136569
995.842897	0.136099
996.015202	0.136319
996.187488	0.135030
996.359757	0.135249
996.532007	0.135404
996.704239	0.133782
996.876452	0.134241
997.048648	0.133458
997.220825	0.133863
997.392984	0.133791
997.565124	0.133505
997.737247	0.133897
997.909351	0.134567
998.081437	0.134583
998.253505	0.135436
998.425554	0.136118
998.597586	0.135931
998.769599	0.138972
998.941594	0.142256
999.113571	0.143134
999.285529	0.144654
999.457469	0.144935
999.629391	0.143524
999.801295	0.143753
999.973181	0.141532
1000.145048	0.142121
1000.316897	0.138378
1000.488728	0.136796
1000.660541	0.138041
1000.832335	0.137079
1001.004111	0.136549
1001.175869	0.135729
1001.347609	0.135722
1001.519331	0.138456
1001.691034	0.136993
1001.862719	0.138154
1002.034386	0.135888
1002.206035	0.134322
1002.377665	0.134711
1002.549277	0.136852
1002.720871	0.138044
1002.892447	0.137622
1003.064004	0.136342
1003.235544	0.138354
1003.407065	0.136968
1003.578568	0.137708
1003.750052	0.136664
1003.921519	0.134132
1004.092967	0.133129
1004.264397	0.135365
1004.435809	0.133862
1004.607202	0.132689
1004.778577	0.130818
1004.949934	0.131133
1005.121273	0.131827
1005.292594	0.132181
1005.463896	0.132764
1005.635180	0.131425
1005.806446	0.127959
1005.977694	0.128092
1006.148923	0.129690
1006.320135	0.130654
1006.491328	0.130487
1006.662503	0.132273
1006.833659	0.132715
1007.004798	0.132386
1007.175918	0.132234
1007.347020	0.133191
1007.518103	0.133912
1007.689169	0.132744
1007.860216	0.131193
1008.031245	0.130518
1008.202256	0.127315
1008.373248	0.126756
1008.544223	0.128232
1008.715179	0.128210
1008.886117	0.128880
1009.057036	0.129438
1009.227938	0.131423
1009.398821	0.133645
1009.569686	0.134938
1009.740533	0.135133
1009.911361	0.135344
1010.082172	0.134640
1010.252964	0.135486
1010.423738	0.135592
1010.594493	0.135641
1010.765231	0.135257
1010.935950	0.132452
1011.106651	0.131422
1011.277334	0.131200
1011.447998	0.131139
1011.618645	0.132771
1011.789273	0.130949
1011.959882	0.129237
1012.130474	0.125459
1012.301048	0.125213
1012.471603	0.126594
1012.642140	0.128513
1012.812658	0.128957
1012.983159	0.128989
1013.153641	0.127480
1013.324105	0.128275
1013.494551	0.129278
1013.664979	0.131130
1013.835388	0.130051
1014.005779	0.129285
1014.176152	0.127156
1014.346507	0.125739
1014.516843	0.126404
1014.687162	0.126420
1014.857462	0.124339
1015.027744	0.124811
1015.198007	0.124835
1015.368252	0.126349
1015.538480	0.126138
1015.708689	0.126458
1015.878879	0.127886
1016.049052	0.127375
1016.219206	0.128704
1016.389342	0.131616
1016.559460	0.130443
1016.729559	0.130869
1016.899641	0.132015
1017.069704	0.132053
1017.239749	0.131943
1017.409775	0.132370
1017.579784	0.132314
1017.749774	0.130301
1017.919746	0.130882
1018.089700	0.132075
1018.259635	0.131288
1018.429553	0.128539
1018.599452	0.129529
1018.769333	0.129580
1018.939195	0.128486
1019.109040	0.124788
1019.278866	0.125167
1019.448674	0.123300
1019.618464	0.124295
1019.788235	0.125003
1019.957989	0.124341
1020.127724	0.123861
1020.297441	0.122040
1020.467139	0.122783
1020.636820	0.126990
1020.806482	0.123847
1020.976126	0.124577
1021.145752	0.122700
1021.315359	0.124495
1021.484948	0.124036
1021.654519	0.123095
1021.824072	0.125603
1021.993607	0.123517
1022.163123	0.123688
1022.332621	0.127708
1022.502101	0.127694
1022.671563	0.127714
1022.841007	0.125979
1023.010432	0.126931
1023.179839	0.125800
1023.349228	0.124690
1023.518598	0.125951
1023.687951	0.124615
1023.857285	0.122460
1024.026601	0.123609
1024.195899	0.124131
1024.365178	0.124916
1024.534439	0.123630
1024.703682	0.126018
1024.872907	0.124805
1025.042114	0.125173
1025.211302	0.124065
1025.380472	0.124459
1025.549624	0.122748
1025.718758	0.121502
1025.887873	0.120146
1026.056970	0.120835
1026.226049	0.120894
1026.395110	0.122747
1026.564153	0.124262
1026.733177	0.127772
1026.902183	0.128748
1027.071171	0.129160
1027.240141	0.129100
1027.409092	0.130101
1027.578026	0.130929
1027.746940	0.130466
1027.915837	0.129807
1028.084716	0.125978
1028.253576	0.123607
1028.422418	0.121521
1028.591242	0.120534
1028.760048	0.121020
1028.928835	0.121211
1029.097604	0.119439
1029.266355	0.118334
1029.435088	0.118313
1029.603803	0.120920
1029.772499	0.120102
1029.941177	0.120732
1030.109837	0.121399
1030.278478	0.121666
1030.447102	0.121286
1030.615707	0.123584
1030.784294	0.125747
1030.952863	0.126217
1031.121413	0.126171
1031.289945	0.127244
1031.458460	0.127632
1031.626955	0.129121
1031.795433	0.130648
1031.963892	0.130425
1032.132334	0.127358
1032.300756	0.128030
1032.469161	0.126720
1032.637548	0.125497
1032.805916	0.125346
1032.974266	0.124014
1033.142598	0.122893
1033.310911	0.119562
1033.479207	0.118439
1033.647484	0.120712
1033.815743	0.117335
1033.983983	0.117778
1034.152206	0.117417
1034.320410	0.116259
1034.488596	0.117320
1034.656764	0.117285
1034.824914	0.120215
1034.993045	0.121970
1035.161158	0.123718
1035.329253	0.126571
1035.497330	0.125512
1035.665388	0.126272
1035.833428	0.124757
1036.001450	0.123908
1036.169454	0.123653
1036.337440	0.123837
1036.505407	0.123836
1036.673356	0.122086
1036.841287	0.119899
1037.009200	0.122704
1037.177094	0.121750
1037.344970	0.123473
1037.512828	0.123883
1037.680668	0.123693
1037.848489	0.122254
1038.016293	0.119966
1038.184078	0.121734
1038.351845	0.122127
1038.519593	0.121011
1038.687324	0.120636
1038.855036	0.121674
1039.022730	0.121619
1039.190406	0.121386
1039.358063	0.120673
1039.525702	0.121409
1039.693323	0.119610
1039.860926	0.118609
1040.028511	0.119248
1040.196077	0.119311
1040.363625	0.117349
1040.531155	0.119715
1040.698667	0.122454
1040.866161	0.124071
1041.033636	0.123080
1041.201093	0.123726
1041.368532	0.123836
1041.535952	0.122999
1041.703355	0.126189
1041.870739	0.128581
1042.038105	0.126519
1042.205452	0.121970
1042.372782	0.121959
1042.540093	0.123606
1042.707386	0.121812
1042.874661	0.122672
1043.041918	0.123424
1043.209156	0.120065
1043.376376	0.118694
1043.543578	0.119514
1043.710762	0.120840
1043.877927	0.120545
1044.045074	0.120054
1044.212203	0.121790
1044.379314	0.121097
1044.546407	0.120766
1044.713481	0.122367
1044.880537	0.123572
1045.047575	0.124565
1045.214595	0.125085
1045.381596	0.124300
1045.548579	0.124135
1045.715544	0.123478
1045.882491	0.124772
1046.049420	0.123014
1046.216330	0.124105
1046.383222	0.124919
1046.550096	0.123052
1046.716951	0.123505
1046.883789	0.125964
1047.050608	0.125080
1047.217409	0.123571
1047.384192	0.122702
1047.550956	0.122548
1047.717703	0.119702
1047.884431	0.119350
1048.051140	0.118534
1048.217832	0.118232
1048.384505	0.117918
1048.551161	0.118765
1048.717798	0.119761
1048.884416	0.119386
1049.051017	0.121146
1049.217599	0.120428
1049.384163	0.118979
1049.550709	0.120750
1049.717237	0.120538
1049.883746	0.119067
1050.050237	0.119876
1050.216710	0.120146
1050.383165	0.122590
1050.549601	0.119899
1050.716019	0.120389
1050.882420	0.122783
1051.048801	0.121618
1051.215165	0.120907
1051.381510	0.120293
1051.547837	0.120888
1051.714146	0.118934
1051.880437	0.116926
1052.046709	0.119382
1052.212964	0.120745
1052.379200	0.117064
1052.545417	0.119202
1052.711617	0.120141
1052.877798	0.119616
1053.043961	0.119588
1053.210106	0.119795
1053.376233	0.119591
1053.542341	0.118742
1053.708432	0.119330
1053.874504	0.121388
1054.040557	0.119749
1054.206593	0.118964
1054.372610	0.120543
1054.538609	0.120307
1054.704590	0.121376
1054.870553	0.122397
1055.036497	0.122993
1055.202424	0.122242
1055.368331	0.121372
1055.534221	0.120769
1055.700093	0.122508
1055.865946	0.120557
1056.031781	0.118608
1056.197598	0.120006
1056.363397	0.117731
1056.529177	0.117565
1056.694939	0.117970
1056.860683	0.119737
1057.026409	0.121631
1057.192116	0.121530
1057.357806	0.123076
1057.523477	0.126696
1057.689130	0.125907
1057.854764	0.127013
1058.020381	0.126457
1058.185979	0.127260
1058.351559	0.127739
1058.517120	0.127172
1058.682664	0.125036
1058.848189	0.124450
1059.013696	0.123623
1059.179185	0.122629
1059.344656	0.122481
1059.510108	0.122673
1059.675542	0.120583
1059.840958	0.119906
1060.006356	0.119135
1060.171735	0.118896
1060.337096	0.117618
1060.502439	0.117180
1060.667764	0.118053
1060.833071	0.119311
1060.998359	0.119538
1061.163629	0.121590
1061.328881	0.120101
1061.494115	0.119516
1061.659330	0.119315
1061.824527	0.119551
1061.989706	0.119144
1062.154867	0.121046
1062.320010	0.119789
1062.485134	0.120295
1062.650240	0.120459
1062.815328	0.119001
1062.980398	0.120064
1063.145449	0.120858
1063.310482	0.122234
1063.475497	0.119345
1063.640494	0.118819
1063.805473	0.119395
1063.970433	0.118358
1064.135375	0.116940
1064.300299	0.118095
1064.465204	0.118958
1064.630092	0.119442
1064.794961	0.118786
1064.959812	0.120916
1065.124645	0.120514
1065.289459	0.120698
1065.454256	0.123883
1065.619034	0.124409
1065.783793	0.124552
1065.948535	0.123675
1066.113258	0.125033
1066.277964	0.124920
1066.442651	0.125012
1066.607319	0.126188
1066.771970	0.126316
1066.936602	0.126590
1067.101216	0.125346
1067.265812	0.127522
1067.430389	0.126857
1067.594949	0.125596
1067.759490	0.127029
1067.924013	0.125308
1068.088518	0.122514
1068.253004	0.123180
1068.417472	0.118543
1068.581922	0.119370
1068.746354	0.118688
1068.910768	0.119275
1069.075163	0.119922
1069.239540	0.121685
1069.403899	0.123557
1069.568240	0.126514
1069.732562	0.126711
1069.896866	0.129270
1070.061152	0.130061
1070.225420	0.130657
1070.389670	0.131542
1070.553901	0.131667
1070.718114	0.130694
1070.882309	0.130117
1071.046486	0.128255
1071.210644	0.126723
1071.374784	0.126738
1071.538906	0.125104
1071.703010	0.125443
1071.867096	0.123775
1072.031163	0.124426
1072.195212	0.123907
1072.359243	0.125054
1072.523256	0.125701
1072.687250	0.127030
1072.851226	0.126712
1073.015184	0.128388
1073.179124	0.127157
1073.343045	0.127033
1073.506949	0.124888
1073.670834	0.124601
1073.834701	0.122879
1073.998549	0.120728
1074.162380	0.119375
1074.326192	0.119967
1074.489986	0.121654
1074.653761	0.123382
1074.817519	0.123990
1074.981258	0.128401
1075.144979	0.124328
1075.308682	0.125378
1075.472367	0.126957
1075.636033	0.130989
1075.799681	0.131119
1075.963311	0.129899
1076.126923	0.131147
1076.290516	0.133653
1076.454092	0.130045
1076.617649	0.135932
1076.781187	0.137850
1076.944708	0.137871
1077.108210	0.133864
1077.271695	0.135403
1077.435160	0.133276
1077.598608	0.130476
1077.762038	0.128653
1077.925449	0.128439
1078.088842	0.126375
1078.252217	0.126064
1078.415573	0.126691
1078.578912	0.129360
1078.742232	0.124697
1078.905534	0.126229
1079.068817	0.127621
1079.232083	0.127609
1079.395330	0.127520
1079.558559	0.127601
1079.721770	0.129324
1079.884962	0.125310
1080.048136	0.126057
1080.211293	0.127711
1080.374430	0.128286
1080.537550	0.124793
1080.700651	0.121933
1080.863735	0.124112
1081.026800	0.126107
1081.189846	0.123653
1081.352875	0.128546
1081.515885	0.126950
1081.678877	0.126849
1081.841851	0.125022
1082.004807	0.126781
1082.167744	0.130470
1082.330663	0.129793
1082.493564	0.128112
1082.656447	0.127279
1082.819312	0.124288
1082.982158	0.125234
1083.144986	0.127121
1083.307796	0.129544
1083.470587	0.130652
1083.633361	0.128368
1083.796116	0.128012
1083.958853	0.126400
1084.121571	0.128941
1084.284272	0.130923
1084.446954	0.128178
1084.609618	0.127612
1084.772264	0.129073
1084.934892	0.128107
1085.097501	0.128368
1085.260092	0.129353
1085.422665	0.130373
1085.585220	0.130311
1085.747756	0.129482
1085.910274	0.132203
1086.072774	0.134244
1086.235256	0.132263
1086.397720	0.132451
1086.560165	0.136264
1086.722592	0.133381
1086.885001	0.132649
1087.047392	0.130175
1087.209764	0.130988
1087.372119	0.128188
1087.534455	0.124867
1087.696772	0.124033
1087.859072	0.126546
1088.021353	0.124614
1088.183616	0.125811
1088.345861	0.129856
1088.508088	0.130729
1088.670296	0.133221
1088.832486	0.135711
1088.994658	0.137014
1089.156812	0.138505
1089.318948	0.137390
1089.481065	0.141026
1089.643164	0.144205
1089.805245	0.142189
1089.967308	0.143637
1090.129352	0.143264
1090.291378	0.142543
1090.453386	0.142217
1090.615376	0.142662
1090.777347	0.145635
1090.939301	0.144622
1091.101236	0.140908
1091.263153	0.140774
1091.425051	0.138602
1091.586932	0.138744
1091.748794	0.139905
1091.910638	0.138049
1092.072463	0.136174
1092.234271	0.134112
1092.396060	0.129128
1092.557831	0.134388
1092.719584	0.140015
1092.881319	0.140704
1093.043035	0.138011
1093.204733	0.138193
1093.366413	0.142043
1093.528075	0.143859
1093.689718	0.141096
1093.851343	0.143101
1094.012950	0.138504
1094.174539	0.132405
1094.336110	0.132918
1094.497662	0.135679
1094.659196	0.134983
1094.820712	0.133607
1094.982210	0.134533
1095.143689	0.135472
1095.305151	0.135740
1095.466594	0.139168
1095.628018	0.140358
1095.789425	0.137989
1095.950813	0.137587
1096.112183	0.134674
1096.273535	0.136678
1096.434869	0.137550
1096.596184	0.144053
1096.757482	0.142569
1096.918761	0.137924
1097.080021	0.133271
1097.241264	0.134327
1097.402488	0.132560
1097.563694	0.136323
1097.724882	0.135937
1097.886052	0.137524
1098.047203	0.130996
1098.208336	0.133780
1098.369451	0.135721
1098.530548	0.140227
1098.691627	0.139654
1098.852687	0.141467
1099.013729	0.143983
1099.174753	0.149510
1099.335758	0.146441
1099.496746	0.143762
1099.657715	0.142908
1099.818666	0.142871
1099.979599	0.140743
1100.140513	0.140808
1100.301409	0.141705
1100.462287	0.138427
1100.623147	0.128369
1100.783989	0.128640
1100.944812	0.127603
1101.105617	0.128615
1101.266404	0.129672
1101.427173	0.130743
1101.587923	0.135348
1101.748656	0.134230
1101.909370	0.130241
1102.070066	0.134654
1102.230743	0.134271
1102.391403	0.137277
1102.552044	0.137165
1102.712667	0.136854
1102.873271	0.143850
1103.033858	0.141838
1103.194426	0.141350
1103.354976	0.144476
1103.515508	0.142628
1103.676021	0.142555
1103.836517	0.144595
1103.996994	0.146488
1104.157453	0.149661
1104.317893	0.144348
1104.478316	0.145774
1104.638720	0.144564
1104.799106	0.145364
1104.959474	0.142500
1105.119823	0.144522
1105.280155	0.141525
1105.440468	0.138080
1105.600763	0.134833
1105.761039	0.132691
1105.921298	0.130471
1106.081538	0.126321
1106.241760	0.126441
1106.401964	0.130891
1106.562149	0.128687
1106.722316	0.133557
1106.882465	0.134613
1107.042596	0.132955
1107.202709	0.132366
1107.362803	0.139366
1107.522879	0.148107
1107.682937	0.143857
1107.842977	0.141374
1108.002999	0.146139
1108.163002	0.145215
1108.322987	0.142765
1108.482954	0.149373
1108.642902	0.151895
1108.802833	0.145471
1108.962745	0.143214
1109.122639	0.148324
1109.282515	0.156009
1109.442372	0.151317
1109.602211	0.150416
1109.762032	0.152427
1109.921835	0.150786
1110.081620	0.154044
1110.241386	0.156710
1110.401134	0.156194
1110.560864	0.158991
1110.720576	0.149506
1110.880269	0.146255
1111.039945	0.141605
1111.199602	0.144875
1111.359240	0.140449
1111.518861	0.138489
1111.678463	0.131383
1111.838047	0.128086
1111.997613	0.127959
1112.157161	0.134202
1112.316690	0.138230
1112.476202	0.140860
1112.635695	0.138633
1112.795169	0.137559
1112.954626	0.128230
1113.114064	0.135594
1113.273484	0.141210
1113.432886	0.141528
1113.592270	0.140075
1113.751635	0.139522
1113.910983	0.141980
1114.070312	0.144349
1114.229622	0.150604
1114.388915	0.161729
1114.548189	0.164336
1114.707445	0.163635
1114.866683	0.156225
1115.025903	0.158455
1115.185104	0.162570
1115.344287	0.162029
1115.503452	0.156934
1115.662599	0.153730
1115.821727	0.154244
1115.980838	0.156461
1116.139930	0.152685
1116.299004	0.159227
1116.458059	0.160257
1116.617097	0.155449
1116.776116	0.161234
1116.935117	0.167262
1117.094099	0.165354
1117.253064	0.158308
1117.412010	0.152037
1117.570938	0.155549
1117.729848	0.154137
1117.888740	0.153168
1118.047613	0.156962
1118.206468	0.153815
1118.365305	0.154324
1118.524124	0.156449
1118.682924	0.158346
1118.841707	0.154632
1119.000471	0.153952
1119.159216	0.155828
1119.317944	0.157709
1119.476653	0.161458
1119.635344	0.160423
1119.794017	0.157651
1119.952672	0.159796
1120.111308	0.166225
1120.269927	0.168814
1120.428527	0.172417
1120.587108	0.172957
1120.745672	0.166284
1120.904217	0.157868
1121.062744	0.155194
1121.221253	0.160443
1121.379744	0.161139
1121.538216	0.157785
1121.696671	0.158493
1121.855107	0.158739
1122.013524	0.159009
1122.171924	0.162802
1122.330305	0.162523
1122.488668	0.167244
1122.647013	0.157258
1122.805340	0.152761
1122.963648	0.151255
1123.121938	0.148955
1123.280210	0.152806
1123.438464	0.148276
1123.596700	0.146312
1123.754917	0.146692
1123.913116	0.147117
1124.071297	0.153921
1124.229459	0.154416
1124.387604	0.156888
1124.545730	0.161240
1124.703838	0.153104
1124.861928	0.156598
1125.019999	0.156235
1125.178052	0.156316
1125.336088	0.149904
1125.494104	0.146867
1125.652103	0.148840
1125.810083	0.149721
1125.968045	0.146745
1126.125989	0.148918
1126.283915	0.148711
1126.441823	0.159270
1126.599712	0.165733
1126.757583	0.170914
1126.915436	0.172748
1127.073270	0.164977
1127.231087	0.165997
1127.388885	0.164801
1127.546665	0.163977
1127.704426	0.160513
1127.862170	0.147599
1128.019895	0.149211
1128.177602	0.147712
1128.335291	0.149958
1128.492961	0.171307
1128.650614	0.169958
1128.808248	0.175331
1128.965864	0.172255
1129.123461	0.176553
1129.281041	0.179196
1129.438602	0.175480
1129.596145	0.176209
1129.753670	0.176106
1129.911176	0.158074
1130.068665	0.155857
1130.226135	0.152977
1130.383587	0.155934
1130.541020	0.153680
1130.698436	0.160722
1130.855833	0.156997
1131.013212	0.165475
1131.170573	0.163752
1131.327915	0.170720
1131.485239	0.176491
1131.642545	0.176116
1131.799833	0.181117
1131.957103	0.190449
1132.114354	0.195155
1132.271588	0.194808
1132.428803	0.191122
1132.585999	0.186387
1132.743178	0.179520
1132.900338	0.173594
1133.057480	0.180538
1133.214604	0.179912
1133.371710	0.169977
1133.528797	0.166798
1133.685866	0.170418
1133.842917	0.158646
1133.999950	0.160399
1134.156964	0.168720
1134.313960	0.163030
1134.470938	0.157671
1134.627898	0.151878
1134.784840	0.157540
1134.941763	0.150828
1135.098668	0.148478
1135.255555	0.163641
1135.412424	0.163050
1135.569274	0.164059
1135.726107	0.167102
1135.882921	0.170545
1136.039716	0.164744
1136.196494	0.162033
1136.353253	0.166327
1136.509995	0.164955
1136.666717	0.160754
1136.823422	0.163435
1136.980109	0.164197
1137.136777	0.166221
1137.293427	0.162824
1137.450059	0.166247
1137.606672	0.154341
1137.763267	0.155451
1137.919844	0.168030
1138.076403	0.162026
1138.232944	0.173812
1138.389466	0.175190
1138.545971	0.182755
1138.702457	0.182286
1138.858924	0.188095
1139.015374	0.204466
1139.171805	0.195816
1139.328218	0.180076
1139.484613	0.193444
1139.640990	0.189361
1139.797348	0.182392
1139.953688	0.181380
1140.110010	0.179011
1140.266314	0.175903
1140.422600	0.166017
1140.578867	0.165514
1140.735116	0.171220
1140.891347	0.169229
1141.047559	0.151598
1141.203754	0.157332
1141.359930	0.146814
1141.516088	0.156902
1141.672228	0.151609
1141.828349	0.148056
1141.984452	0.164024
1142.140537	0.174178
1142.296604	0.172224
1142.452653	0.192470
1142.608683	0.189218
1142.764695	0.208269
1142.920689	0.206062
1143.076665	0.212346
1143.232622	0.228543
1143.388562	0.210808
1143.544483	0.196042
1143.700385	0.182269
1143.856270	0.179710
1144.012136	0.177661
1144.167985	0.171086
1144.323814	0.162957
1144.479626	0.169372
1144.635420	0.163903
1144.791195	0.161593
1144.946952	0.161381
1145.102691	0.160593
1145.258411	0.153388
1145.414113	0.160455
1145.569798	0.166688
1145.725463	0.170368
1145.881111	0.172148
1146.036741	0.172212
1146.192352	0.178351
1146.347945	0.183261
1146.503519	0.193300
1146.659076	0.198023
1146.814614	0.192641
1146.970134	0.180768
1147.125636	0.181846
1147.281120	0.158457
1147.436585	0.156562
1147.592032	0.149326
1147.747461	0.151186
1147.902872	0.143208
1148.058265	0.135810
1148.213639	0.142409
1148.368995	0.140975
1148.524333	0.148130
1148.679653	0.174675
1148.834954	0.170620
1148.990237	0.177435
1149.145502	0.187565
1149.300749	0.188041
1149.455977	0.201327
1149.611188	0.195573
1149.766380	0.204244
1149.921553	0.195875
1150.076709	0.184812
1150.231846	0.201498
1150.386966	0.198414
1150.542066	0.190918
1150.697149	0.193488
1150.852214	0.189209
1151.007260	0.175093
1151.162288	0.168116
1151.317298	0.159690
1151.472289	0.149806
1151.627263	0.142385
1151.782218	0.132177
1151.937155	0.128471
1152.092073	0.135009
1152.246974	0.139962
1152.401856	0.145691
1152.556720	0.139744
1152.711566	0.136745
1152.866393	0.156000
1153.021203	0.157412
1153.175994	0.167317
1153.330767	0.172942
1153.485521	0.171763
1153.640258	0.181394
1153.794976	0.183872
1153.949676	0.194385
1154.104358	0.202396
1154.259021	0.194543
1154.413667	0.192742
1154.568294	0.216237
1154.722903	0.190227
1154.877493	0.185069
1155.032066	0.161978
1155.186620	0.170444
1155.341156	0.151967
1155.495674	0.148541
1155.650173	0.150216
1155.804654	0.154807
1155.959118	0.142519
1156.113562	0.153967
1156.267989	0.144281
1156.422397	0.147790
1156.576788	0.144739
1156.731160	0.155705
1156.885513	0.150056
1157.039849	0.140593
1157.194166	0.149343
1157.348465	0.137578
1157.502746	0.144761
1157.657009	0.151682
1157.811253	0.144156
1157.965479	0.127976
1158.119687	0.132234
1158.273877	0.132723
1158.428048	0.140796
1158.582201	0.122231
1158.736337	0.139383
1158.890453	0.138460
1159.044552	0.151622
1159.198632	0.157258
1159.352694	0.164255
1159.506738	0.162028
1159.660764	0.168422
1159.814771	0.171230
1159.968761	0.174546
1160.122732	0.164567
1160.276685	0.147436
1160.430619	0.145469
1160.584535	0.158452
1160.738434	0.159125
1160.892313	0.151988
1161.046175	0.150783
1161.200019	0.138736
1161.353844	0.154274
1161.507651	0.150298
1161.661440	0.182669
1161.815210	0.187138
1161.968962	0.189565
1162.122697	0.185258
1162.276412	0.204122
1162.430110	0.220249
1162.583789	0.244475
1162.737451	0.218688
1162.891094	0.234938
1163.044718	0.214089
1163.198325	0.201758
1163.351913	0.186616
1163.505483	0.194043
1163.659035	0.184519
1163.812569	0.180997
1163.966084	0.163866
1164.119581	0.184059
1164.273060	0.159511
1164.426521	0.172593
1164.579964	0.157501
1164.733388	0.153794
1164.886794	0.159959
1165.040182	0.180011
1165.193551	0.171303
1165.346903	0.170631
1165.500236	0.144592
1165.653551	0.184213
1165.806848	0.176106
1165.960126	0.200899
1166.113386	0.235377
1166.266628	0.229460
1166.419852	0.206318
1166.573058	0.224695
1166.726245	0.248566
1166.879414	0.277218
1167.032565	0.252454
1167.185698	0.241109
1167.338812	0.251379
1167.491909	0.223486
1167.644987	0.249596
1167.798046	0.283826
1167.951088	0.281164
1168.104111	0.249155
1168.257117	0.233946
1168.410103	0.196156
1168.563072	0.224686
1168.716023	0.206095
1168.868955	0.210549
1169.021869	0.206485
1169.174765	0.177035
1169.327642	0.174523
1169.480501	0.185383
1169.633343	0.193331
1169.786165	0.234631
1169.938970	0.219107
1170.091757	0.199847
1170.244525	0.172919
1170.397275	0.157309
1170.550007	0.168233
1170.702720	0.191072
1170.855415	0.152627
1171.008092	0.155379
1171.160751	0.148503
1171.313392	0.147192
1171.466014	-0.115854
1171.618619	0.205478
1171.771205	0.205478
1171.923772	0.205478
