sample name	sample
index	368
start time	 03-04-2021  11:45:27 AM
880	0.319820
Peak Time (s)	92.535
Peak Height 	0.3198
calc peak height	90,93
Baseline Time (s)	10.037
Baseline Value 	-0.004387
subtract baseline	10,4
Abs	0.260360
Peak Time (s)	92.535
Peak Height 	0.2604
calc peak height	90,93
Baseline Time (s)	10.037
Baseline Value 	0.002164
subtract baseline	10,3
PK_550	0.147613
Peak Time (s)	92.535
Peak Height 	0.1476
calc peak height	90,93
Baseline Time (s)	9.537
Baseline Value 	2.6394E-4
subtract baseline	10,2
PK_880	0.248065
Peak Time (s)	92.535
Peak Height 	0.2481
calc peak height	90,93
Baseline Time (s)	8.536
Baseline Value 	0.001439
subtract baseline	10,1


Time (s)	A880-A510	A880-A775	A880-A975	A880	I510	I775	I975	I880	
0.037000	-0.000521	-0.000146	-0.002754	0.004120	6873.066081	47324.634327	3963.102041	24966.122963
0.537000	-0.003525	0.000210	-0.002019	0.006621	6822.205218	47105.528291	3958.413096	24838.990920
1.037500	-0.003014	-0.000592	-0.003563	0.003420	6856.429416	47350.560636	3962.811507	25001.832795
1.536500	0.000427	-0.000446	-0.004093	0.001667	6904.807553	47545.532301	3966.069333	25091.532262
2.038000	-0.002023	-0.000385	-0.001141	0.003357	6866.191834	47378.256196	3969.440908	25005.044259
2.536000	0.000477	-0.000005	-0.000003	0.001853	6903.532321	47571.868219	3976.535753	25082.035897
3.036000	0.001258	-0.000122	0.000768	-0.001302	6940.569144	47885.794511	3987.152965	25244.325336
3.536500	-0.002802	-0.000603	0.004822	-0.000433	6894.240172	47745.967523	3995.837691	25199.474006
4.036500	-0.001277	-0.000420	0.001916	0.002808	6878.237713	47430.964839	3979.132106	25033.107921
4.536500	-0.002373	0.000784	-0.004472	0.000926	6885.561874	47748.870352	3967.037264	25129.593370
5.036500	-0.001901	0.000557	0.000728	0.001208	6887.330548	47696.225046	3980.245647	25115.085482
5.537000	-0.000274	-0.000118	0.000865	0.000502	6909.154657	47699.497896	3982.522616	25151.352464
6.034000	0.000385	-0.000006	-0.003556	0.000270	6917.520348	47735.002155	3971.239954	25163.275701
6.538000	0.001994	0.000692	-0.003351	0.000526	6930.256710	47780.660564	3971.104860	25150.115549
7.035500	0.002605	-0.000449	0.002018	0.000311	6938.051585	47685.022279	3986.165118	25161.165064
7.535500	0.000674	-0.000224	-0.001050	0.000045	6922.350370	47735.664690	3978.585069	25174.853014
8.036000	0.001086	0.000629	-0.001171	0.000188	6924.888976	47809.129622	3977.873418	25167.513762
8.536000	0.000000	0.000160	-0.000794	0.000012	6916.326640	47778.860643	3979.362994	25176.559307
9.036500	-0.001615	0.000236	0.000223	-0.000372	6904.773511	47826.439073	3983.152382	25196.332388
9.537000	0.000923	0.000000	-0.000284	-0.000010	6925.215319	47764.553850	3980.800654	25177.693435
10.037000	0.000239	0.000165	0.000000	0.000000	6918.691032	47780.617589	3981.542137	25177.191123
10.535000	-0.002203	-0.000422	0.000115	0.004143	6857.236157	47293.936438	3970.698701	24964.926298
11.035000	0.001412	-0.000226	-0.000800	0.000090	6928.884835	47730.872273	3979.137666	25172.554011
11.535000	-0.000401	-0.000012	0.005895	-0.000169	6914.265270	47779.762132	3998.055151	25185.889056
12.035500	0.001667	0.000431	0.006818	-0.000154	6933.587631	47824.102136	4000.546999	25185.132405
12.535000	-0.001837	-0.000255	-0.003335	0.004302	6859.154736	47294.835675	3961.070988	24956.833799
13.036500	-0.000049	-0.000219	-0.001063	-0.001733	6932.299947	47920.363295	3983.356210	25266.579585
13.536000	-0.000277	0.000031	-0.000897	-0.000315	6916.799627	47799.361883	3979.970433	25193.409001
14.036500	0.002254	0.000975	0.000626	0.001012	6928.126169	47759.657465	3980.498018	25125.145618
14.537000	-0.001341	0.000855	0.001480	0.003592	6870.348073	47481.507695	3975.847013	24993.077702
15.037500	0.001146	0.000733	-0.004153	0.000438	6923.105578	47794.055906	3969.193047	25154.670687
15.554000	0.001892	-0.000190	-0.003146	-0.000387	6937.914922	47783.884690	3974.105513	25197.107325
16.038000	0.001359	0.000403	0.002729	0.000433	6925.151187	47760.403186	3987.765225	25154.907812
16.535500	-0.001538	-0.000167	-0.004057	0.004336	6861.617698	47300.328366	3959.065929	24955.098988
17.036000	0.000811	0.000039	0.002222	0.000062	6923.492199	47761.251886	3987.398347	25174.022247
17.536000	0.003380	0.000560	0.003961	-0.002746	6974.408449	48106.650791	3999.818513	25318.970082
18.036500	-0.001856	-0.000441	-0.001182	0.000595	6893.483482	47656.631078	3976.748154	25146.610793
18.536500	0.000601	0.000581	0.004058	0.001815	6905.043775	47636.162413	3987.622763	25083.951583
19.036500	-0.001405	-0.000061	-0.005454	0.001218	6891.870395	47631.499177	3963.639093	25114.594480
19.537500	0.000261	0.000619	0.002634	0.001602	6903.860393	47661.936835	3984.333763	25094.858488
20.034500	-0.001099	0.000552	-0.001329	0.001339	6893.593910	47682.245318	3974.349243	25108.358011
20.538000	-0.001226	0.000876	-0.003929	0.003580	6871.531702	47484.792850	3961.413594	24993.667373
21.035000	-0.000558	0.000594	-0.000100	0.002183	6890.763695	47599.546183	3975.385477	25065.096684
21.535500	0.000728	0.000672	-0.002204	0.001916	6905.288446	47635.089590	3970.454661	25078.772391
22.036000	-0.000987	0.000644	-0.001284	0.001892	6889.484658	47634.686408	3972.986566	25080.036648
22.536000	-0.001454	0.000009	-0.005197	0.002746	6877.165748	47481.471495	3960.258653	25036.292859
23.036000	-0.001378	0.000292	0.001327	0.001494	6889.542466	47639.419389	3981.089467	25100.413147
23.536500	-0.002075	0.000004	-0.000900	0.001011	6887.546365	47659.549214	3976.386768	25125.216731
24.037000	-0.001649	-0.000025	0.002721	0.001359	6888.269161	47620.682822	3985.229791	25107.343993
24.537000	-0.000903	0.000511	-0.002976	0.003472	6875.538431	47458.392276	3964.234673	24999.170958
25.035000	-0.001094	0.000651	0.003818	0.001460	6892.506776	47679.974557	3987.933214	25102.141758
25.537500	-0.000949	0.000228	0.000537	0.001628	6892.289971	47618.999393	3978.595811	25093.524652
26.035500	-0.001814	0.000213	-0.001286	0.001322	6887.078219	47649.009606	3974.512584	25109.257754
26.535500	-0.001318	0.000106	0.003182	0.002936	6876.667315	47471.909127	3982.209463	25026.597511
27.036000	-0.000695	-0.000100	0.000411	0.001454	6896.300307	47603.111272	3978.723984	25102.463982
27.536000	0.000626	0.000113	-0.002162	-0.001985	6941.048505	47981.050597	3981.065040	25279.606873
28.036500	-0.000125	-0.000066	0.001857	-0.000824	6923.018323	47841.919543	3988.812562	25219.635277
28.536500	-0.002087	0.000421	-0.005721	0.006122	6840.030503	47177.900149	3949.951891	24864.284007
29.037000	0.000145	0.000642	0.000018	0.000364	6914.387852	47792.276511	3980.608083	25158.466773
29.536500	-0.000632	-0.000202	-0.001777	-0.000230	6912.666659	47766.376441	3977.364768	25189.021020
30.037500	-0.003279	-0.000192	-0.002012	0.005241	6837.155524	47205.251304	3962.092867	24909.021933
30.535000	-0.003773	0.000375	-0.002609	0.005452	6830.671900	47241.645168	3959.946929	24898.323459
31.045500	0.000047	0.000099	-0.000223	0.000159	6915.383037	47757.278926	3980.508157	25168.984434
31.536000	-0.001522	0.000046	0.001143	0.003073	6873.498356	47451.709080	3976.335677	25019.592695
32.061000	-0.004209	-0.000110	-0.003222	0.004782	6832.830506	47260.578190	3960.098548	24932.414915
32.547500	-0.001366	0.000060	-0.001142	0.005641	6851.119390	47190.139610	3963.341347	24888.684179
33.036500	-0.000439	0.000298	0.003317	0.000063	6911.725033	47787.899874	3990.373214	25173.952790
33.537000	0.000343	0.000387	-0.001546	-0.000045	6920.083214	47808.143885	3977.488655	25179.482122
34.037500	-0.001861	0.000049	-0.000099	0.004301	6858.940551	47326.022825	3969.702592	24956.870827
34.540000	-0.002622	0.000445	-0.001173	0.005015	6845.308265	47293.512106	3964.929420	24920.554757
35.038000	-0.000380	0.000443	-0.001096	0.002125	6892.975563	47589.931045	3972.864245	25068.080500
35.535500	0.000157	0.000476	-0.003246	0.002166	6897.609878	47589.203067	3966.998498	25065.982527
36.035500	0.000383	0.000497	-0.000978	0.002484	6896.748294	47558.606839	3972.218109	25049.705931
36.535500	-0.002963	-0.000779	-0.001392	0.000841	6880.848703	47596.307079	3975.519658	25133.944566
37.036000	0.000545	0.000593	0.000173	0.002103	6901.822492	47607.661787	3976.334920	25069.195953
37.536500	-0.001111	0.000246	0.000924	0.001889	6888.354489	47594.024525	3978.935938	25080.179411
38.036500	-0.001710	0.000286	0.002024	0.001913	6882.540646	47595.568683	3981.840865	25078.927610
38.537000	-0.003031	0.000772	-0.002463	0.003959	6851.278733	47435.149287	3964.303872	24974.319425
39.034500	-0.002725	0.000488	-0.000309	0.002051	6871.808537	47602.180339	3975.179084	25071.863984
39.537500	0.001653	0.000333	-0.001815	0.001633	6916.632231	47629.280436	3972.254551	25093.288008
40.037500	-0.000577	0.000244	0.001551	0.001567	6896.345417	47626.941686	3981.499911	25096.683508
40.535500	-0.003348	-0.000383	0.000162	0.002872	6858.412374	47428.285383	3974.237749	25029.851906
41.036000	0.000149	0.000953	-0.003372	0.002755	6892.020646	47577.573735	3965.091178	25035.816110
41.536000	-0.001490	0.000728	-0.000806	0.002428	6879.790720	47588.144472	3972.831040	25052.571081
42.036000	-0.000248	-0.000124	-0.001562	0.001386	6901.120843	47607.663453	3973.597621	25105.976108
42.537000	-0.002137	-0.000447	-0.003165	0.002333	6874.646608	47476.981350	3966.768815	25057.412195
43.037000	-0.000457	0.000902	0.001701	0.002056	6892.892952	47644.309200	3980.580438	25071.589015
43.537500	-0.001323	-0.000042	-0.000167	0.001651	6888.590563	47588.886475	3976.636660	25092.371600
44.037500	0.000082	0.000691	0.001307	0.002632	6892.546302	47563.280896	3977.964479	25042.099201
44.537500	-0.000387	0.000436	-0.001163	0.003862	6876.710745	47410.694991	3968.031875	24979.272200
45.035500	-0.001118	-0.000511	-0.005773	-0.001286	6918.013741	47843.690021	3969.470293	25243.467438
45.536000	0.001563	0.001090	0.003715	0.000651	6925.024701	47808.943732	3989.858264	25143.718933
46.043500	-0.002458	0.001182	0.001106	0.005363	6843.600462	47333.220570	3970.087355	24902.813501
46.536500	-0.003887	-0.000215	-0.004560	0.004432	6839.012541	47285.627437	3957.480024	24950.243524
47.036500	-0.000735	0.000387	0.004583	-0.000101	6910.486264	47814.059223	3994.277107	25182.392694
47.537000	-0.000290	-0.000016	-0.002525	-0.000226	6915.833988	47785.187806	3975.341823	25188.814697
48.037000	-0.002496	0.000381	-0.001994	0.005695	6840.191773	47217.413750	3960.933950	24885.949219
48.537000	-0.000939	0.000741	-0.000053	0.005012	6860.898311	47324.089492	3967.925029	24920.675318
49.035000	0.000454	0.000277	0.001718	0.002511	6897.157149	47533.097628	3979.398454	25048.289135
49.534500	0.002955	0.001168	0.000430	0.000730	6937.405076	47808.887427	3980.732281	25139.653116
50.035500	-0.002711	-0.000065	-0.002687	0.005294	6841.909803	47212.881363	3960.159777	24906.368849
50.536000	-0.001364	-0.000001	-0.000813	0.004501	6861.696949	47300.390403	3967.259132	24946.693407
51.036000	0.002283	-0.000362	0.002749	-0.002665	6963.200043	48002.308745	3996.272252	25314.772875
51.536000	0.000919	0.000036	0.001331	-0.001149	6935.927911	47886.235743	3988.267557	25236.424839
52.037000	-0.001662	0.000831	-0.004600	0.005426	6850.376386	47290.904922	3954.742122	24899.616984
52.536500	0.008907	-0.005573	0.018482	0.206104	5427.041317	30440.021903	3569.591118	16730.503510
53.037000	-0.010256	-0.014231	-0.000380	0.080608	6146.005245	38954.277673	3781.758834	21390.298228
53.538000	-0.026263	-0.039442	-0.008401	-0.137130	8103.311338	59090.424839	4386.706575	33477.319803
54.038000	-0.021315	-0.169241	-0.004652	-0.314050	10843.067169	65535.000000	5201.553413	48892.587750
54.535000	-0.002893	-0.190045	0.010346	-0.334854	11599.994179	65535.000000	5407.300376	51153.202491
55.035500	0.003082	-0.158168	0.008967	-0.302977	11092.544426	65535.000000	5215.630851	47732.833142
55.536000	0.003079	-0.101904	0.012232	-0.246714	10089.159509	65535.000000	4938.949266	42275.720821
56.036000	0.000324	-0.065665	0.010589	-0.205739	9394.338330	64855.213043	4739.695648	38723.566444
56.536000	0.005433	-0.041877	0.011119	-0.176649	9041.993120	64103.013230	4616.703401	36397.642997
57.037000	0.025926	-0.029507	0.024219	-0.163050	9141.296105	63929.915795	4614.624856	35362.580439
57.536500	0.038191	-0.022782	0.036360	-0.156252	9221.178998	63919.664818	4636.999262	34857.203606
58.037000	0.048991	0.000650	0.038750	-0.118833	8841.537793	61984.415936	4495.209820	32212.644393
58.537000	0.060484	0.012942	0.056834	-0.094478	8666.258592	60364.793253	4471.011787	30609.808725
59.035000	0.073820	0.025686	0.068748	-0.061732	8411.404115	57776.299658	4393.086240	28591.670889
59.535000	0.084341	0.035356	0.076314	-0.030879	8156.379030	55161.893760	4310.291416	26824.524307
60.035500	0.089990	0.043782	0.088667	0.004759	7801.347433	51985.218931	4231.825511	24933.551961
60.536000	0.101753	0.052443	0.103803	0.030195	7647.441242	50123.884435	4198.437115	23675.754124
61.036500	0.111893	0.058508	0.113327	0.052529	7514.210264	48386.057296	4158.001213	22630.461330
61.536500	0.120802	0.063840	0.122615	0.073399	7387.102821	46786.032514	4122.453883	21701.107790
62.037000	0.125895	0.069296	0.128212	0.090925	7258.642477	45581.861474	4086.819710	20954.392242
62.537000	0.136283	0.072533	0.134866	0.104494	7226.361958	44577.461747	4066.605959	20396.643465
63.040000	0.134527	0.076832	0.136304	0.121829	7037.534021	43343.887089	4021.342868	19709.015082
63.535000	0.143919	0.086815	0.140543	0.112402	7223.610451	45194.279819	4060.152224	20079.534300
64.035000	0.146534	0.090810	0.139774	0.109667	7278.013110	45855.473253	4065.837967	20188.576245
64.535500	0.150219	0.093622	0.144665	0.108962	7323.149065	46205.152444	4082.161561	20216.802191
65.036000	0.155955	0.096672	0.151621	0.109494	7377.240845	46457.167108	4101.159503	20195.476020
65.535000	0.156148	0.098274	0.153503	0.112440	7348.547776	46322.427285	4097.994700	20078.048047
66.036500	0.160220	0.100312	0.158142	0.119838	7314.111765	45789.395545	4089.822377	19786.610108
66.539500	0.158561	0.101057	0.158205	0.127997	7214.005448	45062.632670	4066.133148	19470.877161
67.037000	0.163723	0.102383	0.162915	0.128459	7261.635937	45146.625912	4078.505838	19453.149865
67.534500	0.166628	0.104652	0.167047	0.135351	7221.198627	44698.998582	4070.454700	19191.344869
68.037500	0.169510	0.107107	0.172696	0.142473	7178.575389	44251.677003	4066.175598	18925.075242
68.535000	0.168721	0.107923	0.175826	0.154148	7055.699088	43229.556147	4041.644599	18497.953397
69.035500	0.175324	0.109582	0.176165	0.155862	7103.485807	43224.493391	4037.743787	18436.237695
69.535500	0.174915	0.109403	0.174460	0.161232	7047.067580	42711.930260	4017.858887	18244.347804
70.036000	0.177539	0.110850	0.173947	0.168836	6999.057337	42151.014579	3995.443771	17976.698951
70.539000	0.178437	0.113098	0.178327	0.179133	6909.911891	41429.428206	3979.365318	17621.616992
71.036000	0.182298	0.114249	0.181144	0.179827	6939.727174	41469.984912	3985.108314	17597.967782
71.536500	0.184529	0.114803	0.185952	0.184646	6915.343411	41092.674468	3985.078172	17434.935172
72.036500	0.183330	0.115791	0.191783	0.190799	6846.854206	40640.675921	3984.207465	17229.372285
72.540500	0.184395	0.116942	0.185669	0.200175	6770.815685	39931.895341	3942.966440	16921.660425
73.035000	0.192095	0.118642	0.196827	0.199517	6847.293694	40133.758449	3974.293195	16943.061016
73.535000	0.193095	0.119694	0.198105	0.204002	6815.233044	39840.245580	3965.705693	16797.985219
74.035500	0.195512	0.121363	0.198459	0.209023	6791.432597	39555.888123	3953.322261	16637.315922
74.536000	0.192468	0.121203	0.199067	0.216257	6698.906426	38936.336797	3935.968372	16409.107074
75.036000	0.199168	0.123136	0.201197	0.215458	6766.201232	39164.026623	3943.606724	16434.139299
75.536500	0.204287	0.125546	0.205136	0.219729	6773.878910	39008.829817	3942.737515	16300.930847
76.036500	0.205973	0.124726	0.204953	0.221332	6774.641184	38807.711002	3938.079744	16251.281809
76.537000	0.200546	0.125756	0.200792	0.230532	6644.172682	38137.748785	3903.817560	15969.791505
77.037500	0.208328	0.128110	0.210932	0.228786	6728.652439	38472.324119	3934.244223	16022.756451
77.535000	0.209117	0.128854	0.213923	0.231508	6711.369956	38310.531880	3934.944084	15940.287523
78.035000	0.209515	0.129143	0.214712	0.235268	6681.479720	38028.328620	3927.255088	15827.203132
78.535500	0.211089	0.131186	0.216842	0.243724	6621.004713	37512.792971	3911.057482	15576.430024
79.035500	0.213797	0.130350	0.217602	0.239030	6686.085230	37821.990437	3925.007349	15715.028352
79.536000	0.214684	0.131949	0.218891	0.242743	6661.109603	37652.285294	3918.788100	15605.294613
80.035500	0.214030	0.132822	0.217743	0.246766	6620.130776	37400.734805	3905.628707	15487.409803
80.539000	0.214822	0.133242	0.219516	0.254002	6564.384307	36862.866720	3891.899882	15278.144200
81.037000	0.220953	0.134138	0.227803	0.250631	6646.875621	37198.666507	3921.411874	15375.220764
81.537000	0.221951	0.134920	0.225829	0.253682	6628.902802	37019.662469	3908.593503	15287.332508
82.040000	0.224069	0.136547	0.228597	0.258642	6604.154949	36758.501437	3903.047829	15145.773796
82.535000	0.222232	0.136539	0.226258	0.266661	6519.585219	36137.712804	3877.221150	14920.316031
83.035500	0.225171	0.137702	0.234224	0.264243	6565.320745	36413.257496	3903.114171	14987.883106
83.535500	0.225302	0.137580	0.229661	0.267220	6540.950174	36174.650716	3884.251460	14904.763566
84.036000	0.224827	0.138102	0.234799	0.271153	6503.532709	35914.031021	3887.244435	14795.837882
84.537000	0.224634	0.137721	0.231443	0.278409	6441.150586	35337.819661	3861.172460	14597.451780
85.036500	0.230795	0.139356	0.238755	0.276604	6507.907482	35596.175900	3883.533491	14646.511330
85.536500	0.230990	0.138892	0.240222	0.278912	6490.072859	35387.780586	3881.448869	14583.823510
86.036000	0.229972	0.138618	0.234572	0.281821	6457.180763	35150.241172	3860.485217	14505.302726
86.537000	0.233523	0.140414	0.245353	0.286093	6451.177043	34966.762150	3876.392892	14390.963251
87.037500	0.234348	0.141571	0.242183	0.288977	6434.071195	34839.299723	3861.590651	14314.395509
87.535000	0.236704	0.140968	0.249054	0.291250	6434.757527	34628.206824	3872.811550	14254.392989
88.035000	0.237521	0.142050	0.242896	0.295113	6409.603487	34425.384530	3848.506533	14153.156696
88.535500	0.238942	0.141414	0.244505	0.297073	6405.174711	34237.266919	3847.665951	14102.150718
89.036000	0.238938	0.142698	0.249832	0.300277	6378.898456	34098.880067	3852.764067	14019.241290
89.536000	0.241795	0.144044	0.247578	0.303957	6372.183699	33931.408899	3838.573862	13924.752623
90.036000	0.241528	0.142961	0.251034	0.305730	6355.613191	33727.786958	3842.579023	13879.527271
90.537000	0.243874	0.144027	0.252539	0.308706	6350.510138	33592.317107	3839.078449	13804.022130
91.036500	0.242870	0.144830	0.252198	0.311252	6321.900322	33469.237561	3832.242654	13739.834188
91.540000	0.243882	0.144784	0.251384	0.313232	6314.134549	33326.668019	3825.669610	13690.160304
92.034500	0.245326	0.145609	0.257082	0.316973	6295.782619	33122.878774	3830.269836	13596.966491
92.534500	0.248065	0.147613	0.260360	0.319820	6294.926420	33064.186183	3831.285396	13526.558446
93.035000	0.247480	0.147268	0.257959	0.322037	6272.672606	32886.487384	3820.454286	13472.058725
93.535500	0.248219	0.147050	0.259836	0.324224	6261.232228	32720.656652	3819.730309	13418.549231
94.036000	0.247875	0.147899	0.262193	0.326286	6242.305974	32637.343487	3820.417621	13368.365780
94.536500	0.246319	0.147481	0.255334	0.333007	6177.994797	32151.913174	3789.228215	13206.432103
95.036500	0.252457	0.149840	0.258699	0.330799	6242.843489	32461.510949	3801.908859	13259.342303
95.536500	0.249901	0.149480	0.259189	0.331232	6219.475910	32407.472292	3802.039064	13248.935189
96.037000	0.251893	0.150230	0.266086	0.334459	6209.867003	32239.476377	3810.482607	13171.757261
96.538000	0.255735	0.151552	0.262610	0.335426	6232.276849	32263.478966	3800.269764	13148.736706
97.034000	0.255221	0.152390	0.264905	0.337545	6211.753863	32176.888592	3800.674356	13098.493032
97.535000	0.255943	0.152966	0.263329	0.338425	6210.522258	32156.398851	3795.071188	13077.680218
98.038000	0.255696	0.153051	0.269180	0.339193	6202.645019	32110.322208	3806.701345	13059.566565
98.536000	0.253926	0.152910	0.267465	0.345868	6137.797365	31654.797646	3787.578069	12903.418569
