sample name	sample
index	1042
start time	 04-19-2021  02:11:45 PM


Wavelength (nm)	Absorbance
494.344910	-0.098512
494.563924	-0.098512
494.782919	-0.098512
495.001897	NaN
495.220856	-0.047421
495.439797	0.008478
495.658719	-0.024755
495.877624	-0.006582
496.096510	-0.078942
496.315378	-0.090852
496.534227	-0.062541
496.753059	-0.081444
496.971872	-0.013838
497.190667	0.147459
497.409444	0.160050
497.628203	0.175320
497.846943	0.179742
498.065665	0.180488
498.284369	0.181720
498.503055	0.182603
498.721723	0.182081
498.940372	0.181105
499.159003	0.181080
499.377616	0.181624
499.596210	0.179943
499.814787	0.178086
500.033345	0.180158
500.251885	0.179835
500.470406	0.180781
500.688910	0.182153
500.907395	0.183504
501.125862	0.183864
501.344311	0.184250
501.562742	0.185699
501.781154	0.187872
501.999548	0.186889
502.217924	0.187967
502.436282	0.188860
502.654621	0.190715
502.872942	0.191221
503.091245	0.192095
503.309530	0.192395
503.527797	0.191999
503.746045	0.190547
503.964275	0.190472
504.182487	0.190655
504.400681	0.189488
504.618856	0.187362
504.837013	0.187543
505.055152	0.186664
505.273273	0.187255
505.491376	0.187382
505.709460	0.188607
505.927526	0.189412
506.145574	0.188551
506.363604	0.188150
506.581615	0.189307
506.799608	0.187766
507.017583	0.188031
507.235540	0.187021
507.453478	0.186657
507.671399	0.186587
507.889301	0.186002
508.107185	0.185618
508.325050	0.185316
508.542898	0.183600
508.760727	0.184993
508.978538	0.184877
509.196330	0.185160
509.414105	0.186466
509.631861	0.186277
509.849599	0.186840
510.067319	0.187264
510.285021	0.188159
510.502704	0.189332
510.720369	0.189498
510.938016	0.190917
511.155645	0.192185
511.373255	0.191250
511.590848	0.191345
511.808422	0.191315
512.025977	0.191450
512.243515	0.192125
512.461034	0.191799
512.678536	0.191110
512.896018	0.190300
513.113483	0.190377
513.330930	0.190354
513.548358	0.190912
513.765768	0.190258
513.983160	0.191044
514.200533	0.190162
514.417889	0.191192
514.635226	0.192440
514.852545	0.192955
515.069845	0.193909
515.287128	0.195079
515.504392	0.194375
515.721638	0.195577
515.938866	0.195003
516.156075	0.196064
516.373267	0.197088
516.590440	0.197533
516.807594	0.197477
517.024731	0.197382
517.241850	0.197715
517.458950	0.198610
517.676032	0.198620
517.893095	0.198978
518.110141	0.198787
518.327168	0.198449
518.544177	0.198098
518.761168	0.198234
518.978141	0.197285
519.195095	0.197325
519.412031	0.198189
519.628949	0.199651
519.845849	0.200036
520.062731	0.200251
520.279594	0.200164
520.496439	0.200542
520.713266	0.201217
520.930074	0.202081
521.146865	0.202177
521.363637	0.201820
521.580391	0.200623
521.797127	0.201086
522.013844	0.201900
522.230543	0.202573
522.447224	0.202370
522.663887	0.202849
522.880532	0.203572
523.097158	0.203535
523.313766	0.203736
523.530356	0.204973
523.746928	0.206706
523.963481	0.207175
524.180017	0.206997
524.396534	0.207817
524.613032	0.208146
524.829513	0.208110
525.045975	0.209031
525.262420	0.209563
525.478845	0.209460
525.695253	0.208749
525.911643	0.208145
526.128014	0.208800
526.344367	0.209128
526.560702	0.208967
526.777018	0.209795
526.993316	0.209764
527.209597	0.209962
527.425858	0.209902
527.642102	0.209551
527.858328	0.210885
528.074535	0.210751
528.290724	0.210915
528.506894	0.212238
528.723047	0.212432
528.939181	0.212601
529.155297	0.213156
529.371395	0.214351
529.587475	0.215377
529.803536	0.214993
530.019579	0.215296
530.235604	0.215987
530.451611	0.215387
530.667600	0.215556
530.883570	0.216316
531.099522	0.216763
531.315456	0.216254
531.531372	0.216408
531.747269	0.217312
531.963148	0.218534
532.179009	0.219282
532.394852	0.219465
532.610676	0.220094
532.826482	0.220738
533.042271	0.221347
533.258040	0.222071
533.473792	0.221919
533.689525	0.221999
533.905240	0.221868
534.120937	0.221696
534.336616	0.222721
534.552277	0.222474
534.767919	0.223109
534.983543	0.223196
535.199149	0.223730
535.414736	0.224832
535.630306	0.224808
535.845857	0.224756
536.061390	0.225697
536.276904	0.225509
536.492401	0.225852
536.707879	0.225925
536.923339	0.226571
537.138781	0.227063
537.354204	0.227212
537.569610	0.228078
537.784997	0.228793
538.000366	0.228217
538.215716	0.229043
538.431049	0.229646
538.646363	0.230094
538.861659	0.230216
539.076937	0.230509
539.292196	0.231254
539.507438	0.232007
539.722661	0.233194
539.937866	0.234055
540.153052	0.234540
540.368221	0.235626
540.583371	0.235499
540.798503	0.235838
541.013617	0.235968
541.228712	0.236187
541.443789	0.236503
541.658848	0.236523
541.873889	0.237203
542.088912	0.237779
542.303916	0.237003
542.518902	0.237536
542.733870	0.237746
542.948820	0.238220
543.163752	0.238509
543.378665	0.238284
543.593560	0.238128
543.808437	0.237983
544.023295	0.237478
544.238136	0.238552
544.452958	0.238781
544.667762	0.239445
544.882548	0.239573
545.097315	0.240608
545.312064	0.241416
545.526795	0.241571
545.741508	0.242402
545.956203	0.243220
546.170879	0.243490
546.385537	0.243796
546.600177	0.243644
546.814799	0.243970
547.029402	0.243605
547.243988	0.243769
547.458555	0.244764
547.673103	0.244620
547.887634	0.244685
548.102146	0.245214
548.316640	0.245823
548.531116	0.246818
548.745574	0.247234
548.960013	0.247297
549.174435	0.247237
549.388838	0.247229
549.603222	0.247737
549.817589	0.248379
550.031937	0.247725
550.246267	0.248014
550.460579	0.248179
550.674873	0.248468
550.889148	0.248498
551.103405	0.249103
551.317644	0.249408
551.531865	0.249391
551.746068	0.249536
551.960252	0.250203
552.174418	0.250702
552.388566	0.250923
552.602696	0.251364
552.816807	0.252047
553.030900	0.251874
553.244975	0.251829
553.459032	0.251879
553.673070	0.251760
553.887091	0.251691
554.101093	0.251438
554.315077	0.251410
554.529042	0.251541
554.742990	0.251663
554.956919	0.251701
555.170830	0.251842
555.384722	0.252204
555.598597	0.252707
555.812453	0.253337
556.026291	0.253225
556.240111	0.253072
556.453913	0.253018
556.667696	0.252704
556.881461	0.253203
557.095208	0.253346
557.308937	0.254035
557.522647	0.253867
557.736339	0.253975
557.950013	0.254410
558.163669	0.254856
558.377307	0.255207
558.590926	0.256007
558.804527	0.256578
559.018110	0.256969
559.231675	0.256669
559.445221	0.257115
559.658749	0.257225
559.872259	0.257637
560.085751	0.257721
560.299225	0.257740
560.512680	0.258197
560.726117	0.257807
560.939536	0.257838
561.152937	0.258216
561.366319	0.258196
561.579683	0.258454
561.793029	0.258828
562.006357	0.258999
562.219667	0.259207
562.432958	0.259126
562.646231	0.259297
562.859486	0.259483
563.072723	0.259126
563.285941	0.259129
563.499141	0.259322
563.712323	0.259432
563.925487	0.259552
564.138632	0.259395
564.351760	0.259426
564.564869	0.259589
564.777960	0.259898
564.991032	0.260570
565.204087	0.260815
565.417123	0.260737
565.630141	0.260748
565.843140	0.261104
566.056122	0.261602
566.269085	0.262118
566.482030	0.262229
566.694957	0.262425
566.907866	0.262625
567.120756	0.263072
567.333628	0.263398
567.546482	0.263125
567.759318	0.263243
567.972135	0.263251
568.184935	0.262925
568.397716	0.263460
568.610478	0.263421
568.823223	0.263401
569.035949	0.263774
569.248657	0.263927
569.461347	0.264424
569.674019	0.264559
569.886672	0.264689
570.099308	0.264970
570.311925	0.265026
570.524523	0.265412
570.737104	0.265555
570.949666	0.265249
571.162210	0.265527
571.374736	0.265786
571.587244	0.266094
571.799733	0.266366
572.012205	0.266479
572.224658	0.266818
572.437092	0.266057
572.649509	0.266160
572.861907	0.265882
573.074287	0.266051
573.286649	0.265994
573.498993	0.266056
573.711318	0.266329
573.923625	0.266250
574.135914	0.266105
574.348185	0.267025
574.560438	0.267011
574.772672	0.267719
574.984888	0.267770
575.197086	0.267975
575.409266	0.268165
575.621427	0.268529
575.833570	0.269132
576.045695	0.269609
576.257802	0.269932
576.469890	0.270105
576.681961	0.270035
576.894013	0.269843
577.106046	0.270055
577.318062	0.269798
577.530059	0.269384
577.742039	0.269550
577.954000	0.269366
578.165942	0.269519
578.377867	0.270059
578.589773	0.270339
578.801661	0.270751
579.013531	0.270434
579.225382	0.270606
579.437216	0.270581
579.649031	0.270553
579.860828	0.271053
580.072606	0.271065
580.284367	0.271059
580.496109	0.271241
580.707833	0.271515
580.919539	0.272244
581.131227	0.272417
581.342896	0.273103
581.554547	0.273244
581.766180	0.272788
581.977795	0.273203
582.189391	0.273232
582.400969	0.273542
582.612529	0.273964
582.824071	0.274105
583.035595	0.274165
583.247100	0.274164
583.458587	0.273872
583.670056	0.274305
583.881506	0.274206
584.092939	0.274652
584.304353	0.274485
584.515749	0.274320
584.727127	0.274209
584.938486	0.274934
585.149828	0.275124
585.361151	0.275877
585.572456	0.276145
585.783742	0.276104
585.995011	0.276248
586.206261	0.276712
586.417493	0.276857
586.628706	0.277056
586.839902	0.277144
587.051079	0.277327
587.262238	0.277160
587.473379	0.277426
587.684502	0.277901
587.895606	0.277964
588.106692	0.278395
588.317760	0.278702
588.528810	0.278838
588.739841	0.279014
588.950855	0.279449
589.161850	0.280398
589.372827	0.280582
589.583785	0.280943
589.794726	0.281256
590.005648	0.281351
590.216552	0.281593
590.427437	0.282164
590.638305	0.282012
590.849154	0.282195
591.059985	0.281932
591.270798	0.282262
591.481592	0.282664
591.692369	0.283140
591.903127	0.283344
592.113867	0.283633
592.324588	0.283449
592.535292	0.283863
592.745977	0.284121
592.956644	0.284470
593.167293	0.284779
593.377923	0.284786
593.588536	0.284562
593.799130	0.284919
594.009706	0.285460
594.220263	0.285699
594.430803	0.286189
594.641324	0.285746
594.851827	0.285724
595.062312	0.285741
595.272778	0.286114
595.483227	0.286431
595.693657	0.286441
595.904069	0.286247
596.114462	0.286487
596.324838	0.286490
596.535195	0.287305
596.745534	0.287793
596.955855	0.288016
597.166157	0.288021
597.376441	0.287788
597.586707	0.288036
597.796955	0.287561
598.007185	0.287836
598.217396	0.288104
598.427589	0.288216
598.637764	0.288320
598.847921	0.288425
599.058060	0.288529
599.268180	0.288689
599.478282	0.288927
599.688366	0.289312
599.898431	0.289563
600.108479	0.289770
600.318508	0.290262
600.528519	0.290310
600.738511	0.290492
600.948486	0.291021
601.158442	0.291512
601.368380	0.291819
601.578300	0.292366
601.788202	0.292219
601.998085	0.292122
602.207950	0.292259
602.417797	0.292458
602.627626	0.292531
602.837436	0.292174
603.047228	0.292126
603.257002	0.292414
603.466758	0.292438
603.676496	0.293001
603.886215	0.293573
604.095916	0.293346
604.305599	0.293531
604.515264	0.294079
604.724910	0.294185
604.934538	0.294542
605.144148	0.293968
605.353740	0.294285
605.563314	0.294196
605.772869	0.294257
605.982406	0.294253
606.191925	0.294098
606.401425	0.293733
606.610908	0.294099
606.820372	0.294086
607.029818	0.294210
607.239246	0.294126
607.448655	0.294381
607.658047	0.294091
607.867420	0.294206
608.076775	0.294338
608.286111	0.294683
608.495430	0.294697
608.704730	0.294956
608.914012	0.295717
609.123275	0.295666
609.332521	0.295812
609.541748	0.295806
609.750957	0.296149
609.960148	0.296369
610.169321	0.296245
610.378475	0.296576
610.587611	0.296732
610.796729	0.296507
611.005829	0.297091
611.214910	0.297199
611.423974	0.297730
611.633019	0.298163
611.842045	0.298152
612.051054	0.298750
612.260044	0.298896
612.469017	0.299183
612.677970	0.299403
612.886906	0.299087
613.095824	0.299104
613.304723	0.299240
613.513604	0.299132
613.722467	0.299348
613.931311	0.299366
614.140138	0.299359
614.348946	0.299414
614.557736	0.299582
614.766507	0.300161
614.975261	0.300230
615.183996	0.300620
615.392713	0.300762
615.601412	0.301202
615.810092	0.301690
616.018754	0.301906
616.227399	0.302543
616.436024	0.303006
616.644632	0.303206
616.853222	0.303782
617.061793	0.304095
617.270346	0.304516
617.478880	0.304934
617.687397	0.304718
617.895895	0.304989
618.104375	0.304955
618.312837	0.304807
618.521281	0.304921
618.729706	0.304919
618.938113	0.304851
619.146502	0.304597
619.354873	0.304401
619.563226	0.304454
619.771560	0.304455
619.979876	0.304519
620.188174	0.304833
620.396453	0.304768
620.604715	0.304957
620.812958	0.305034
621.021183	0.305499
621.229390	0.305662
621.437578	0.305795
621.645748	0.306073
621.853900	0.305837
622.062034	0.305873
622.270150	0.306221
622.478247	0.306515
622.686326	0.306772
622.894387	0.306692
623.102430	0.306905
623.310454	0.307374
623.518461	0.307671
623.726449	0.308008
623.934418	0.308118
624.142370	0.308135
624.350303	0.307973
624.558218	0.307922
624.766115	0.308162
624.973994	0.308334
625.181855	0.308061
625.389697	0.307755
625.597521	0.308086
625.805327	0.308044
626.013114	0.308243
626.220883	0.308517
626.428634	0.308787
626.636367	0.309008
626.844082	0.309160
627.051778	0.309447
627.259457	0.309854
627.467117	0.310048
627.674758	0.310352
627.882382	0.310633
628.089987	0.311044
628.297574	0.311316
628.505143	0.311587
628.712694	0.311804
628.920226	0.312054
629.127740	0.312357
629.335236	0.312472
629.542714	0.312901
629.750174	0.312935
629.957615	0.312964
630.165038	0.313054
630.372443	0.313234
630.579829	0.313391
630.787198	0.313466
630.994548	0.313374
631.201880	0.313361
631.409194	0.313038
631.616489	0.313472
631.823766	0.313725
632.031025	0.313792
632.238266	0.314051
632.445489	0.314324
632.652693	0.314668
632.859879	0.314870
633.067047	0.315111
633.274197	0.315542
633.481329	0.315547
633.688442	0.315682
633.895537	0.315909
634.102614	0.316001
634.309672	0.316024
634.516713	0.316173
634.723735	0.316566
634.930739	0.316602
635.137724	0.317071
635.344692	0.317445
635.551641	0.317341
635.758572	0.317790
635.965485	0.317986
636.172379	0.318454
636.379256	0.318736
636.586114	0.319033
636.792954	0.319318
636.999775	0.319356
637.206579	0.319321
637.413364	0.319868
637.620131	0.320089
637.826880	0.320194
638.033610	0.320336
638.240323	0.320166
638.447017	0.320202
638.653692	0.320738
638.860350	0.321155
639.066990	0.321403
639.273611	0.321480
639.480214	0.321439
639.686798	0.321516
639.893365	0.321497
640.099913	0.322040
640.306443	0.322137
640.512955	0.322052
640.719449	0.321730
640.925924	0.321909
641.132381	0.322275
641.338820	0.322352
641.545241	0.322807
641.751644	0.323041
641.958028	0.323141
642.164394	0.323284
642.370742	0.323399
642.577071	0.323811
642.783383	0.324085
642.989676	0.324067
643.195951	0.324541
643.402207	0.324506
643.608446	0.324709
643.814666	0.325123
644.020868	0.325434
644.227052	0.325961
644.433218	0.326033
644.639365	0.326138
644.845494	0.326305
645.051605	0.326346
645.257698	0.326607
645.463772	0.326773
645.669828	0.326597
645.875866	0.326558
646.081886	0.326484
646.287888	0.326617
646.493871	0.326560
646.699836	0.326637
646.905783	0.326738
647.111712	0.326808
647.317622	0.327086
647.523514	0.327318
647.729388	0.327877
647.935244	0.328286
648.141082	0.328648
648.346901	0.328987
648.552702	0.329327
648.758485	0.329722
648.964250	0.330148
649.169996	0.330157
649.375724	0.330504
649.581434	0.330775
649.787126	0.330944
649.992800	0.330931
650.198455	0.331419
650.404092	0.331404
650.609711	0.331306
650.815311	0.331367
651.020894	0.331644
651.226458	0.331781
651.432004	0.332014
651.637532	0.331925
651.843041	0.332208
652.048532	0.332345
652.254006	0.332808
652.459460	0.333201
652.664897	0.333164
652.870315	0.333330
653.075716	0.333419
653.281097	0.333317
653.486461	0.333563
653.691807	0.333935
653.897134	0.334248
654.102443	0.334483
654.307734	0.334708
654.513006	0.335083
654.718261	0.335291
654.923497	0.335610
655.128715	0.335885
655.333915	0.336278
655.539096	0.336701
655.744259	0.336623
655.949404	0.336569
656.154531	0.336665
656.359640	0.336795
656.564730	0.337114
656.769802	0.337354
656.974856	0.337644
657.179892	0.337899
657.384909	0.337766
657.589908	0.337980
657.794889	0.338602
657.999852	0.338951
658.204797	0.339563
658.409723	0.339701
658.614631	0.339739
658.819521	0.339752
659.024393	0.340090
659.229246	0.340710
659.434081	0.340968
659.638898	0.340987
659.843697	0.341341
660.048478	0.341467
660.253240	0.341839
660.457984	0.342260
660.662710	0.342679
660.867417	0.342790
661.072107	0.342735
661.276778	0.343111
661.481431	0.343023
661.686066	0.343099
661.890682	0.343148
662.095281	0.343326
662.299861	0.343574
662.504422	0.343924
662.708966	0.344114
662.913491	0.344601
663.117999	0.344766
663.322488	0.345192
663.526958	0.345279
663.731411	0.345595
663.935845	0.345740
664.140261	0.346062
664.344659	0.346148
664.549038	0.346166
664.753400	0.346326
664.957743	0.346379
665.162068	0.347069
665.366375	0.347365
665.570663	0.347443
665.774933	0.347859
665.979185	0.347923
666.183419	0.347923
666.387635	0.348450
666.591832	0.348592
666.796011	0.348983
667.000172	0.348614
667.204315	0.349089
667.408439	0.349520
667.612545	0.349868
667.816634	0.350259
668.020703	0.350864
668.224755	0.351056
668.428788	0.351197
668.632803	0.351477
668.836800	0.352339
669.040779	0.352447
669.244739	0.352629
669.448681	0.352838
669.652605	0.353188
669.856511	0.353507
670.060399	0.353718
670.264268	0.353833
670.468119	0.353928
670.671952	0.353805
670.875767	0.354121
671.079563	0.354430
671.283341	0.354513
671.487101	0.354727
671.690843	0.354560
671.894567	0.354879
672.098272	0.355240
672.301959	0.355551
672.505628	0.355726
672.709278	0.355934
672.912911	0.356223
673.116525	0.356353
673.320121	0.356438
673.523699	0.356940
673.727258	0.357120
673.930799	0.357508
674.134322	0.357671
674.337827	0.357991
674.541314	0.358298
674.744782	0.358528
674.948232	0.358595
675.151664	0.358940
675.355078	0.359242
675.558474	0.359415
675.761851	0.359727
675.965210	0.360177
676.168551	0.360354
676.371873	0.360488
676.575178	0.360623
676.778464	0.361048
676.981732	0.361277
677.184981	0.361602
677.388213	0.361990
677.591426	0.362073
677.794621	0.362305
677.997798	0.362558
678.200956	0.362714
678.404097	0.362981
678.607219	0.363153
678.810323	0.363061
679.013408	0.363054
679.216476	0.363164
679.419525	0.363428
679.622556	0.363627
679.825569	0.363887
680.028563	0.364352
680.231540	0.364490
680.434498	0.364987
680.637438	0.365452
680.840359	0.365691
681.043263	0.365780
681.246148	0.365982
681.449015	0.366105
681.651864	0.366352
681.854694	0.366328
682.057506	0.366495
682.260301	0.366602
682.463076	0.366840
682.665834	0.367087
682.868573	0.367568
683.071295	0.367983
683.273998	0.368287
683.476682	0.368494
683.679349	0.368455
683.881997	0.368768
684.084627	0.368723
684.287239	0.368912
684.489833	0.368888
684.692408	0.368970
684.894965	0.368749
685.097504	0.368790
685.300025	0.369274
685.502527	0.369727
685.705012	0.369844
685.907478	0.370298
686.109925	0.370265
686.312355	0.370647
686.514766	0.370956
686.717159	0.371477
686.919534	0.371720
687.121891	0.371574
687.324230	0.371496
687.526550	0.371926
687.728852	0.371816
687.931136	0.372351
688.133401	0.372750
688.335649	0.372977
688.537878	0.373276
688.740089	0.373744
688.942281	0.374054
689.144456	0.374491
689.346612	0.374600
689.548750	0.375108
689.750870	0.375066
689.952971	0.375222
690.155055	0.375346
690.357120	0.375522
690.559167	0.375474
690.761195	0.375762
690.963206	0.376109
691.165198	0.376173
691.367172	0.376093
691.569128	0.376330
691.771065	0.376368
691.972984	0.376478
692.174885	0.376622
692.376768	0.377069
692.578633	0.377132
692.780479	0.377200
692.982308	0.377260
693.184118	0.377509
693.385909	0.377778
693.587683	0.377840
693.789438	0.378104
693.991175	0.378200
694.192894	0.378078
694.394595	0.378156
694.596277	0.378370
694.797941	0.378843
694.999587	0.379118
695.201215	0.379059
695.402824	0.379150
695.604416	0.379344
695.805989	0.379663
696.007543	0.379901
696.209080	0.380059
696.410598	0.380202
696.612099	0.380301
696.813580	0.380310
697.015044	0.380702
697.216490	0.380903
697.417917	0.381010
697.619326	0.381053
697.820717	0.381206
698.022089	0.381244
698.223444	0.381411
698.424780	0.381414
698.626098	0.381587
698.827397	0.381528
699.028679	0.381929
699.229942	0.382019
699.431187	0.381739
699.632414	0.381999
699.833622	0.381976
700.034813	0.382139
700.235985	0.382238
700.437139	0.382507
700.638274	0.382697
700.839392	0.382798
701.040491	0.382903
701.241572	0.383601
701.442635	0.383807
701.643679	0.384148
701.844706	0.384169
702.045714	0.384676
702.246704	0.385073
702.447675	0.385493
702.648629	0.385472
702.849564	0.385761
703.050481	0.385716
703.251380	0.385619
703.452260	0.385956
703.653122	0.386148
703.853966	0.385968
704.054792	0.385640
704.255600	0.385740
704.456389	0.385920
704.657160	0.385684
704.857913	0.385661
705.058648	0.385897
705.259365	0.386016
705.460063	0.385919
705.660743	0.385921
705.861405	0.386237
706.062048	0.386184
706.262674	0.386341
706.463281	0.386411
706.663870	0.386168
706.864441	0.385735
707.064993	0.385410
707.265527	0.385478
707.466043	0.385504
707.666541	0.385517
707.867021	0.385332
708.067482	0.385180
708.267925	0.385575
708.468350	0.385808
708.668757	0.385959
708.869145	0.386322
709.069516	0.386279
709.269868	0.386566
709.470201	0.386538
709.670517	0.386912
709.870814	0.386828
710.071093	0.386650
710.271354	0.386674
710.471597	0.386864
710.671821	0.386788
710.872028	0.386727
711.072216	0.386982
711.272385	0.386833
711.472537	0.386732
711.672670	0.386987
711.872785	0.386950
712.072882	0.387218
712.272961	0.387098
712.473021	0.386999
712.673063	0.387311
712.873087	0.386795
713.073093	0.386794
713.273081	0.386513
713.473050	0.386159
713.673001	0.386093
713.872934	0.385780
714.072849	0.385850
714.272745	0.385771
714.472623	0.385615
714.672483	0.385683
714.872325	0.385837
715.072148	0.385935
715.271954	0.386081
715.471741	0.386222
715.671509	0.386115
715.871260	0.386119
716.070992	0.386072
716.270707	0.385997
716.470403	0.385736
716.670080	0.385466
716.869740	0.385381
717.069381	0.385383
717.269004	0.385201
717.468609	0.385153
717.668195	0.385108
717.867764	0.385053
718.067314	0.384995
718.266846	0.385330
718.466360	0.385143
718.665855	0.385032
718.865332	0.384840
719.064791	0.384710
719.264232	0.384757
719.463655	0.384754
719.663059	0.384946
719.862445	0.384960
720.061813	0.384867
720.261163	0.384988
720.460494	0.385062
720.659807	0.385106
720.859102	0.385049
721.058379	0.384896
721.257638	0.384671
721.456878	0.384304
721.656100	0.384137
721.855304	0.383985
722.054490	0.383815
722.253657	0.383675
722.452806	0.383485
722.651937	0.383251
722.851050	0.383100
723.050145	0.382838
723.249221	0.382479
723.448279	0.382103
723.647319	0.381910
723.846340	0.381824
724.045344	0.381752
724.244329	0.381817
724.443296	0.381424
724.642245	0.381116
724.841175	0.380982
725.040088	0.381269
725.238982	0.381318
725.437857	0.380938
725.636715	0.380716
725.835554	0.380623
726.034376	0.380152
726.233179	0.380259
726.431963	0.380197
726.630730	0.380068
726.829478	0.379478
727.028208	0.379539
727.226920	0.379609
727.425614	0.379542
727.624289	0.378933
727.822946	0.378968
728.021585	0.378804
728.220206	0.378901
728.418808	0.378719
728.617392	0.378947
728.815958	0.378694
729.014506	0.378300
729.213036	0.377648
729.411547	0.377400
729.610040	0.376910
729.808515	0.376700
730.006972	0.376250
730.205410	0.375948
730.403831	0.375657
730.602233	0.375311
730.800616	0.375232
730.998982	0.375531
731.197329	0.375436
731.395658	0.375274
731.593969	0.375250
731.792262	0.375241
731.990536	0.375080
732.188793	0.374943
732.387031	0.374623
732.585250	0.374244
732.783452	0.374191
732.981635	0.373936
733.179800	0.373578
733.377947	0.373327
733.576076	0.373040
733.774186	0.372841
733.972278	0.372614
734.170352	0.372399
734.368408	0.372227
734.566446	0.371948
734.764465	0.371868
734.962466	0.372196
735.160449	0.371802
735.358413	0.371551
735.556360	0.371306
735.754288	0.371027
735.952198	0.370999
736.150090	0.370957
736.347963	0.370423
736.545818	0.370396
736.743655	0.370038
736.941474	0.369912
737.139275	0.369837
737.337057	0.369725
737.534821	0.369316
737.732567	0.369206
737.930295	0.368886
738.128005	0.368758
738.325696	0.368470
738.523369	0.368267
738.721024	0.368076
738.918660	0.367361
739.116279	0.366978
739.313879	0.366843
739.511461	0.366506
739.709024	0.366116
739.906570	0.365863
740.104097	0.365553
740.301606	0.365288
740.499097	0.365408
740.696569	0.365696
740.894024	0.365939
741.091460	0.366009
741.288878	0.365885
741.486277	0.365855
741.683659	0.365904
741.881022	0.365808
742.078367	0.365689
742.275694	0.364968
742.473002	0.364546
742.670293	0.363807
742.867565	0.363515
743.064819	0.363299
743.262054	0.363070
743.459272	0.362886
743.656471	0.362843
743.853652	0.362420
744.050815	0.362455
744.247959	0.362342
744.445085	0.362560
744.642194	0.362404
744.839283	0.362200
745.036355	0.361775
745.233408	0.361527
745.430444	0.361252
745.627461	0.360917
745.824459	0.360582
746.021440	0.360313
746.218402	0.360040
746.415346	0.359686
746.612272	0.359350
746.809180	0.359352
747.006069	0.359109
747.202940	0.358637
747.399793	0.358609
747.596628	0.358357
747.793444	0.358011
747.990243	0.357885
748.187023	0.357498
748.383784	0.357375
748.580528	0.357066
748.777253	0.356608
748.973960	0.356314
749.170649	0.356149
749.367320	0.355731
749.563973	0.355496
749.760607	0.355325
749.957223	0.355347
750.153821	0.355154
750.350400	0.355007
750.546962	0.354866
750.743505	0.354958
750.940030	0.354705
751.136536	0.354565
751.333025	0.354491
751.529495	0.353886
751.725947	0.353199
751.922381	0.352870
752.118796	0.352522
752.315194	0.352209
752.511573	0.351549
752.707934	0.351435
752.904276	0.351292
753.100601	0.350987
753.296907	0.350620
753.493195	0.350679
753.689465	0.350375
753.885716	0.350504
754.081949	0.350240
754.278164	0.350167
754.474361	0.349509
754.670540	0.349181
754.866700	0.348973
755.062843	0.348838
755.258967	0.348582
755.455072	0.348590
755.651160	0.348467
755.847229	0.348309
756.043280	0.348400
756.239313	0.348193
756.435328	0.348150
756.631324	0.347942
756.827302	0.347755
757.023262	0.347393
757.219204	0.347072
757.415127	0.346628
757.611033	0.346564
757.806920	0.346062
758.002788	0.346052
758.198639	0.345654
758.394471	0.345425
758.590286	0.345048
758.786081	0.344979
758.981859	0.344366
759.177619	0.344060
759.373360	0.343731
759.569083	0.343735
759.764788	0.343466
759.960474	0.343030
760.156143	0.342779
760.351793	0.342980
760.547425	0.342876
760.743038	0.343184
760.938634	0.342803
761.134211	0.342736
761.329770	0.342371
761.525311	0.342174
761.720833	0.342331
761.916338	0.342202
762.111824	0.341987
762.307292	0.341572
762.502741	0.341156
762.698173	0.341168
762.893586	0.341100
763.088981	0.341190
763.284358	0.341180
763.479716	0.341057
763.675057	0.340788
763.870379	0.340571
764.065683	0.340493
764.260968	0.340215
764.456236	0.339992
764.651485	0.339660
764.846716	0.339477
765.041929	0.339248
765.237123	0.339157
765.432299	0.339179
765.627457	0.339140
765.822597	0.339158
766.017719	0.339210
766.212822	0.339176
766.407907	0.339162
766.602974	0.338783
766.798023	0.338745
766.993054	0.338649
767.188066	0.338723
767.383060	0.338452
767.578036	0.338474
767.772993	0.338589
767.967933	0.338589
768.162854	0.338361
768.357757	0.338296
768.552642	0.338081
768.747508	0.337886
768.942356	0.337513
769.137186	0.337810
769.331998	0.337501
769.526792	0.337330
769.721567	0.337034
769.916324	0.336853
770.111063	0.336808
770.305784	0.336813
770.500486	0.336452
770.695171	0.336073
770.889837	0.335364
771.084484	0.335411
771.279114	0.334949
771.473725	0.334912
771.668318	0.335157
771.862893	0.334905
772.057450	0.334933
772.251988	0.335366
772.446509	0.335618
772.641011	0.335900
772.835494	0.335667
773.029960	0.336107
773.224407	0.335989
773.418836	0.335696
773.613247	0.335745
773.807640	0.335705
774.002014	0.335455
774.196370	0.335317
774.390708	0.335419
774.585028	0.335331
774.779330	0.335218
774.973613	0.335399
775.167878	0.335519
775.362125	0.335595
775.556354	0.335546
775.750564	0.335490
775.944756	0.335611
776.138930	0.335288
776.333086	0.335464
776.527223	0.335235
776.721343	0.335220
776.915444	0.335180
777.109526	0.335362
777.303591	0.335176
777.497637	0.335165
777.691666	0.335107
777.885676	0.335162
778.079667	0.335068
778.273641	0.335083
778.467596	0.334986
778.661533	0.335046
778.855452	0.334898
779.049352	0.334954
779.243235	0.335010
779.437099	0.335027
779.630945	0.335180
779.824773	0.335399
780.018582	0.335322
780.212373	0.335199
780.406146	0.334896
780.599901	0.334897
780.793638	0.335019
780.987356	0.335026
781.181056	0.335215
781.374738	0.335428
781.568402	0.335587
781.762047	0.335844
781.955674	0.336069
782.149283	0.336397
782.342874	0.336410
782.536447	0.336659
782.730001	0.336917
782.923537	0.336687
783.117055	0.336603
783.310555	0.336665
783.504036	0.336718
783.697499	0.336609
783.890944	0.336436
784.084371	0.336551
784.277780	0.336288
784.471170	0.336139
784.664542	0.336430
784.857896	0.336423
785.051231	0.336219
785.244549	0.336118
785.437848	0.336265
785.631129	0.336584
785.824392	0.336648
786.017636	0.336923
786.210863	0.337013
786.404071	0.337134
786.597260	0.337095
786.790432	0.337082
786.983585	0.337233
787.176721	0.337198
787.369838	0.337280
787.562936	0.337339
787.756017	0.337302
787.949079	0.337432
788.142123	0.337316
788.335149	0.337618
788.528156	0.337866
788.721146	0.337830
788.914117	0.338158
789.107070	0.338079
789.300005	0.338221
789.492921	0.338365
789.685819	0.338380
789.878699	0.338745
790.071561	0.338538
790.264405	0.338727
790.457230	0.339167
790.650037	0.339119
790.842826	0.339365
791.035597	0.339626
791.228349	0.339880
791.421084	0.340114
791.613800	0.340258
791.806497	0.340624
791.999177	0.340741
792.191838	0.340609
792.384481	0.340711
792.577106	0.340689
792.769713	0.340687
792.962301	0.340613
793.154871	0.340716
793.347423	0.340619
793.539957	0.340598
793.732473	0.341113
793.924970	0.341468
794.117449	0.341820
794.309910	0.342283
794.502353	0.342534
794.694777	0.342804
794.887183	0.343352
795.079571	0.343796
795.271941	0.344138
795.464293	0.344011
795.656626	0.344354
795.848941	0.344741
796.041238	0.344833
796.233516	0.345203
796.425777	0.345645
796.618019	0.345600
796.810243	0.345701
797.002449	0.346031
797.194636	0.346209
797.386805	0.346175
797.578956	0.346500
797.771089	0.346671
797.963204	0.346705
798.155300	0.346931
798.347378	0.347051
798.539438	0.347515
798.731480	0.347871
798.923503	0.348231
799.115509	0.348616
799.307496	0.348748
799.499465	0.349152
799.691415	0.349505
799.883348	0.349784
800.075262	0.350105
800.267158	0.350093
800.459035	0.350346
800.650895	0.350396
800.842736	0.350935
801.034559	0.351202
801.226364	0.351416
801.418150	0.351693
801.609919	0.351874
801.801669	0.352417
801.993401	0.352735
802.185114	0.353058
802.376810	0.353510
802.568487	0.353291
802.760146	0.353413
802.951787	0.353697
803.143409	0.354262
803.335014	0.354522
803.526600	0.354671
803.718168	0.355184
803.909717	0.355579
804.101249	0.355692
804.292762	0.356098
804.484257	0.356339
804.675734	0.356744
804.867192	0.356633
805.058632	0.356980
805.250054	0.357481
805.441458	0.358029
805.632844	0.358147
805.824211	0.358540
806.015561	0.358899
806.206891	0.359303
806.398204	0.359620
806.589499	0.360140
806.780775	0.360373
806.972033	0.360404
807.163273	0.360310
807.354495	0.360584
807.545698	0.360909
807.736883	0.361484
807.928050	0.362161
808.119199	0.362375
808.310329	0.362603
808.501441	0.363272
808.692535	0.363877
808.883611	0.364475
809.074669	0.365204
809.265708	0.365943
809.456729	0.366077
809.647732	0.366175
809.838717	0.366582
810.029683	0.366980
810.220632	0.367190
810.411562	0.367347
810.602474	0.367715
810.793367	0.367826
810.984242	0.368060
811.175100	0.368459
811.365938	0.369021
811.556759	0.369845
811.747562	0.370177
811.938346	0.370468
812.129112	0.370883
812.319860	0.371140
812.510589	0.371701
812.701300	0.371995
812.891994	0.372487
813.082668	0.372752
813.273325	0.372986
813.463964	0.373750
813.654584	0.374172
813.845186	0.374630
814.035769	0.375211
814.226335	0.375557
814.416882	0.375908
814.607411	0.376347
814.797922	0.376518
814.988415	0.376798
815.178889	0.377325
815.369345	0.377717
815.559783	0.377892
815.750203	0.378538
815.940605	0.379056
816.130988	0.379238
816.321353	0.379793
816.511700	0.380453
816.702028	0.380924
816.892339	0.380999
817.082631	0.381558
817.272905	0.382198
817.463161	0.382162
817.653398	0.382343
817.843617	0.383098
818.033819	0.383382
818.224001	0.383606
818.414166	0.383958
818.604312	0.384697
818.794440	0.385278
818.984550	0.385471
819.174642	0.386233
819.364716	0.386850
819.554771	0.387338
819.744808	0.388092
819.934827	0.388973
820.124827	0.389456
820.314810	0.390042
820.504774	0.390414
820.694720	0.391586
820.884647	0.391849
821.074557	0.392071
821.264448	0.392579
821.454321	0.392689
821.644176	0.392999
821.834012	0.393725
822.023831	0.394122
822.213631	0.394370
822.403413	0.394461
822.593176	0.395171
822.782922	0.395725
822.972649	0.396442
823.162358	0.397153
823.352049	0.397788
823.541721	0.398572
823.731376	0.398849
823.921012	0.399574
824.110629	0.400210
824.300229	0.400810
824.489811	0.401253
824.679374	0.401657
824.868919	0.402068
825.058445	0.402362
825.247954	0.402406
825.437444	0.403243
825.626916	0.404124
825.816370	0.404550
826.005806	0.404706
826.195223	0.405311
826.384622	0.405812
826.574003	0.406563
826.763366	0.406971
826.952711	0.407473
827.142037	0.407715
827.331345	0.407929
827.520635	0.408569
827.709906	0.409306
827.899160	0.409800
828.088395	0.410292
828.277612	0.410909
828.466810	0.411834
828.655991	0.412148
828.845153	0.412558
829.034297	0.412959
829.223423	0.413317
829.412531	0.413803
829.601620	0.414421
829.790691	0.414629
829.979744	0.415076
830.168779	0.415457
830.357795	0.416041
830.546793	0.416554
830.735773	0.417108
830.924735	0.418076
831.113679	0.418669
831.302604	0.419633
831.491511	0.420517
831.680400	0.421224
831.869271	0.421921
832.058123	0.422932
832.246957	0.423588
832.435773	0.424247
832.624571	0.424836
832.813351	0.425078
833.002112	0.425607
833.190855	0.426423
833.379580	0.426859
833.568287	0.427142
833.756975	0.427422
833.945645	0.428082
834.134297	0.428674
834.322931	0.429226
834.511547	0.430082
834.700144	0.430231
834.888723	0.430445
835.077284	0.431145
835.265826	0.431918
835.454351	0.432666
835.642857	0.433261
835.831345	0.433926
836.019815	0.434188
836.208266	0.434759
836.396699	0.435592
836.585114	0.436396
836.773511	0.436774
836.961890	0.437586
837.150250	0.438244
837.338592	0.438481
837.526916	0.439147
837.715222	0.440033
837.903510	0.440628
838.091779	0.441294
838.280030	0.442094
838.468263	0.442958
838.656477	0.443832
838.844674	0.444400
839.032852	0.445126
839.221012	0.445452
839.409153	0.445967
839.597277	0.446948
839.785382	0.447414
839.973469	0.447788
840.161538	0.448617
840.349589	0.448733
840.537621	0.449321
840.725635	0.450174
840.913631	0.450971
841.101609	0.451448
841.289568	0.451824
841.477509	0.452899
841.665432	0.453515
841.853337	0.453491
842.041224	0.454639
842.229092	0.454976
842.416942	0.455591
842.604774	0.456613
842.792588	0.457507
842.980383	0.458568
843.168160	0.458854
843.355919	0.459799
843.543660	0.460430
843.731382	0.460690
843.919087	0.461858
844.106773	0.462244
844.294441	0.462448
844.482090	0.463183
844.669722	0.463207
844.857335	0.463967
845.044930	0.464563
845.232507	0.465285
845.420065	0.465796
845.607605	0.466709
845.795127	0.467649
845.982631	0.468316
846.170117	0.468666
846.357584	0.469540
846.545033	0.469988
846.732464	0.470498
846.919877	0.471182
847.107272	0.472261
847.294648	0.472384
847.482006	0.473244
847.669346	0.473962
847.856667	0.474794
848.043971	0.475225
848.231256	0.475853
848.418523	0.476394
848.605771	0.477034
848.793002	0.477278
848.980214	0.477877
849.167408	0.478177
849.354584	0.478594
849.541742	0.478977
849.728881	0.479738
849.916002	0.480680
850.103105	0.481249
850.290190	0.481919
850.477256	0.482386
850.664304	0.482931
850.851334	0.483580
851.038346	0.484423
851.225340	0.485243
851.412315	0.485397
851.599272	0.485467
851.786211	0.486184
851.973132	0.486620
852.160034	0.487245
852.346918	0.488015
852.533784	0.488594
852.720632	0.488577
852.907462	0.488628
853.094273	0.489569
853.281066	0.490387
853.467841	0.490664
853.654598	0.491498
853.841336	0.492089
854.028056	0.492874
854.214758	0.493264
854.401442	0.494329
854.588107	0.495282
854.774755	0.495805
854.961384	0.496240
855.147995	0.496853
855.334587	0.497219
855.521162	0.497625
855.707718	0.497808
855.894256	0.498673
856.080775	0.499657
856.267277	0.500390
856.453760	0.500979
856.640225	0.501317
856.826672	0.502340
857.013101	0.503113
857.199511	0.504123
857.385903	0.504943
857.572277	0.505545
857.758633	0.505387
857.944970	0.505481
858.131290	0.506452
858.317591	0.507184
858.503873	0.507595
858.690138	0.507433
858.876384	0.507705
859.062612	0.507746
859.248822	0.508399
859.435014	0.508836
859.621188	0.509556
859.807343	0.509880
859.993480	0.510714
860.179599	0.511001
860.365699	0.512152
860.551781	0.513106
860.737846	0.514283
860.923891	0.514352
861.109919	0.515599
861.295929	0.515878
861.481920	0.515823
861.667893	0.516155
861.853848	0.516748
862.039784	0.517252
862.225702	0.517506
862.411603	0.518061
862.597484	0.518677
862.783348	0.519009
862.969193	0.519999
863.155021	0.521260
863.340830	0.521808
863.526620	0.522348
863.712393	0.522906
863.898147	0.523362
864.083883	0.523247
864.269601	0.524207
864.455301	0.524330
864.640982	0.524537
864.826645	0.525173
865.012290	0.525543
865.197917	0.526044
865.383526	0.526349
865.569116	0.526922
865.754688	0.528045
865.940242	0.528588
866.125777	0.529304
866.311295	0.529783
866.496794	0.529654
866.682275	0.530734
866.867737	0.531323
867.053182	0.531693
867.238608	0.532108
867.424016	0.531701
867.609406	0.531971
867.794778	0.532233
867.980131	0.532936
868.165466	0.533512
868.350783	0.533942
868.536082	0.534376
868.721362	0.534549
868.906625	0.535735
869.091869	0.536411
869.277094	0.536288
869.462302	0.537054
869.647491	0.537707
869.832662	0.538332
870.017815	0.538275
870.202950	0.538429
870.388066	0.539707
870.573165	0.539303
870.758245	0.539608
870.943306	0.540533
871.128350	0.540812
871.313375	0.541066
871.498382	0.541494
871.683371	0.541870
871.868342	0.542162
872.053294	0.542478
872.238229	0.542563
872.423144	0.543347
872.608042	0.543892
872.792922	0.544176
872.977783	0.543999
873.162626	0.543968
873.347451	0.544586
873.532258	0.545707
873.717046	0.545400
873.901816	0.545620
874.086568	0.545367
874.271302	0.545347
874.456017	0.545628
874.640715	0.546548
874.825394	0.546865
875.010055	0.547128
875.194697	0.546738
875.379322	0.547469
875.563928	0.548851
875.748516	0.549980
875.933085	0.550317
876.117637	0.550691
876.302170	0.550771
876.486685	0.551203
876.671182	0.551180
876.855661	0.551523
877.040121	0.551667
877.224563	0.551312
877.408987	0.550759
877.593393	0.551238
877.777780	0.551239
877.962150	0.551788
878.146501	0.552001
878.330833	0.552287
878.515148	0.552812
878.699444	0.553045
878.883722	0.553283
879.067982	0.553851
879.252224	0.553204
879.436447	0.554008
879.620653	0.553557
879.804840	0.553873
879.989008	0.553840
880.173159	0.553610
880.357291	0.553838
880.541405	0.553721
880.725501	0.553709
880.909579	0.554330
881.093638	0.554639
881.277680	0.554817
881.461703	0.555325
881.645707	0.555971
881.829694	0.556000
882.013662	0.556091
882.197612	0.556411
882.381544	0.557275
882.565458	0.557819
882.749353	0.557769
882.933230	0.557892
883.117089	0.557636
883.300930	0.557876
883.484753	0.558259
883.668557	0.558176
883.852343	0.558347
884.036111	0.558240
884.219861	0.557941
884.403592	0.557838
884.587305	0.558662
884.771000	0.558729
884.954677	0.558559
885.138335	0.558675
885.321976	0.559267
885.505598	0.559278
885.689201	0.559334
885.872787	0.559633
886.056354	0.560218
886.239904	0.559411
886.423434	0.559129
886.606947	0.559315
886.790442	0.559258
886.973918	0.558829
887.157376	0.559303
887.340816	0.559362
887.524237	0.559111
887.707641	0.558836
887.891026	0.559123
888.074393	0.559422
888.257741	0.559392
888.441072	0.559923
888.624384	0.560519
888.807678	0.560089
888.990954	0.560392
889.174211	0.560149
889.357451	0.560340
889.540672	0.560738
889.723875	0.561270
889.907059	0.561203
890.090226	0.560971
890.273374	0.560973
890.456504	0.561463
890.639616	0.560344
890.822709	0.560632
891.005785	0.559962
891.188842	0.559659
891.371881	0.559509
891.554901	0.559350
891.737904	0.559291
891.920888	0.559034
892.103854	0.558441
892.286802	0.559184
892.469731	0.558718
892.652643	0.558347
892.835536	0.558165
893.018410	0.557909
893.201267	0.558078
893.384106	0.557413
893.566926	0.556875
893.749728	0.557288
893.932511	0.556833
894.115277	0.557019
894.298024	0.557055
894.480753	0.557070
894.663464	0.556864
894.846157	0.556469
895.028831	0.557286
895.211487	0.557587
895.394125	0.556736
895.576745	0.557261
895.759346	0.557504
895.941930	0.557646
896.124495	0.557414
896.307041	0.557509
896.489570	0.556930
896.672080	0.556105
896.854573	0.555598
897.037046	0.555497
897.219502	0.554207
897.401940	0.553034
897.584359	0.552278
897.766760	0.552266
897.949143	0.551257
898.131507	0.551621
898.313854	0.551183
898.496182	0.550921
898.678492	0.550979
898.860783	0.551152
899.043057	0.551289
899.225312	0.551097
899.407549	0.550759
899.589768	0.550767
899.771968	0.550533
899.954151	0.550773
900.136315	0.550220
900.318461	0.550210
900.500588	0.550336
900.682698	0.550245
900.864789	0.549970
901.046862	0.549712
901.228917	0.549531
901.410953	0.548739
901.592971	0.548223
901.774972	0.548509
901.956953	0.547460
902.138917	0.546489
902.320862	0.546209
902.502790	0.546028
902.684699	0.545663
902.866589	0.545739
903.048462	0.545473
903.230316	0.544574
903.412152	0.542786
903.593970	0.542581
903.775770	0.542081
903.957551	0.541764
904.139314	0.541976
904.321059	0.541452
904.502786	0.540383
904.684494	0.539476
904.866185	0.538666
905.047857	0.538870
905.229510	0.538280
905.411146	0.538423
905.592763	0.537559
905.774363	0.536321
905.955943	0.535706
906.137506	0.535998
906.319051	0.536383
906.500577	0.536737
906.682085	0.536593
906.863575	0.535899
907.045046	0.535301
907.226500	0.534426
907.407935	0.533659
907.589352	0.532990
907.770750	0.531894
907.952131	0.530931
908.133493	0.529341
908.314837	0.528081
908.496163	0.527672
908.677470	0.526338
908.858760	0.526132
909.040031	0.525728
909.221284	0.525020
909.402518	0.524533
909.583735	0.523883
909.764933	0.523923
909.946113	0.523884
910.127275	0.523401
910.308418	0.522808
910.489544	0.521972
910.670651	0.521529
910.851740	0.520691
911.032810	0.519248
911.213863	0.518060
911.394897	0.517180
911.575913	0.516227
911.756911	0.515509
911.937890	0.515079
912.118851	0.514406
912.299794	0.513377
912.480719	0.512748
912.661626	0.511935
912.842514	0.511056
913.023384	0.509876
913.204236	0.509590
913.385070	0.508053
913.565886	0.507154
913.746683	0.505934
913.927462	0.505228
914.108223	0.504281
914.288965	0.503662
914.469690	0.503038
914.650396	0.502329
914.831084	0.501102
915.011754	0.501218
915.192405	0.500647
915.373038	0.500702
915.553653	0.500085
915.734250	0.499559
915.914829	0.498960
916.095389	0.498705
916.275931	0.498484
916.456455	0.497344
916.636961	0.496354
916.817448	0.495567
916.997917	0.494169
917.178368	0.492717
917.358801	0.492268
917.539216	0.491234
917.719612	0.489601
917.899990	0.488691
918.080350	0.488202
918.260692	0.487262
918.441015	0.486146
918.621320	0.485408
918.801607	0.485442
918.981876	0.483312
919.162127	0.482359
919.342359	0.481892
919.522573	0.480521
919.702769	0.479268
919.882947	0.478017
920.063106	0.476991
920.243247	0.475696
920.423370	0.474020
920.603475	0.473014
920.783562	0.471247
920.963630	0.469865
921.143680	0.468515
921.323712	0.467768
921.503725	0.466421
921.683721	0.465702
921.863698	0.464810
922.043657	0.462993
922.223598	0.463461
922.403520	0.463322
922.583424	0.462759
922.763311	0.462800
922.943178	0.462033
923.123028	0.461155
923.302859	0.459798
923.482673	0.459295
923.662467	0.459372
923.842244	0.457302
924.022003	0.455883
924.201743	0.454750
924.381465	0.453417
924.561169	0.452612
924.740854	0.451700
924.920522	0.450311
925.100171	0.449115
925.279802	0.447912
925.459414	0.447231
925.639009	0.446363
925.818585	0.444924
925.998143	0.443688
926.177683	0.441474
926.357205	0.440295
926.536708	0.439300
926.716193	0.437774
926.895660	0.436092
927.075109	0.435299
927.254539	0.434650
927.433951	0.434221
927.613345	0.433306
927.792721	0.432467
927.972079	0.431563
928.151418	0.429745
928.330739	0.428575
928.510042	0.427057
928.689327	0.424560
928.868593	0.423244
929.047841	0.421376
929.227071	0.419704
929.406283	0.418713
929.585476	0.416998
929.764652	0.416140
929.943809	0.415126
930.122948	0.414149
930.302068	0.413674
930.481171	0.412633
930.660255	0.411380
930.839321	0.409330
931.018369	0.407335
931.197398	0.406179
931.376409	0.404654
931.555402	0.403269
931.734377	0.403101
931.913334	0.401500
932.092272	0.398835
932.271192	0.397415
932.450094	0.395797
932.628978	0.394726
932.807844	0.393269
932.986691	0.393065
933.165520	0.391655
933.344331	0.390230
933.523123	0.389476
933.701898	0.388889
933.880654	0.388516
934.059392	0.387893
934.238111	0.386856
934.416813	0.385478
934.595496	0.383540
934.774161	0.382011
934.952808	0.379888
935.131437	0.377960
935.310047	0.375674
935.488639	0.373429
935.667213	0.371427
935.845769	0.369971
936.024306	0.368995
936.202825	0.367610
936.381326	0.365559
936.559809	0.364535
936.738274	0.363570
936.916720	0.362944
937.095148	0.361163
937.273558	0.360924
937.451950	0.360131
937.630323	0.359114
937.808678	0.357785
937.987015	0.356898
938.165334	0.356261
938.343635	0.354594
938.521917	0.353878
938.700181	0.354290
938.878427	0.351701
939.056655	0.349659
939.234864	0.346904
939.413055	0.346393
939.591228	0.345071
939.769383	0.343060
939.947519	0.341465
940.125638	0.340297
940.303738	0.336239
940.481820	0.335773
940.659883	0.335097
940.837929	0.334141
941.015956	0.331695
941.193965	0.330774
941.371955	0.329426
941.549928	0.327235
941.727882	0.326168
941.905818	0.326315
942.083736	0.325503
942.261636	0.324481
942.439517	0.324403
942.617380	0.324343
942.795225	0.323651
942.973052	0.322184
943.150860	0.320901
943.328651	0.319161
943.506423	0.317169
943.684176	0.316662
943.861912	0.313542
944.039629	0.312413
944.217328	0.309274
944.395009	0.308687
944.572672	0.306874
944.750317	0.307398
944.927943	0.304836
945.105551	0.303173
945.283141	0.299228
945.460712	0.297424
945.638265	0.294412
945.815801	0.293674
945.993317	0.289944
946.170816	0.288360
946.348297	0.283758
946.525759	0.282532
946.703203	0.280904
946.880629	0.280433
947.058036	0.279531
947.235425	0.277100
947.412797	0.274964
947.590149	0.274062
947.767484	0.272622
947.944800	0.273358
948.122099	0.271167
948.299379	0.270633
948.476640	0.268676
948.653884	0.268606
948.831109	0.268155
949.008316	0.266458
949.185505	0.264760
949.362676	0.263387
949.539828	0.261945
949.716962	0.260901
949.894078	0.259531
950.071176	0.257474
950.248256	0.255136
950.425317	0.253242
950.602360	0.252847
950.779385	0.252529
950.956391	0.250054
951.133380	0.248268
951.310350	0.249270
951.487302	0.246937
951.664235	0.246219
951.841151	0.244137
952.018048	0.243415
952.194927	0.240472
952.371788	0.238380
952.548631	0.237134
952.725455	0.236251
952.902261	0.231585
953.079049	0.230989
953.255819	0.228881
953.432570	0.229078
953.609303	0.227556
953.786018	0.226907
953.962715	0.224355
954.139394	0.224521
954.316054	0.223433
954.492696	0.223046
954.669320	0.222995
954.845926	0.223671
955.022513	0.221161
955.199083	0.222163
955.375634	0.221039
955.552166	0.218220
955.728681	0.217594
955.905177	0.214651
956.081655	0.213070
956.258115	0.208885
956.434557	0.208024
956.610980	0.208241
956.787385	0.206571
956.963772	0.206914
957.140141	0.209280
957.316492	0.207726
957.492824	0.207956
957.669138	0.206679
957.845434	0.206427
958.021712	0.205563
958.197971	0.204659
958.374212	0.202817
958.550435	0.202190
958.726640	0.200315
958.902826	0.198006
959.078995	0.197639
959.255145	0.197313
959.431277	0.196902
959.607390	0.196137
959.783486	0.195112
959.959563	0.192577
960.135622	0.188656
960.311662	0.190601
960.487685	0.188812
960.663689	0.187080
960.839675	0.187224
961.015643	0.186531
961.191593	0.185619
961.367524	0.182101
961.543437	0.184658
961.719332	0.186969
961.895209	0.182809
962.071067	0.183877
962.246907	0.183729
962.422730	0.185976
962.598533	0.187472
962.774319	0.187403
962.950086	0.189729
963.125835	0.187665
963.301566	0.185687
963.477279	0.184243
963.652973	0.183317
963.828650	0.183190
964.004308	0.178685
964.179947	0.177796
964.355569	0.177679
964.531172	0.176763
964.706757	0.178680
964.882324	0.178973
965.057873	0.180783
965.233403	0.180417
965.408916	0.178696
965.584410	0.179228
965.759885	0.176199
965.935343	0.175616
966.110782	0.175840
966.286203	0.173294
966.461606	0.172115
966.636991	0.173547
966.812357	0.172749
966.987705	0.174576
967.163035	0.176339
967.338347	0.178062
967.513641	0.177460
967.688916	0.177347
967.864173	0.175384
968.039412	0.175412
968.214632	0.171863
968.389835	0.173119
968.565019	0.171426
968.740185	0.169454
968.915333	0.170627
969.090462	0.170857
969.265573	0.171467
969.440667	0.173042
969.615741	0.174939
969.790798	0.174277
969.965836	0.176460
970.140856	0.175186
970.315858	0.177313
970.490842	0.177805
970.665808	0.176450
970.840755	0.174058
971.015684	0.174146
971.190595	0.172101
971.365487	0.177206
971.540362	0.173418
971.715218	0.176741
971.890056	0.176647
972.064875	0.175536
972.239677	0.175861
972.414460	0.175164
972.589225	0.175943
972.763972	0.178178
972.938700	0.173351
973.113411	0.173356
973.288103	0.170120
973.462777	0.167076
973.637432	0.165601
973.812070	0.167146
973.986689	0.169940
974.161290	0.170487
974.335873	0.169303
974.510437	0.172751
974.684984	0.172770
974.859512	0.174117
975.034022	0.174800
975.208513	0.175098
975.382987	0.174063
975.557442	0.172814
975.731879	0.170521
975.906298	0.172170
976.080698	0.171610
976.255080	0.173333
976.429445	0.173268
976.603790	0.175212
976.778118	0.175515
976.952427	0.172150
977.126719	0.172849
977.300992	0.173146
977.475246	0.171651
977.649483	0.169728
977.823701	0.167586
977.997901	0.169210
978.172083	0.166771
978.346247	0.167434
978.520392	0.173009
978.694519	0.170845
978.868628	0.172857
979.042719	0.171661
979.216791	0.171736
979.390845	0.172707
979.564882	0.171198
979.738899	0.171425
979.912899	0.171055
980.086880	0.168224
980.260843	0.170694
980.434788	0.169765
980.608715	0.170503
980.782623	0.169708
980.956514	0.169603
981.130386	0.170629
981.304240	0.168938
981.478075	0.169017
981.651892	0.169655
981.825692	0.169705
981.999472	0.168089
982.173235	0.164898
982.346980	0.168260
982.520706	0.168757
982.694414	0.165989
982.868104	0.168963
983.041775	0.167648
983.215428	0.167856
983.389064	0.165744
983.562680	0.169591
983.736279	0.172861
983.909860	0.171416
984.083422	0.172077
984.256966	0.171052
984.430491	0.170475
984.603999	0.171346
984.777488	0.170175
984.950959	0.171016
985.124412	0.168420
985.297847	0.167230
985.471263	0.165910
985.644661	0.165137
985.818041	0.167756
985.991403	0.168861
986.164747	0.168645
986.338072	0.168905
986.511379	0.166626
986.684668	0.168109
986.857938	0.168847
987.031191	0.169577
987.204425	0.168460
987.377641	0.168536
987.550839	0.166639
987.724018	0.166402
987.897179	0.163981
988.070322	0.166515
988.243447	0.165282
988.416554	0.165151
988.589642	0.165660
988.762712	0.167836
988.935764	0.168988
989.108798	0.167995
989.281813	0.169085
989.454811	0.171397
989.627790	0.170395
989.800751	0.170695
989.973693	0.170535
990.146617	0.172616
990.319524	0.171872
990.492412	0.170461
990.665281	0.171350
990.838133	0.170077
991.010966	0.169971
991.183781	0.170678
991.356578	0.171218
991.529356	0.170038
991.702117	0.167937
991.874859	0.166448
992.047583	0.166831
992.220288	0.168459
992.392976	0.167882
992.565645	0.166798
992.738296	0.168401
992.910929	0.168091
993.083543	0.169111
993.256139	0.168490
993.428718	0.170270
993.601277	0.170685
993.773819	0.170432
993.946342	0.172666
994.118848	0.174801
994.291335	0.173840
994.463803	0.173812
994.636254	0.172598
994.808686	0.171679
994.981100	0.170060
995.153496	0.167759
995.325874	0.167064
995.498233	0.165090
995.670574	0.164020
995.842897	0.163518
996.015202	0.163616
996.187488	0.165494
996.359757	0.166811
996.532007	0.168216
996.704239	0.169673
996.876452	0.168618
997.048648	0.168775
997.220825	0.170403
997.392984	0.169052
997.565124	0.169609
997.737247	0.169167
997.909351	0.167380
998.081437	0.167073
998.253505	0.168428
998.425554	0.170984
998.597586	0.171185
998.769599	0.169340
998.941594	0.170926
999.113571	0.169513
999.285529	0.169859
999.457469	0.172060
999.629391	0.171407
999.801295	0.172850
999.973181	0.171257
1000.145048	0.172256
1000.316897	0.174055
1000.488728	0.174424
1000.660541	0.175336
1000.832335	0.176017
1001.004111	0.175831
1001.175869	0.176994
1001.347609	0.174948
1001.519331	0.174459
1001.691034	0.174388
1001.862719	0.173958
1002.034386	0.174335
1002.206035	0.173377
1002.377665	0.171523
1002.549277	0.172298
1002.720871	0.172377
1002.892447	0.171037
1003.064004	0.172549
1003.235544	0.171676
1003.407065	0.170902
1003.578568	0.167862
1003.750052	0.168467
1003.921519	0.170012
1004.092967	0.169776
1004.264397	0.169093
1004.435809	0.170284
1004.607202	0.169856
1004.778577	0.168305
1004.949934	0.168268
1005.121273	0.169612
1005.292594	0.169602
1005.463896	0.167269
1005.635180	0.167764
1005.806446	0.168168
1005.977694	0.168745
1006.148923	0.170485
1006.320135	0.174203
1006.491328	0.173686
1006.662503	0.173305
1006.833659	0.172624
1007.004798	0.174623
1007.175918	0.172576
1007.347020	0.171625
1007.518103	0.167277
1007.689169	0.167678
1007.860216	0.165579
1008.031245	0.165573
1008.202256	0.165667
1008.373248	0.166212
1008.544223	0.164542
1008.715179	0.164278
1008.886117	0.165737
1009.057036	0.170439
1009.227938	0.167006
1009.398821	0.166311
1009.569686	0.166466
1009.740533	0.167952
1009.911361	0.166253
1010.082172	0.169215
1010.252964	0.170117
1010.423738	0.169850
1010.594493	0.169415
1010.765231	0.169338
1010.935950	0.171327
1011.106651	0.172832
1011.277334	0.173341
1011.447998	0.174500
1011.618645	0.173657
1011.789273	0.173386
1011.959882	0.174357
1012.130474	0.173882
1012.301048	0.175266
1012.471603	0.175476
1012.642140	0.175684
1012.812658	0.172578
1012.983159	0.170629
1013.153641	0.170421
1013.324105	0.172164
1013.494551	0.172369
1013.664979	0.171879
1013.835388	0.172731
1014.005779	0.172109
1014.176152	0.170193
1014.346507	0.172521
1014.516843	0.171988
1014.687162	0.171464
1014.857462	0.170318
1015.027744	0.169496
1015.198007	0.170051
1015.368252	0.168739
1015.538480	0.168030
1015.708689	0.169115
1015.878879	0.166901
1016.049052	0.169334
1016.219206	0.170683
1016.389342	0.170421
1016.559460	0.170799
1016.729559	0.169459
1016.899641	0.168323
1017.069704	0.168182
1017.239749	0.167277
1017.409775	0.168565
1017.579784	0.168833
1017.749774	0.166544
1017.919746	0.166273
1018.089700	0.163421
1018.259635	0.163944
1018.429553	0.164128
1018.599452	0.164232
1018.769333	0.164967
1018.939195	0.164611
1019.109040	0.163631
1019.278866	0.165368
1019.448674	0.164474
1019.618464	0.164802
1019.788235	0.164071
1019.957989	0.164797
1020.127724	0.163958
1020.297441	0.161754
1020.467139	0.163543
1020.636820	0.164194
1020.806482	0.163922
1020.976126	0.164057
1021.145752	0.163979
1021.315359	0.166125
1021.484948	0.165446
1021.654519	0.166078
1021.824072	0.168311
1021.993607	0.165981
1022.163123	0.165089
1022.332621	0.165777
1022.502101	0.165323
1022.671563	0.166170
1022.841007	0.165786
1023.010432	0.167445
1023.179839	0.167627
1023.349228	0.168896
1023.518598	0.168972
1023.687951	0.169752
1023.857285	0.168153
1024.026601	0.169071
1024.195899	0.170362
1024.365178	0.169314
1024.534439	0.168080
1024.703682	0.167282
1024.872907	0.166477
1025.042114	0.166583
1025.211302	0.167738
1025.380472	0.168407
1025.549624	0.168265
1025.718758	0.166179
1025.887873	0.166981
1026.056970	0.168732
1026.226049	0.168233
1026.395110	0.167225
1026.564153	0.167830
1026.733177	0.164424
1026.902183	0.165371
1027.071171	0.165634
1027.240141	0.165550
1027.409092	0.165682
1027.578026	0.163141
1027.746940	0.165369
1027.915837	0.164563
1028.084716	0.165839
1028.253576	0.168537
1028.422418	0.167654
1028.591242	0.166402
1028.760048	0.167403
1028.928835	0.165680
1029.097604	0.165715
1029.266355	0.163008
1029.435088	0.163885
1029.603803	0.161803
1029.772499	0.160343
1029.941177	0.159502
1030.109837	0.161878
1030.278478	0.160835
1030.447102	0.159456
1030.615707	0.159739
1030.784294	0.160547
1030.952863	0.161069
1031.121413	0.161071
1031.289945	0.161146
1031.458460	0.160594
1031.626955	0.158828
1031.795433	0.158645
1031.963892	0.161600
1032.132334	0.161450
1032.300756	0.162546
1032.469161	0.161373
1032.637548	0.161224
1032.805916	0.162588
1032.974266	0.162657
1033.142598	0.162831
1033.310911	0.163301
1033.479207	0.164436
1033.647484	0.165558
1033.815743	0.165896
1033.983983	0.166570
1034.152206	0.168154
1034.320410	0.166698
1034.488596	0.167752
1034.656764	0.170174
1034.824914	0.171417
1034.993045	0.168063
1035.161158	0.167537
1035.329253	0.166572
1035.497330	0.167058
1035.665388	0.166397
1035.833428	0.168809
1036.001450	0.168061
1036.169454	0.165567
1036.337440	0.165425
1036.505407	0.167711
1036.673356	0.168835
1036.841287	0.170468
1037.009200	0.169935
1037.177094	0.171228
1037.344970	0.170778
1037.512828	0.170646
1037.680668	0.170964
1037.848489	0.170410
1038.016293	0.170153
1038.184078	0.168895
1038.351845	0.167567
1038.519593	0.167102
1038.687324	0.167066
1038.855036	0.166626
1039.022730	0.167288
1039.190406	0.169017
1039.358063	0.169611
1039.525702	0.168720
1039.693323	0.167695
1039.860926	0.168051
1040.028511	0.168390
1040.196077	0.167553
1040.363625	0.167439
1040.531155	0.167055
1040.698667	0.165524
1040.866161	0.165790
1041.033636	0.167275
1041.201093	0.169172
1041.368532	0.169915
1041.535952	0.169638
1041.703355	0.170496
1041.870739	0.170255
1042.038105	0.170316
1042.205452	0.168870
1042.372782	0.167705
1042.540093	0.166476
1042.707386	0.166402
1042.874661	0.166126
1043.041918	0.167497
1043.209156	0.165625
1043.376376	0.167776
1043.543578	0.168242
1043.710762	0.169094
1043.877927	0.168799
1044.045074	0.169605
1044.212203	0.167745
1044.379314	0.165870
1044.546407	0.164433
1044.713481	0.165730
1044.880537	0.163221
1045.047575	0.162006
1045.214595	0.163832
1045.381596	0.164441
1045.548579	0.164829
1045.715544	0.167363
1045.882491	0.169136
1046.049420	0.171924
1046.216330	0.171713
1046.383222	0.171667
1046.550096	0.171837
1046.716951	0.171715
1046.883789	0.172038
1047.050608	0.173419
1047.217409	0.171500
1047.384192	0.171342
1047.550956	0.167148
1047.717703	0.167998
1047.884431	0.166330
1048.051140	0.167984
1048.217832	0.166258
1048.384505	0.167439
1048.551161	0.164502
1048.717798	0.164260
1048.884416	0.162425
1049.051017	0.164155
1049.217599	0.163991
1049.384163	0.164899
1049.550709	0.163575
1049.717237	0.163251
1049.883746	0.162291
1050.050237	0.162700
1050.216710	0.164891
1050.383165	0.167032
1050.549601	0.167767
1050.716019	0.165716
1050.882420	0.167627
1051.048801	0.167613
1051.215165	0.168969
1051.381510	0.167844
1051.547837	0.169214
1051.714146	0.167510
1051.880437	0.165122
1052.046709	0.165126
1052.212964	0.165628
1052.379200	0.163407
1052.545417	0.161552
1052.711617	0.161247
1052.877798	0.162876
1053.043961	0.161836
1053.210106	0.163566
1053.376233	0.165685
1053.542341	0.165554
1053.708432	0.166226
1053.874504	0.168249
1054.040557	0.170149
1054.206593	0.170879
1054.372610	0.169082
1054.538609	0.169143
1054.704590	0.167306
1054.870553	0.167485
1055.036497	0.166422
1055.202424	0.165955
1055.368331	0.168143
1055.534221	0.167719
1055.700093	0.167248
1055.865946	0.169338
1056.031781	0.169574
1056.197598	0.171355
1056.363397	0.170765
1056.529177	0.171666
1056.694939	0.172328
1056.860683	0.170011
1057.026409	0.169412
1057.192116	0.168310
1057.357806	0.166860
1057.523477	0.167092
1057.689130	0.165488
1057.854764	0.164824
1058.020381	0.165529
1058.185979	0.166397
1058.351559	0.165346
1058.517120	0.164884
1058.682664	0.166127
1058.848189	0.166079
1059.013696	0.166267
1059.179185	0.168369
1059.344656	0.170295
1059.510108	0.169887
1059.675542	0.168363
1059.840958	0.168611
1060.006356	0.171582
1060.171735	0.173390
1060.337096	0.176055
1060.502439	0.174900
1060.667764	0.172098
1060.833071	0.170722
1060.998359	0.171161
1061.163629	0.173738
1061.328881	0.174323
1061.494115	0.172424
1061.659330	0.171844
1061.824527	0.169507
1061.989706	0.169409
1062.154867	0.169592
1062.320010	0.168879
1062.485134	0.169249
1062.650240	0.166740
1062.815328	0.165742
1062.980398	0.165954
1063.145449	0.167138
1063.310482	0.168516
1063.475497	0.168001
1063.640494	0.168645
1063.805473	0.169908
1063.970433	0.168022
1064.135375	0.167893
1064.300299	0.169383
1064.465204	0.167882
1064.630092	0.163517
1064.794961	0.161777
1064.959812	0.163359
1065.124645	0.162342
1065.289459	0.162612
1065.454256	0.164441
1065.619034	0.164015
1065.783793	0.162942
1065.948535	0.167574
1066.113258	0.167964
1066.277964	0.169413
1066.442651	0.169912
1066.607319	0.169736
1066.771970	0.169196
1066.936602	0.168526
1067.101216	0.171221
1067.265812	0.171677
1067.430389	0.169771
1067.594949	0.170119
1067.759490	0.170124
1067.924013	0.170347
1068.088518	0.169938
1068.253004	0.171113
1068.417472	0.170527
1068.581922	0.168891
1068.746354	0.170231
1068.910768	0.168608
1069.075163	0.171517
1069.239540	0.171534
1069.403899	0.169673
1069.568240	0.172700
1069.732562	0.171210
1069.896866	0.171535
1070.061152	0.171112
1070.225420	0.170093
1070.389670	0.171668
1070.553901	0.170685
1070.718114	0.170244
1070.882309	0.172905
1071.046486	0.170637
1071.210644	0.171650
1071.374784	0.171517
1071.538906	0.170067
1071.703010	0.170214
1071.867096	0.170184
1072.031163	0.168675
1072.195212	0.168045
1072.359243	0.166453
1072.523256	0.167749
1072.687250	0.165360
1072.851226	0.166348
1073.015184	0.170778
1073.179124	0.169746
1073.343045	0.169845
1073.506949	0.171027
1073.670834	0.170626
1073.834701	0.171201
1073.998549	0.173090
1074.162380	0.176133
1074.326192	0.175453
1074.489986	0.172798
1074.653761	0.172616
1074.817519	0.171833
1074.981258	0.172659
1075.144979	0.173134
1075.308682	0.171873
1075.472367	0.167995
1075.636033	0.165367
1075.799681	0.165343
1075.963311	0.167557
1076.126923	0.166253
1076.290516	0.166303
1076.454092	0.165867
1076.617649	0.165128
1076.781187	0.167228
1076.944708	0.169908
1077.108210	0.169477
1077.271695	0.169219
1077.435160	0.165401
1077.598608	0.170784
1077.762038	0.171061
1077.925449	0.169535
1078.088842	0.174253
1078.252217	0.173303
1078.415573	0.173429
1078.578912	0.178152
1078.742232	0.179314
1078.905534	0.182325
1079.068817	0.180075
1079.232083	0.180130
1079.395330	0.180790
1079.558559	0.178597
1079.721770	0.176175
1079.884962	0.175811
1080.048136	0.171380
1080.211293	0.170297
1080.374430	0.172730
1080.537550	0.173677
1080.700651	0.174314
1080.863735	0.175588
1081.026800	0.173685
1081.189846	0.175757
1081.352875	0.175726
1081.515885	0.179705
1081.678877	0.181957
1081.841851	0.179880
1082.004807	0.180548
1082.167744	0.182931
1082.330663	0.181138
1082.493564	0.183447
1082.656447	0.182264
1082.819312	0.181729
1082.982158	0.178163
1083.144986	0.175394
1083.307796	0.173948
1083.470587	0.172313
1083.633361	0.170530
1083.796116	0.171681
1083.958853	0.171102
1084.121571	0.172204
1084.284272	0.172204
1084.446954	0.175499
1084.609618	0.174629
1084.772264	0.177637
1084.934892	0.179024
1085.097501	0.177105
1085.260092	0.175697
1085.422665	0.176504
1085.585220	0.175648
1085.747756	0.179185
1085.910274	0.175984
1086.072774	0.180075
1086.235256	0.176784
1086.397720	0.175978
1086.560165	0.180352
1086.722592	0.178973
1086.885001	0.178246
1087.047392	0.180543
1087.209764	0.178957
1087.372119	0.181337
1087.534455	0.180390
1087.696772	0.181187
1087.859072	0.180893
1088.021353	0.180380
1088.183616	0.185684
1088.345861	0.186421
1088.508088	0.187884
1088.670296	0.188460
1088.832486	0.191299
1088.994658	0.191928
1089.156812	0.195229
1089.318948	0.194283
1089.481065	0.192868
1089.643164	0.190367
1089.805245	0.191019
1089.967308	0.186513
1090.129352	0.188985
1090.291378	0.186649
1090.453386	0.186813
1090.615376	0.181475
1090.777347	0.179618
1090.939301	0.181224
1091.101236	0.178671
1091.263153	0.178674
1091.425051	0.180663
1091.586932	0.175802
1091.748794	0.173658
1091.910638	0.175332
1092.072463	0.178645
1092.234271	0.183412
1092.396060	0.184238
1092.557831	0.186232
1092.719584	0.185338
1092.881319	0.184024
1093.043035	0.187567
1093.204733	0.189902
1093.366413	0.184707
1093.528075	0.187414
1093.689718	0.186095
1093.851343	0.178805
1094.012950	0.178732
1094.174539	0.174747
1094.336110	0.174255
1094.497662	0.171067
1094.659196	0.172992
1094.820712	0.175572
1094.982210	0.173217
1095.143689	0.175861
1095.305151	0.181710
1095.466594	0.186830
1095.628018	0.188668
1095.789425	0.195159
1095.950813	0.197858
1096.112183	0.198375
1096.273535	0.198341
1096.434869	0.198537
1096.596184	0.195633
1096.757482	0.194512
1096.918761	0.192532
1097.080021	0.193736
1097.241264	0.188087
1097.402488	0.185183
1097.563694	0.185299
1097.724882	0.189209
1097.886052	0.187957
1098.047203	0.184842
1098.208336	0.184613
1098.369451	0.183493
1098.530548	0.182212
1098.691627	0.182549
1098.852687	0.181842
1099.013729	0.179065
1099.174753	0.175061
1099.335758	0.180441
1099.496746	0.182830
1099.657715	0.185657
1099.818666	0.184017
1099.979599	0.193701
1100.140513	0.197431
1100.301409	0.203758
1100.462287	0.201966
1100.623147	0.198331
1100.783989	0.194534
1100.944812	0.194304
1101.105617	0.192228
1101.266404	0.194089
1101.427173	0.190488
1101.587923	0.191424
1101.748656	0.188407
1101.909370	0.188776
1102.070066	0.192173
1102.230743	0.187585
1102.391403	0.186222
1102.552044	0.186229
1102.712667	0.182014
1102.873271	0.184928
1103.033858	0.182128
1103.194426	0.179060
1103.354976	0.181637
1103.515508	0.180831
1103.676021	0.190341
1103.836517	0.191852
1103.996994	0.192821
1104.157453	0.197262
1104.317893	0.184503
1104.478316	0.185892
1104.638720	0.186530
1104.799106	0.187007
1104.959474	0.188376
1105.119823	0.181293
1105.280155	0.182499
1105.440468	0.179150
1105.600763	0.179027
1105.761039	0.182946
1105.921298	0.181882
1106.081538	0.186985
1106.241760	0.183683
1106.401964	0.181101
1106.562149	0.177970
1106.722316	0.178604
1106.882465	0.179190
1107.042596	0.180936
1107.202709	0.183529
1107.362803	0.181984
1107.522879	0.179255
1107.682937	0.182366
1107.842977	0.185838
1108.002999	0.193376
1108.163002	0.187348
1108.322987	0.189952
1108.482954	0.188919
1108.642902	0.191457
1108.802833	0.194825
1108.962745	0.191459
1109.122639	0.193553
1109.282515	0.192338
1109.442372	0.188159
1109.602211	0.196161
1109.762032	0.197961
1109.921835	0.193530
1110.081620	0.194240
1110.241386	0.195414
1110.401134	0.201950
1110.560864	0.200067
1110.720576	0.204705
1110.880269	0.208476
1111.039945	0.204977
1111.199602	0.205337
1111.359240	0.211214
1111.518861	0.207534
1111.678463	0.203268
1111.838047	0.196196
1111.997613	0.196729
1112.157161	0.188630
1112.316690	0.187576
1112.476202	0.188954
1112.635695	0.183293
1112.795169	0.180961
1112.954626	0.185529
1113.114064	0.189090
1113.273484	0.197188
1113.432886	0.193324
1113.592270	0.200802
1113.751635	0.203748
1113.910983	0.209568
1114.070312	0.213991
1114.229622	0.210261
1114.388915	0.211710
1114.548189	0.211951
1114.707445	0.208555
1114.866683	0.210256
1115.025903	0.208999
1115.185104	0.207275
1115.344287	0.199852
1115.503452	0.199316
1115.662599	0.204497
1115.821727	0.203704
1115.980838	0.198051
1116.139930	0.199764
1116.299004	0.199812
1116.458059	0.191679
1116.617097	0.186904
1116.776116	0.179205
1116.935117	0.177305
1117.094099	0.175645
1117.253064	0.169106
1117.412010	0.168185
1117.570938	0.167668
1117.729848	0.164192
1117.888740	0.172821
1118.047613	0.175558
1118.206468	0.180155
1118.365305	0.185093
1118.524124	0.190153
1118.682924	0.196499
1118.841707	0.195765
1119.000471	0.193468
1119.159216	0.194541
1119.317944	0.195624
1119.476653	0.197331
1119.635344	0.201867
1119.794017	0.191493
1119.952672	0.188120
1120.111308	0.185736
1120.269927	0.189872
1120.428527	0.192412
1120.587108	0.194078
1120.745672	0.188545
1120.904217	0.186853
1121.062744	0.193750
1121.221253	0.205460
1121.379744	0.203507
1121.538216	0.201638
1121.696671	0.199682
1121.855107	0.190201
1122.013524	0.192654
1122.171924	0.190669
1122.330305	0.188194
1122.488668	0.178237
1122.647013	0.172728
1122.805340	0.177073
1122.963648	0.177315
1123.121938	0.177187
1123.280210	0.184615
1123.438464	0.180591
1123.596700	0.186137
1123.754917	0.191236
1123.913116	0.196042
1124.071297	0.196792
1124.229459	0.194176
1124.387604	0.194560
1124.545730	0.201605
1124.703838	0.205633
1124.861928	0.208495
1125.019999	0.202141
1125.178052	0.201357
1125.336088	0.190582
1125.494104	0.194283
1125.652103	0.190857
1125.810083	0.191560
1125.968045	0.190712
1126.125989	0.182040
1126.283915	0.181380
1126.441823	0.187365
1126.599712	0.185766
1126.757583	0.207147
1126.915436	0.205273
1127.073270	0.205387
1127.231087	0.208077
1127.388885	0.203333
1127.546665	0.206260
1127.704426	0.209809
1127.862170	0.204699
1128.019895	0.205453
1128.177602	0.196893
1128.335291	0.196861
1128.492961	0.196533
1128.650614	0.190919
1128.808248	0.193520
1128.965864	0.194767
1129.123461	0.188841
1129.281041	0.196945
1129.438602	0.192403
1129.596145	0.191044
1129.753670	0.192960
1129.911176	0.194391
1130.068665	0.198728
1130.226135	0.206347
1130.383587	0.204662
1130.541020	0.205670
1130.698436	0.191238
1130.855833	0.194460
1131.013212	0.189784
1131.170573	0.184352
1131.327915	0.184539
1131.485239	0.182049
1131.642545	0.176124
1131.799833	0.180794
1131.957103	0.180661
1132.114354	0.194865
1132.271588	0.192626
1132.428803	0.200896
1132.585999	0.205127
1132.743178	0.206458
1132.900338	0.201688
1133.057480	0.197859
1133.214604	0.199706
1133.371710	0.204503
1133.528797	0.201061
1133.685866	0.211012
1133.842917	0.210225
1133.999950	0.211275
1134.156964	0.212124
1134.313960	0.221637
1134.470938	0.221848
1134.627898	0.223032
1134.784840	0.231155
1134.941763	0.226350
1135.098668	0.211946
1135.255555	0.199087
1135.412424	0.202315
1135.569274	0.214834
1135.726107	0.213474
1135.882921	0.220947
1136.039716	0.214277
1136.196494	0.207602
1136.353253	0.208392
1136.509995	0.213044
1136.666717	0.220767
1136.823422	0.220575
1136.980109	0.197936
1137.136777	0.193081
1137.293427	0.186538
1137.450059	0.192940
1137.606672	0.191037
1137.763267	0.193970
1137.919844	0.195247
1138.076403	0.195423
1138.232944	0.194657
1138.389466	0.198462
1138.545971	0.197234
1138.702457	0.199630
1138.858924	0.200494
1139.015374	0.202202
1139.171805	0.199962
1139.328218	0.218196
1139.484613	0.222348
1139.640990	0.220338
1139.797348	0.218463
1139.953688	0.224849
1140.110010	0.226834
1140.266314	0.212985
1140.422600	0.214152
1140.578867	0.219878
1140.735116	0.201107
1140.891347	0.199579
1141.047559	0.193763
1141.203754	0.203963
1141.359930	0.197885
1141.516088	0.190149
1141.672228	0.209086
1141.828349	0.207071
1141.984452	0.207987
1142.140537	0.214330
1142.296604	0.205641
1142.452653	0.213719
1142.608683	0.216130
1142.764695	0.220191
1142.920689	0.224894
1143.076665	0.218337
1143.232622	0.218332
1143.388562	0.217154
1143.544483	0.211098
1143.700385	0.218956
1143.856270	0.220868
1144.012136	0.215887
1144.167985	0.214356
1144.323814	0.223566
1144.479626	0.222923
1144.635420	0.233522
1144.791195	0.239393
1144.946952	0.231562
1145.102691	0.236740
1145.258411	0.229858
1145.414113	0.226351
1145.569798	0.221394
1145.725463	0.226861
1145.881111	0.216987
1146.036741	0.198993
1146.192352	0.182621
1146.347945	0.181531
1146.503519	0.180919
1146.659076	0.182036
1146.814614	0.184108
1146.970134	0.194953
1147.125636	0.188342
1147.281120	0.194495
1147.436585	0.199376
1147.592032	0.215446
1147.747461	0.223478
1147.902872	0.215981
1148.058265	0.216300
1148.213639	0.221509
1148.368995	0.211755
1148.524333	0.198896
1148.679653	0.199075
1148.834954	0.210540
1148.990237	0.202543
1149.145502	0.195878
1149.300749	0.204547
1149.455977	0.206596
1149.611188	0.209200
1149.766380	0.207139
1149.921553	0.223048
1150.076709	0.209022
1150.231846	0.197743
1150.386966	0.197811
1150.542066	0.207829
1150.697149	0.207104
1150.852214	0.208953
1151.007260	0.210595
1151.162288	0.211773
1151.317298	0.202813
1151.472289	0.228167
1151.627263	0.231447
1151.782218	0.248664
1151.937155	0.246133
1152.092073	0.236384
1152.246974	0.223649
1152.401856	0.220142
1152.556720	0.233856
1152.711566	0.238114
1152.866393	0.232727
1153.021203	0.242286
1153.175994	0.214633
1153.330767	0.232543
1153.485521	0.247005
1153.640258	0.244790
1153.794976	0.243234
1153.949676	0.232945
1154.104358	0.225705
1154.259021	0.226094
1154.413667	0.207454
1154.568294	0.222783
1154.722903	0.208145
1154.877493	0.209874
1155.032066	0.226100
1155.186620	0.230334
1155.341156	0.232680
1155.495674	0.237941
1155.650173	0.223650
1155.804654	0.240570
1155.959118	0.244920
1156.113562	0.228274
1156.267989	0.215544
1156.422397	0.217071
1156.576788	0.211608
1156.731160	0.214533
1156.885513	0.199528
1157.039849	0.213209
1157.194166	0.202473
1157.348465	0.196829
1157.502746	0.229247
1157.657009	0.228384
1157.811253	0.230555
1157.965479	0.236047
1158.119687	0.226737
1158.273877	0.235107
1158.428048	0.223718
1158.582201	0.225317
1158.736337	0.210829
1158.890453	0.192592
1159.044552	0.197283
1159.198632	0.176231
1159.352694	0.164361
1159.506738	0.168292
1159.660764	0.180630
1159.814771	0.175553
1159.968761	0.181311
1160.122732	0.198733
1160.276685	0.207266
1160.430619	0.200162
1160.584535	0.215767
1160.738434	0.233972
1160.892313	0.253865
1161.046175	0.241916
1161.200019	0.238968
1161.353844	0.247066
1161.507651	0.246279
1161.661440	0.247016
1161.815210	0.250214
1161.968962	0.230422
1162.122697	0.220432
1162.276412	0.198979
1162.430110	0.217758
1162.583789	0.227328
1162.737451	0.211364
1162.891094	0.204590
1163.044718	0.186376
1163.198325	0.198217
1163.351913	0.206342
1163.505483	0.220982
1163.659035	0.232010
1163.812569	0.216020
1163.966084	0.229147
1164.119581	0.230570
1164.273060	0.216609
1164.426521	0.222273
1164.579964	0.217782
1164.733388	0.222787
1164.886794	0.189084
1165.040182	0.180021
1165.193551	0.179652
1165.346903	0.154971
1165.500236	0.149547
1165.653551	0.168241
1165.806848	0.187372
1165.960126	0.184228
1166.113386	0.169521
1166.266628	0.177446
1166.419852	0.169537
1166.573058	0.156363
1166.726245	0.163157
1166.879414	0.175005
1167.032565	0.166297
1167.185698	0.151198
1167.338812	0.158382
1167.491909	0.171673
1167.644987	0.173338
1167.798046	0.192184
1167.951088	0.205170
1168.104111	0.202172
1168.257117	0.184967
1168.410103	0.206484
1168.563072	0.209377
1168.716023	0.207215
1168.868955	0.200358
1169.021869	0.204946
1169.174765	0.191927
1169.327642	0.190961
1169.480501	0.217208
1169.633343	0.232907
1169.786165	0.211884
1169.938970	0.200338
1170.091757	0.163579
1170.244525	0.163609
1170.397275	0.171636
1170.550007	0.175450
1170.702720	0.182435
1170.855415	0.185697
1171.008092	0.185700
1171.160751	0.184651
1171.313392	0.194363
1171.466014	0.402626
1171.618619	0.198490
1171.771205	0.198490
1171.923772	0.198490
