sample name	sample
index	981
start time	 04-14-2021  03:16:16 PM
880	0.210578
Peak Time (s)	100.537
Peak Height 	0.2106
calc peak height	100,103
Baseline Time (s)	8.536
Baseline Value 	-0.002931
subtract baseline	10,4
Abs	0.160170
Peak Time (s)	101.538
Peak Height 	0.1602
calc peak height	100,103
Baseline Time (s)	11.535
Baseline Value 	0.002929
subtract baseline	10,3
PK_550	0.102898
Peak Time (s)	102.035
Peak Height 	0.1029
calc peak height	100,103
Baseline Time (s)	8.536
Baseline Value 	3.3633E-4
subtract baseline	10,2
PK_880	0.163480
Peak Time (s)	100.037
Peak Height 	0.1635
calc peak height	100,103
Baseline Time (s)	11.535
Baseline Value 	4.8707E-4
subtract baseline	10,1


Time (s)	A880-A510	A880-A775	A880-A975	A880	I510	I775	I975	I880	
0.036500	0.001691	0.000610	-0.003081	0.001849	6321.230047	42143.252737	3952.210527	22149.052495
0.537500	-0.000923	-0.000393	-0.001948	0.002876	6292.677693	41960.302051	3952.471540	22103.580393
1.034500	-0.000959	-0.000295	-0.000418	0.003161	6290.178219	41943.607986	3955.548139	22091.008737
1.535500	0.002272	0.000305	-0.000346	0.001316	6330.022331	42163.859410	3960.299450	22172.704652
2.035000	-0.000361	-0.000294	-0.002110	0.000391	6316.557984	42193.322665	3958.217823	22213.803660
2.535500	0.001102	-0.000295	-0.004527	0.000604	6326.403606	42173.950498	3951.716010	22204.333560
3.036000	0.001200	0.000325	0.005456	-0.000192	6333.463778	42302.153354	3978.612267	22239.732412
3.535500	-0.000074	0.000069	-0.000310	0.000473	6318.172158	42218.686397	3962.483929	22210.131271
4.036000	0.000782	-0.000294	-0.001060	0.000367	6325.751217	42195.574585	3960.883909	22214.881092
4.536500	0.001882	-0.000373	0.003203	0.000556	6332.947459	42171.285250	3971.056403	22206.478338
5.036500	0.000323	-0.000201	0.000560	0.000224	6323.258314	42216.899293	3965.275262	22221.239566
5.537000	-0.000222	-0.000137	0.002003	0.000410	6317.503365	42205.841364	3968.414520	22212.953644
6.034500	0.001656	0.000759	-0.003360	0.001477	6323.884763	42190.253521	3952.439385	22165.534214
6.537500	0.002539	-0.000327	-0.001025	0.000319	6340.014251	42196.800632	3961.089768	22216.995219
7.035000	0.000489	-0.000004	0.000404	0.000693	6320.869316	42192.235285	3963.714077	22200.372242
7.535500	-0.001013	0.000411	-0.000649	0.000576	6309.986561	42240.375963	3961.384744	22205.563586
8.036000	-0.000524	-0.000177	-0.002892	0.000200	6316.778840	42221.160005	3956.751089	22222.275542
8.536000	0.001025	0.000000	-0.000789	0.000000	6330.560883	42255.308596	3962.470106	22231.192011
9.036500	0.000256	-0.000198	-0.000071	0.000078	6323.880910	42230.312231	3964.063069	22227.709878
9.536500	-0.000040	-0.000118	-0.002375	-0.000375	6325.118739	42278.667528	3959.460898	22247.908298
10.034000	0.001490	0.000474	0.000575	0.000017	6334.102579	42296.788050	3965.829356	22230.452628
10.534000	-0.001598	-0.000373	0.000333	-0.000350	6312.664549	42253.230773	3966.140633	22246.794411
11.038000	-0.000881	0.000609	0.000107	0.000312	6313.095736	42282.180981	3963.924446	22217.312387
11.535000	0.000000	0.000042	0.000000	-0.000220	6324.215899	42279.112093	3964.985089	22241.006506
12.035000	-0.003308	-0.000062	-0.000921	-0.000461	6300.127055	42291.524481	3963.288828	22251.736837
12.535500	-0.000678	0.000752	0.000971	0.001534	6305.095470	42184.501971	3963.030673	22163.013185
13.035500	0.000109	0.000546	0.000096	-0.000870	6330.206921	42383.805650	3966.847861	22269.978542
13.536000	-0.000790	0.000005	-0.007431	-0.000494	6320.144791	42300.517002	3947.272964	22253.191959
14.036500	0.000861	-0.000184	-0.002295	0.001207	6319.760047	42129.588302	3955.737026	22177.548416
14.536500	0.000202	-0.000423	-0.002981	0.001747	6310.329406	42059.278794	3952.710088	22153.588714
15.034500	-0.000153	0.000249	-0.002983	-0.000670	6326.557563	42338.614089	3958.683868	22261.043215
15.535000	0.001166	0.000959	-0.001305	0.000229	6329.868769	42321.528871	3960.616734	22221.011583
16.035000	0.001309	0.000284	0.004363	-0.000300	6335.179733	42308.242826	3976.125532	22244.562160
16.538000	-0.000441	-0.000361	0.001939	0.000047	6318.634967	42218.338109	3969.162992	22229.081856
17.036000	0.000117	0.000059	0.003453	-0.000595	6328.091942	42314.554426	3974.576516	22257.696985
17.535500	-0.000874	0.000808	0.000990	0.000612	6310.795032	42273.108846	3965.379388	22203.978487
18.036000	0.001854	-0.000106	-0.001405	0.000192	6335.597580	42228.365366	3960.461655	22222.666741
18.536000	-0.001266	-0.000211	-0.003005	0.000151	6311.333732	42222.488829	3956.592258	22224.456567
19.037000	0.000654	0.000367	0.002490	0.000450	6324.087536	42247.787119	3969.534672	22211.182530
19.537000	0.001837	-0.000038	0.002547	0.000897	6329.895203	42170.759862	3968.559598	22191.319387
20.035000	0.002270	0.000320	-0.000923	0.000804	6334.049564	42211.495738	3960.137916	22195.449849
20.537500	0.002564	0.000405	0.002958	0.001220	6333.082097	42181.584971	3968.779366	22176.969964
21.035500	-0.000794	-0.000514	-0.001875	0.000052	6315.820662	42204.032434	3959.641368	22228.871141
21.535500	-0.001225	0.000963	-0.000150	0.000917	6305.650228	42259.485408	3961.777459	22190.428190
22.036000	0.000363	0.000241	-0.001511	0.001062	6316.979883	42181.055517	3958.038267	22183.978118
22.536000	-0.001463	-0.000330	-0.000791	0.000115	6310.075002	42215.084247	3962.180020	22226.080893
23.035500	-0.000471	0.000091	-0.001910	0.000730	6313.028985	42197.456777	3957.872894	22198.729089
23.536500	-0.002227	0.000145	-0.002950	0.000311	6302.543474	42240.282450	3956.333811	22217.360245
24.036500	0.001479	0.001113	-0.005422	0.001369	6323.344235	42232.113873	3947.631579	22170.328402
24.537000	0.002944	0.000404	-0.002491	0.001120	6336.877951	42190.507380	3955.466925	22181.392749
25.035000	-0.002723	0.000668	-0.007418	0.000594	6296.450918	42262.017354	3944.639567	22204.767355
25.537500	0.000204	0.000207	-0.000274	0.000813	6317.687412	42200.467766	3961.728623	22195.052875
26.035000	0.000290	0.000805	-0.002112	0.001556	6312.517114	42187.316689	3955.325979	22162.053073
26.535500	0.000144	0.000346	-0.000412	0.000535	6319.405591	42238.208363	3962.077770	22207.411984
27.036000	-0.000987	0.000311	-0.001517	0.000584	6310.126832	42230.591212	3959.209130	22205.234656
27.535000	0.001797	0.000527	-0.000582	-0.001091	6345.307922	42402.177632	3965.706966	22279.836266
28.036000	-0.000204	0.001588	-0.000878	0.000291	6318.580766	42372.913341	3961.523590	22218.235533
28.536500	0.001605	0.000170	-0.002273	-0.000323	6337.699515	42299.936553	3959.584493	22245.571366
29.036500	0.001641	0.001293	-0.001906	-0.000008	6335.498665	42373.270784	3959.712667	22231.551263
29.537000	0.000896	0.000173	-0.001954	-0.000119	6330.488944	42281.757272	3959.869846	22236.500609
30.037500	0.001603	0.000157	0.003261	-0.000178	6336.532932	42285.616266	3973.045472	22239.104300
30.535000	0.000836	0.000460	0.002596	0.002912	6306.159975	42033.875676	3963.647890	22101.994570
31.035500	0.001775	-0.000150	0.002184	0.001689	6323.150554	42089.105955	3965.668425	22156.133748
31.535500	0.001307	0.000049	-0.000999	-0.000008	6332.859710	42260.528751	3961.968738	22231.567447
32.036000	-0.000151	0.001417	0.000215	0.000438	6317.839195	42344.050182	3963.877797	22211.694924
32.536000	-0.001005	0.000152	-0.005594	0.001454	6303.166663	42137.639178	3947.001881	22166.589292
33.036500	0.000393	0.000522	0.000218	-0.000459	6329.197753	42344.187439	3966.124934	22251.614894
33.537000	0.000871	0.000239	0.000846	-0.000947	6336.833533	42362.907123	3968.916112	22273.396848
34.037500	-0.000681	0.000146	-0.002034	0.000090	6316.406695	42260.325941	3959.151877	22227.168247
34.535000	-0.000177	0.000750	-0.003324	0.002404	6302.207200	42105.848691	3950.245885	22124.481675
35.035000	0.000264	-0.000002	-0.001923	0.000726	6318.838777	42189.399364	3957.850585	22198.905870
35.535000	-0.000012	0.000419	-0.003316	0.000912	6315.201228	42210.650755	3953.943094	22190.620582
36.035500	0.001143	-0.000097	0.000516	0.000885	6324.513585	42166.464855	3963.515051	22191.831659
36.535500	-0.000621	0.000414	0.002124	0.002306	6299.502582	42084.347541	3963.982370	22128.816986
37.036000	0.000679	-0.000284	-0.003348	0.000874	6320.942440	42150.551502	3953.956985	22192.311867
37.536500	-0.000584	0.000464	-0.000449	0.000929	6310.574176	42213.188597	3961.004423	22189.866671
38.036500	0.001027	0.000066	-0.000693	0.000930	6323.238402	42177.147872	3960.395176	22189.828712
38.537000	0.000255	0.001028	-0.001355	0.003232	6299.108994	42056.181653	3953.056223	22087.853486
39.037000	0.000733	0.001273	0.000623	0.002248	6310.564541	42167.080954	3960.391716	22131.379855
39.537500	0.002638	0.000422	-0.002055	0.001443	6331.909239	42162.981614	3955.747768	22167.085922
40.035000	-0.000630	-0.000128	0.000120	0.001036	6309.376218	42150.008773	3962.152443	22185.115255
40.535500	0.000618	0.000463	0.003164	0.002271	6309.476024	42091.924280	3966.663105	22130.351127
41.035000	0.001754	0.000032	0.003540	0.001255	6326.412006	42144.632502	3970.147379	22175.391334
41.538000	0.002312	0.001294	0.000339	0.001811	6326.422826	42208.525710	3960.769179	22150.735776
42.036000	-0.000051	0.000420	-0.001817	0.001036	6313.927182	42199.610955	3957.345377	22185.132645
42.536500	0.000738	0.000175	-0.000501	0.001248	6318.463964	42158.259839	3960.084570	22175.738343
43.037000	-0.000798	0.000472	0.003903	0.001096	6307.584273	42198.760643	3971.457691	22182.444550
43.537000	-0.000419	-0.000144	-0.003080	0.000329	6316.590445	42212.467339	3955.966039	22216.545095
44.043000	-0.000340	-0.000211	0.000395	-0.000605	6324.572529	42291.045675	3966.932535	22258.154181
44.535000	0.004436	0.000796	0.001726	0.001434	6346.205476	42197.555526	3965.163838	22167.452214
45.035000	0.002167	-0.000035	0.001552	-0.000429	6342.997830	42291.053732	3969.386960	22250.318147
45.535500	0.000111	0.001266	0.002980	-0.000278	6325.540589	42395.308491	3972.589634	22243.553526
46.035500	0.000888	0.000747	0.000369	-0.000891	6336.524187	42403.999563	3967.583852	22270.915496
46.536000	0.001678	0.001072	-0.001760	0.001407	6324.613835	42225.020921	3956.566936	22168.672793
47.035500	-0.000508	0.000923	0.001350	0.000915	6311.287584	42255.984333	3965.520042	22190.483990
47.536500	0.002676	0.000984	0.003314	0.001015	6335.594814	42252.575746	3970.184870	22186.080124
48.039500	-0.000422	0.000263	0.000566	0.000519	6315.073705	42232.146686	3964.551199	22208.089488
48.534000	0.000170	0.001150	-0.006621	0.003702	6294.771871	42024.905512	3938.996739	22067.112205
49.036500	0.000457	0.000634	-0.003219	-0.000498	6330.007904	42357.931214	3957.671321	22253.366937
49.535500	0.001710	0.000234	-0.001829	-0.001041	6344.219108	42370.972794	3962.471914	22277.586838
50.035500	0.003264	0.000821	0.001277	-0.003372	6375.155865	42636.852102	3976.090364	22381.875892
50.535500	-0.002345	0.000191	-0.001106	0.020505	6147.126916	40457.931871	3911.862760	21339.643596
51.039000	0.031356	0.000655	0.011063	0.019649	6415.963590	40572.186879	3943.234287	21376.027046
51.536000	0.019572	-0.016440	0.015000	0.261835	4859.703727	23647.386435	3494.910246	13477.936028
52.039000	-0.001936	-0.019070	-0.022127	0.058794	5876.005348	35799.584704	3780.328834	19783.424056
52.536500	-0.024617	-0.083095	-0.054715	-0.279145	9048.966876	64695.741993	4697.189928	39663.490941
53.037000	-0.011835	-0.150620	-0.041219	-0.352532	10398.178052	65535.000000	5099.316756	46431.672451
53.540000	-0.009390	-0.078514	-0.031344	-0.275126	9209.688322	64775.663289	4779.926604	39324.801004
54.034500	-0.005668	-0.065514	-0.031367	-0.258979	9031.761618	64329.109294	4710.540376	37995.362868
54.535000	-0.006148	-0.044420	-0.031385	-0.228739	8613.089317	63049.432284	4587.440165	35634.724153
55.038500	0.000072	-0.038237	-0.025204	-0.220319	8584.224158	62740.553661	4578.667392	35006.136637
55.535500	-0.001697	-0.044660	-0.028602	-0.231682	8711.171221	63424.781783	4610.082194	35857.287950
56.038500	0.005610	-0.038655	-0.024535	-0.221094	8667.448348	62789.795397	4584.320738	35063.511979
56.536500	0.004584	-0.018645	-0.023563	-0.167816	7989.692947	58375.081877	4391.098531	31350.056727
57.039000	0.010618	-0.010420	-0.015209	-0.133564	7669.578056	55149.532423	4303.706426	29192.352630
57.536500	0.012865	-0.006410	-0.009828	-0.115183	7495.684911	53449.666085	4261.764783	28102.752543
58.037000	0.017089	-0.002572	-0.006187	-0.095640	7336.443990	51655.124549	4212.135058	26993.720556
58.537500	0.019168	0.000851	-0.000323	-0.066630	7069.760931	48867.069827	4143.072296	25436.808296
59.038000	0.024416	0.005302	0.007700	-0.034687	6821.245163	46048.828195	4075.464767	23838.584772
59.535000	0.030897	0.009727	0.016943	-0.021182	6758.356504	45156.569215	4063.802473	23197.459655
60.038500	0.036736	0.013945	0.024072	-0.008344	6696.697473	44326.652584	4048.364975	22606.233548
60.536000	0.039750	0.017740	0.033989	0.033540	6371.751820	40850.076858	3965.554986	20794.366881
61.038000	0.049929	0.023202	0.040395	0.047587	6340.983448	40107.768895	3946.648690	20224.814464
61.536500	0.057506	0.028252	0.045567	0.074494	6191.234631	38282.690970	3894.650109	19183.940911
62.036000	0.067962	0.035045	0.062507	0.102644	6059.886955	36585.948452	3868.832002	18161.863923
62.537000	0.073752	0.037785	0.066507	0.114178	6018.384399	35911.157838	3851.850911	17761.840937
63.040000	0.084817	0.044648	0.077958	0.123563	6030.461801	35720.107351	3856.477731	17444.082901
63.534500	0.092581	0.047552	0.089257	0.138947	5976.034982	34791.099956	3847.350922	16937.873345
64.035000	0.102065	0.054088	0.096429	0.134018	6079.795597	35643.529200	3874.641253	17098.102136
64.538000	0.105286	0.056772	0.099906	0.149286	5992.829557	34709.049037	3848.039507	16607.587356
65.034500	0.111633	0.061549	0.106286	0.166760	5914.634111	33793.256917	3823.661246	16066.970642
65.535500	0.114961	0.063735	0.111304	0.179223	5851.907709	33071.409782	3807.647706	15694.457048
66.036000	0.126325	0.065569	0.117260	0.187087	5875.778859	32655.637612	3803.586048	15464.828457
66.536500	0.133829	0.068810	0.128477	0.206063	5798.241928	31597.770540	3787.259666	14927.607816
67.036000	0.133910	0.068484	0.125276	0.215101	5739.100357	30986.048842	3762.087695	14679.849205
67.537000	0.140132	0.073376	0.134253	0.232258	5668.539801	30204.733311	3745.657100	14223.528127
68.037500	0.138344	0.070381	0.131477	0.252536	5531.443007	28781.182288	3700.975387	13706.890996
68.535000	0.135126	0.069608	0.131007	0.250601	5523.686473	28850.508622	3703.746047	13755.163969
69.036000	0.135470	0.073549	0.130919	0.252096	5516.744635	28996.945911	3700.754569	13717.860469
69.535000	0.141613	0.075763	0.134386	0.250483	5563.874912	29227.765049	3710.395726	13758.124835
70.047500	0.143722	0.077391	0.142094	0.250337	5577.734774	29335.353652	3725.521792	13761.762815
70.539000	0.142493	0.078088	0.138111	0.253579	5550.318222	29181.008842	3711.593649	13680.962579
71.036000	0.143369	0.080424	0.139044	0.249131	5583.001171	29594.437355	3721.944358	13791.971406
71.537000	0.147454	0.083071	0.141328	0.247674	5617.438517	29847.621028	3729.215609	13828.571076
72.036000	0.145325	0.083313	0.138509	0.245247	5619.303784	30013.605845	3728.450991	13889.823930
72.540000	0.142134	0.083953	0.135521	0.251565	5560.432971	29661.762387	3710.493396	13731.080667
73.035000	0.147510	0.086386	0.142121	0.246395	5625.799909	30133.950692	3733.271122	13860.809750
73.535000	0.146849	0.088560	0.149370	0.249716	5600.929868	30062.157579	3741.008952	13777.296933
74.036000	0.150799	0.087463	0.147873	0.246394	5646.520579	30201.589569	3744.628612	13860.834687
74.535500	0.148531	0.089421	0.144469	0.249178	5614.767446	30149.788916	3732.418437	13790.792033
75.036000	0.148283	0.089777	0.147021	0.240963	5665.010802	30692.408201	3753.778557	13998.788987
75.536000	0.153053	0.089503	0.144311	0.237689	5716.675887	30884.893733	3754.912531	14082.782012
76.036000	0.152837	0.091172	0.149028	0.235719	5728.072835	31120.133307	3768.465775	14133.616739
76.536000	0.148463	0.090292	0.146476	0.237186	5690.311290	30968.258278	3760.295707	14095.745739
77.039500	0.152627	0.092703	0.152136	0.231855	5751.954756	31472.622308	3782.820906	14234.028282
77.536500	0.158322	0.094612	0.155016	0.232289	5786.703424	31569.794679	3787.912859	14222.715498
78.037500	0.153642	0.095068	0.152867	0.230783	5765.688132	31699.464239	3786.570392	14262.048386
78.535000	0.152528	0.094546	0.148574	0.234421	5734.518366	31425.171558	3770.191266	14167.267336
79.035500	0.155483	0.096059	0.151887	0.229216	5788.255097	31869.451953	3787.794532	14303.111152
79.536000	0.154541	0.096617	0.156295	0.228474	5786.925664	31956.214851	3798.605433	14322.617955
80.036000	0.158773	0.097072	0.155082	0.226922	5825.621671	32090.772299	3799.323248	14363.531489
80.536000	0.157634	0.098725	0.151642	0.230465	5794.262967	31964.102395	3784.682920	14270.375666
81.036500	0.160825	0.100650	0.155765	0.226032	5845.492615	32392.336685	3802.652976	14387.028970
81.536500	0.162476	0.100395	0.151326	0.223313	5875.274102	32559.992278	3799.013400	14459.197963
82.037000	0.161046	0.101476	0.154501	0.222981	5867.762486	32656.589273	3806.453329	14468.041546
82.535000	0.157767	0.100016	0.155177	0.226075	5824.545457	32346.435641	3801.315311	14385.905313
83.035000	0.159605	0.100762	0.158722	0.220602	5874.179508	32770.797259	3820.616044	14531.582604
83.535000	0.162667	0.102655	0.161130	0.221473	5889.210251	32841.108085	3823.944946	14508.260461
84.035500	0.162351	0.100895	0.157794	0.220951	5890.632769	32755.949752	3817.859586	14522.243292
84.536000	0.156949	0.100637	0.154837	0.224961	5826.538248	32464.207306	3802.956506	14415.397685
85.036000	0.160707	0.101971	0.153766	0.222044	5871.849652	32754.760730	3806.881211	14493.007299
85.536500	0.159609	0.102447	0.156175	0.222915	5858.412431	32727.606909	3810.163602	14469.780963
86.037000	0.163999	0.103188	0.156128	0.223642	5883.458761	32728.637141	3808.510684	14450.440470
86.540000	0.157156	0.101084	0.155966	0.227987	5807.616293	32289.328865	3798.939777	14335.441661
87.034500	0.162864	0.102083	0.159786	0.223701	5875.269804	32648.788704	3816.224019	14448.852064
87.537000	0.164403	0.101597	0.155567	0.224316	5881.606290	32573.543773	3805.878871	14432.513680
88.035000	0.162632	0.102066	0.160218	0.224388	5868.984456	32600.691734	3815.675778	14430.603379
88.535500	0.160377	0.101577	0.149494	0.226662	5838.195085	32412.429725	3788.129323	14370.373990
89.035500	0.161196	0.101459	0.150334	0.223090	5868.035962	32647.916530	3797.388282	14465.117173
89.535500	0.162985	0.101223	0.153772	0.222629	5883.448731	32663.370981	3805.649032	14477.407513
90.036500	0.160928	0.102587	0.151773	0.222505	5870.208649	32765.442301	3801.668434	14480.727240
90.536500	0.158021	0.102288	0.151261	0.225115	5832.731152	32566.218476	3795.075474	14411.315501
91.037000	0.164638	0.104804	0.154010	0.222527	5895.528159	32916.641757	3806.372406	14480.132788
91.537000	0.159696	0.103275	0.160496	0.220139	5877.966073	32975.964950	3825.465180	14543.979191
92.037500	0.162910	0.103754	0.156684	0.220577	5897.059870	32978.795030	3816.272631	14532.238692
92.535000	0.162573	0.104462	0.155275	0.219901	5899.392690	33074.776164	3814.695230	14550.357156
93.035000	0.163635	0.104429	0.163314	0.219146	5911.970600	33124.922209	3833.786936	14570.642118
93.535500	0.164342	0.103125	0.159511	0.217388	5929.109848	33156.527044	3829.313318	14617.988273
94.035500	0.162096	0.104009	0.154393	0.217382	5913.530820	33218.537274	3818.220661	14618.146830
94.536000	0.160179	0.103366	0.158050	0.216382	5907.179116	33243.527797	3828.319911	14645.173790
95.036000	0.162309	0.103660	0.156827	0.216400	5921.830798	33262.791473	3825.618899	14644.688411
95.536500	0.163773	0.103956	0.161190	0.215682	5937.039164	33333.685092	3836.729578	14664.107831
96.039500	0.161974	0.103716	0.163136	0.214975	5929.416082	33366.368646	3842.581502	14683.271269
96.537000	0.161724	0.102697	0.155567	0.214552	5930.629010	33324.668731	3826.897503	14694.768387
97.035000	0.163319	0.102645	0.159803	0.213456	5949.450517	33397.794622	3838.575961	14724.562194
97.535000	0.162293	0.103465	0.156267	0.212648	5947.924191	33512.237625	3832.582936	14746.589697
98.035500	0.162912	0.103354	0.161678	0.212555	5952.919435	33510.938025	3844.714064	14749.115989
98.535500	0.162555	0.101906	0.155123	0.212301	5952.204545	33426.990596	3830.839783	14756.069908
99.036000	0.162444	0.102532	0.152541	0.210673	5962.875831	33585.677527	3828.754559	14800.581386
99.536500	0.161063	0.101722	0.155321	0.209322	5962.663523	33623.967115	3837.809243	14837.675822
100.036500	0.163480	0.101930	0.156698	0.209191	5980.678833	33647.889339	3841.136028	14841.263660
100.537000	0.161485	0.102618	0.156757	0.210578	5956.794688	33598.508918	3838.206916	14803.210343
101.037500	0.161124	0.102631	0.158723	0.208546	5968.568822	33743.310056	3847.054001	14859.021697
101.537500	0.161980	0.101440	0.160170	0.206862	5986.566147	33778.341826	3854.042000	14905.504058
102.034500	0.161452	0.102898	0.159546	0.207902	5975.438622	33807.956565	3850.320383	14876.767284
102.535500	0.161396	0.102430	0.157312	0.207498	5977.909045	33803.441354	3846.247605	14887.925361
103.035500	0.162942	0.101679	0.161586	0.205971	5999.758944	33858.699868	3859.223069	14930.165300
103.536000	0.162925	0.102938	0.156506	0.206674	5994.625950	33898.332526	3846.288247	14910.689689
104.036000	0.164819	0.102384	0.155792	0.206150	6011.888028	33896.123855	3845.865098	14925.180729
104.535500	0.163400	0.102854	0.158173	0.207340	5993.267366	33844.902314	3848.515777	14892.298722
105.036500	0.162709	0.102882	0.157401	0.206554	5993.940605	33902.881613	3848.545230	14914.017207
105.540000	0.163595	0.102521	0.160418	0.206305	6002.036279	33894.899530	3855.847139	14920.914333
106.036500	0.164866	0.102734	0.159219	0.206765	6007.828975	33877.284877	3852.132356	14908.184004
106.535000	0.161535	0.102403	0.153952	0.211030	5953.967389	33551.459831	3831.059620	14790.826656
107.035000	0.162194	0.102402	0.158565	0.206710	5989.162462	33857.525714	3850.793572	14909.696156
107.535000	0.163366	0.102615	0.153402	0.207020	5995.297855	33850.639581	3838.654405	14901.121310
108.035500	0.164826	0.102243	0.161752	0.207176	6004.604481	33813.053672	3856.886679	14896.821888
108.535500	0.162556	0.101865	0.155274	0.207900	5983.283498	33734.744083	3840.842189	14876.831746
109.036000	0.164488	0.102859	0.159723	0.207560	5999.451574	33829.597132	3851.481331	14886.220664
109.539000	0.161154	0.102750	0.160007	0.207541	5975.890116	33823.160709	3852.155956	14886.727131
110.034000	0.163070	0.102792	0.157677	0.208089	5985.587316	33787.117933	3845.745031	14871.609026
110.536500	0.161993	0.102403	0.159060	0.211602	5953.163118	33511.093409	3841.027839	14775.156908
111.037000	0.165965	0.102078	0.155930	0.207757	6008.593571	33760.066890	3842.610508	14880.783289
111.535000	0.163459	0.102398	0.159330	0.208233	5987.329557	33749.001875	3849.103163	14867.651771
112.035000	0.162540	0.101992	0.159005	0.208341	5980.042650	33712.489046	3848.138538	14864.667801
112.535500	0.159950	0.102782	0.155568	0.212649	5931.523599	33464.118719	3831.051203	14746.567617
