sample name	sample
index	1437
start time	 05-10-2021  12:51:44 PM


Wavelength (nm)	Absorbance
494.344910	-0.085799
494.563924	-0.085799
494.782919	-0.085799
495.001897	0.025729
495.220856	-0.032844
495.439797	-0.021405
495.658719	-0.012597
495.877624	-0.004250
496.096510	-0.009290
496.315378	-0.013672
496.534227	-0.009109
496.753059	-0.010689
496.971872	-0.006329
497.190667	0.042615
497.409444	0.068948
497.628203	0.081208
497.846943	0.087483
498.065665	0.091970
498.284369	0.094412
498.503055	0.095163
498.721723	0.095328
498.940372	0.095508
499.159003	0.095773
499.377616	0.095630
499.596210	0.094687
499.814787	0.093710
500.033345	0.092932
500.251885	0.093640
500.470406	0.094378
500.688910	0.095537
500.907395	0.096357
501.125862	0.096857
501.344311	0.097379
501.562742	0.097455
501.781154	0.097809
501.999548	0.097509
502.217924	0.097785
502.436282	0.097286
502.654621	0.096787
502.872942	0.097176
503.091245	0.097159
503.309530	0.096673
503.527797	0.097394
503.746045	0.097761
503.964275	0.098439
504.182487	0.098202
504.400681	0.099324
504.618856	0.098714
504.837013	0.098290
505.055152	0.098136
505.273273	0.098850
505.491376	0.098522
505.709460	0.097980
505.927526	0.097985
506.145574	0.097449
506.363604	0.096286
506.581615	0.096401
506.799608	0.096850
507.017583	0.096599
507.235540	0.095401
507.453478	0.095182
507.671399	0.096271
507.889301	0.096848
508.107185	0.097128
508.325050	0.097968
508.542898	0.099773
508.760727	0.099788
508.978538	0.100265
509.196330	0.101702
509.414105	0.100961
509.631861	0.100659
509.849599	0.099720
510.067319	0.099731
510.285021	0.099488
510.502704	0.099508
510.720369	0.099423
510.938016	0.099234
511.155645	0.099383
511.373255	0.100449
511.590848	0.100417
511.808422	0.101127
512.025977	0.100144
512.243515	0.101028
512.461034	0.100323
512.678536	0.100519
512.896018	0.101259
513.113483	0.100834
513.330930	0.101608
513.548358	0.101645
513.765768	0.101557
513.983160	0.102349
514.200533	0.101772
514.417889	0.102132
514.635226	0.103007
514.852545	0.102712
515.069845	0.102752
515.287128	0.102215
515.504392	0.102296
515.721638	0.101972
515.938866	0.102498
516.156075	0.103252
516.373267	0.103160
516.590440	0.102447
516.807594	0.101727
517.024731	0.102124
517.241850	0.102218
517.458950	0.102550
517.676032	0.103403
517.893095	0.103611
518.110141	0.102870
518.327168	0.103094
518.544177	0.103052
518.761168	0.104248
518.978141	0.104025
519.195095	0.103600
519.412031	0.103869
519.628949	0.103141
519.845849	0.103174
520.062731	0.103650
520.279594	0.103453
520.496439	0.103393
520.713266	0.103676
520.930074	0.103724
521.146865	0.104209
521.363637	0.104766
521.580391	0.105640
521.797127	0.105377
522.013844	0.105470
522.230543	0.105609
522.447224	0.105894
522.663887	0.105854
522.880532	0.105763
523.097158	0.105992
523.313766	0.105934
523.530356	0.105913
523.746928	0.105901
523.963481	0.106474
524.180017	0.106148
524.396534	0.106230
524.613032	0.105802
524.829513	0.105910
525.045975	0.106123
525.262420	0.105817
525.478845	0.106431
525.695253	0.107324
525.911643	0.106286
526.128014	0.106931
526.344367	0.106961
526.560702	0.107316
526.777018	0.108638
526.993316	0.109210
527.209597	0.109048
527.425858	0.108266
527.642102	0.108175
527.858328	0.108391
528.074535	0.108759
528.290724	0.110015
528.506894	0.110374
528.723047	0.109682
528.939181	0.109600
529.155297	0.109756
529.371395	0.110777
529.587475	0.111008
529.803536	0.112112
530.019579	0.111686
530.235604	0.110399
530.451611	0.110666
530.667600	0.110525
530.883570	0.110811
531.099522	0.111364
531.315456	0.110609
531.531372	0.110492
531.747269	0.110019
531.963148	0.110583
532.179009	0.111223
532.394852	0.111622
532.610676	0.112588
532.826482	0.112474
533.042271	0.112555
533.258040	0.113138
533.473792	0.112982
533.689525	0.113458
533.905240	0.113013
534.120937	0.113037
534.336616	0.112725
534.552277	0.112099
534.767919	0.112541
534.983543	0.112661
535.199149	0.113150
535.414736	0.113337
535.630306	0.113078
535.845857	0.113395
536.061390	0.114016
536.276904	0.114396
536.492401	0.114385
536.707879	0.114467
536.923339	0.114217
537.138781	0.113888
537.354204	0.114436
537.569610	0.114994
537.784997	0.115625
538.000366	0.115648
538.215716	0.115507
538.431049	0.115611
538.646363	0.115496
538.861659	0.116303
539.076937	0.116522
539.292196	0.116411
539.507438	0.116816
539.722661	0.116879
539.937866	0.116433
540.153052	0.116567
540.368221	0.117172
540.583371	0.116919
540.798503	0.117014
541.013617	0.117062
541.228712	0.117706
541.443789	0.117156
541.658848	0.117156
541.873889	0.117712
542.088912	0.118264
542.303916	0.118819
542.518902	0.119407
542.733870	0.119411
542.948820	0.119653
543.163752	0.118959
543.378665	0.119570
543.593560	0.119831
543.808437	0.120166
544.023295	0.119809
544.238136	0.119111
544.452958	0.119061
544.667762	0.119103
544.882548	0.119363
545.097315	0.119515
545.312064	0.119519
545.526795	0.119397
545.741508	0.119293
545.956203	0.119504
546.170879	0.119837
546.385537	0.120140
546.600177	0.119592
546.814799	0.119418
547.029402	0.119531
547.243988	0.119589
547.458555	0.119154
547.673103	0.119112
547.887634	0.119569
548.102146	0.119559
548.316640	0.119495
548.531116	0.120073
548.745574	0.120011
548.960013	0.120490
549.174435	0.120274
549.388838	0.121141
549.603222	0.121446
549.817589	0.121183
550.031937	0.121334
550.246267	0.121857
550.460579	0.121964
550.674873	0.122237
550.889148	0.122516
551.103405	0.122807
551.317644	0.122455
551.531865	0.122592
551.746068	0.122524
551.960252	0.122559
552.174418	0.122107
552.388566	0.122384
552.602696	0.122741
552.816807	0.122144
553.030900	0.122246
553.244975	0.122577
553.459032	0.122989
553.673070	0.123106
553.887091	0.123380
554.101093	0.123348
554.315077	0.123174
554.529042	0.123042
554.742990	0.123201
554.956919	0.123269
555.170830	0.123309
555.384722	0.122904
555.598597	0.123019
555.812453	0.123048
556.026291	0.123575
556.240111	0.123810
556.453913	0.124272
556.667696	0.124757
556.881461	0.124989
557.095208	0.125108
557.308937	0.125203
557.522647	0.125560
557.736339	0.125504
557.950013	0.125390
558.163669	0.125305
558.377307	0.124973
558.590926	0.124890
558.804527	0.124664
559.018110	0.124485
559.231675	0.124329
559.445221	0.124447
559.658749	0.124713
559.872259	0.124454
560.085751	0.124144
560.299225	0.124117
560.512680	0.123971
560.726117	0.124133
560.939536	0.124258
561.152937	0.124494
561.366319	0.124001
561.579683	0.124032
561.793029	0.124566
562.006357	0.125167
562.219667	0.125196
562.432958	0.125680
562.646231	0.125922
562.859486	0.125897
563.072723	0.125967
563.285941	0.126450
563.499141	0.126787
563.712323	0.127044
563.925487	0.127188
564.138632	0.127442
564.351760	0.127561
564.564869	0.127909
564.777960	0.128412
564.991032	0.128049
565.204087	0.128191
565.417123	0.128193
565.630141	0.128064
565.843140	0.128080
566.056122	0.128270
566.269085	0.127838
566.482030	0.127216
566.694957	0.127029
566.907866	0.127334
567.120756	0.127224
567.333628	0.126892
567.546482	0.126825
567.759318	0.126628
567.972135	0.126294
568.184935	0.126248
568.397716	0.126466
568.610478	0.126381
568.823223	0.126539
569.035949	0.126654
569.248657	0.126892
569.461347	0.126970
569.674019	0.127388
569.886672	0.127798
570.099308	0.128194
570.311925	0.128245
570.524523	0.128495
570.737104	0.128536
570.949666	0.128387
571.162210	0.128544
571.374736	0.128422
571.587244	0.128353
571.799733	0.128286
572.012205	0.128179
572.224658	0.128240
572.437092	0.128606
572.649509	0.128692
572.861907	0.129078
573.074287	0.129569
573.286649	0.129714
573.498993	0.129780
573.711318	0.129892
573.923625	0.130456
574.135914	0.130821
574.348185	0.130662
574.560438	0.130977
574.772672	0.131023
574.984888	0.130736
575.197086	0.130822
575.409266	0.130891
575.621427	0.131187
575.833570	0.131449
576.045695	0.131373
576.257802	0.131748
576.469890	0.131761
576.681961	0.131965
576.894013	0.132114
577.106046	0.132210
577.318062	0.132503
577.530059	0.132583
577.742039	0.132698
577.954000	0.132936
578.165942	0.132786
578.377867	0.132808
578.589773	0.132977
578.801661	0.132752
579.013531	0.132905
579.225382	0.132763
579.437216	0.132814
579.649031	0.132602
579.860828	0.132582
580.072606	0.132893
580.284367	0.133134
580.496109	0.133074
580.707833	0.133407
580.919539	0.133822
581.131227	0.133869
581.342896	0.133761
581.554547	0.133553
581.766180	0.134044
581.977795	0.134527
582.189391	0.134834
582.400969	0.135137
582.612529	0.135137
582.824071	0.135030
583.035595	0.135338
583.247100	0.135546
583.458587	0.135951
583.670056	0.135587
583.881506	0.135134
584.092939	0.135392
584.304353	0.135478
584.515749	0.135995
584.727127	0.136319
584.938486	0.136350
585.149828	0.136706
585.361151	0.137221
585.572456	0.137612
585.783742	0.138097
585.995011	0.138056
586.206261	0.138285
586.417493	0.138095
586.628706	0.138269
586.839902	0.138764
587.051079	0.138780
587.262238	0.138547
587.473379	0.138393
587.684502	0.138205
587.895606	0.138137
588.106692	0.138054
588.317760	0.138319
588.528810	0.138023
588.739841	0.137785
588.950855	0.137880
589.161850	0.138018
589.372827	0.138232
589.583785	0.138519
589.794726	0.138560
590.005648	0.138548
590.216552	0.138658
590.427437	0.139081
590.638305	0.139319
590.849154	0.139303
591.059985	0.138884
591.270798	0.138962
591.481592	0.139132
591.692369	0.139257
591.903127	0.139453
592.113867	0.139377
592.324588	0.139525
592.535292	0.139348
592.745977	0.139262
592.956644	0.139652
593.167293	0.139688
593.377923	0.139510
593.588536	0.139832
593.799130	0.139597
594.009706	0.139511
594.220263	0.139390
594.430803	0.139823
594.641324	0.140430
594.851827	0.140770
595.062312	0.140770
595.272778	0.140735
595.483227	0.140689
595.693657	0.140828
595.904069	0.141159
596.114462	0.141177
596.324838	0.141123
596.535195	0.140947
596.745534	0.141066
596.955855	0.141105
597.166157	0.141352
597.376441	0.141553
597.586707	0.141821
597.796955	0.141948
598.007185	0.142429
598.217396	0.142492
598.427589	0.142673
598.637764	0.142858
598.847921	0.143097
599.058060	0.143204
599.268180	0.143398
599.478282	0.143278
599.688366	0.143378
599.898431	0.143273
600.108479	0.143422
600.318508	0.143422
600.528519	0.143303
600.738511	0.143272
600.948486	0.143358
601.158442	0.143319
601.368380	0.143426
601.578300	0.143404
601.788202	0.143373
601.998085	0.143724
602.207950	0.143981
602.417797	0.144033
602.627626	0.144264
602.837436	0.144427
603.047228	0.144264
603.257002	0.144531
603.466758	0.144632
603.676496	0.144924
603.886215	0.144576
604.095916	0.144353
604.305599	0.144367
604.515264	0.144608
604.724910	0.144545
604.934538	0.144738
605.144148	0.144666
605.353740	0.144585
605.563314	0.144321
605.772869	0.144642
605.982406	0.144684
606.191925	0.144727
606.401425	0.144788
606.610908	0.145068
606.820372	0.145249
607.029818	0.145382
607.239246	0.145810
607.448655	0.145930
607.658047	0.145939
607.867420	0.146252
608.076775	0.146182
608.286111	0.146246
608.495430	0.146185
608.704730	0.146405
608.914012	0.146778
609.123275	0.146777
609.332521	0.147326
609.541748	0.147360
609.750957	0.147442
609.960148	0.147833
610.169321	0.147989
610.378475	0.148023
610.587611	0.147923
610.796729	0.147968
611.005829	0.148040
611.214910	0.147860
611.423974	0.147953
611.633019	0.148085
611.842045	0.148088
612.051054	0.148351
612.260044	0.148451
612.469017	0.148408
612.677970	0.148380
612.886906	0.148423
613.095824	0.148619
613.304723	0.148732
613.513604	0.148764
613.722467	0.148748
613.931311	0.148792
614.140138	0.148724
614.348946	0.148698
614.557736	0.148728
614.766507	0.149049
614.975261	0.149076
615.183996	0.149017
615.392713	0.149213
615.601412	0.149470
615.810092	0.149235
616.018754	0.149402
616.227399	0.149611
616.436024	0.149800
616.644632	0.149609
616.853222	0.149509
617.061793	0.149756
617.270346	0.149530
617.478880	0.149714
617.687397	0.149988
617.895895	0.150203
618.104375	0.150407
618.312837	0.150449
618.521281	0.150552
618.729706	0.150637
618.938113	0.150787
619.146502	0.150886
619.354873	0.150667
619.563226	0.150589
619.771560	0.150432
619.979876	0.150400
620.188174	0.150380
620.396453	0.150372
620.604715	0.150614
620.812958	0.150685
621.021183	0.151055
621.229390	0.151351
621.437578	0.151593
621.645748	0.151786
621.853900	0.151763
622.062034	0.151865
622.270150	0.152081
622.478247	0.152073
622.686326	0.152026
622.894387	0.151967
623.102430	0.151749
623.310454	0.151593
623.518461	0.151655
623.726449	0.151930
623.934418	0.151862
624.142370	0.151660
624.350303	0.151800
624.558218	0.151779
624.766115	0.151929
624.973994	0.152168
625.181855	0.152445
625.389697	0.152546
625.597521	0.152517
625.805327	0.152588
626.013114	0.152578
626.220883	0.152562
626.428634	0.152601
626.636367	0.152634
626.844082	0.152789
627.051778	0.152697
627.259457	0.152582
627.467117	0.152342
627.674758	0.152892
627.882382	0.153174
628.089987	0.153123
628.297574	0.153070
628.505143	0.152867
628.712694	0.153032
628.920226	0.153087
629.127740	0.153382
629.335236	0.153876
629.542714	0.153566
629.750174	0.153645
629.957615	0.153860
630.165038	0.154077
630.372443	0.154300
630.579829	0.153944
630.787198	0.154106
630.994548	0.153781
631.201880	0.153635
631.409194	0.153684
631.616489	0.153822
631.823766	0.153711
632.031025	0.153681
632.238266	0.153548
632.445489	0.153950
632.652693	0.154153
632.859879	0.154539
633.067047	0.154773
633.274197	0.155007
633.481329	0.154960
633.688442	0.155237
633.895537	0.155536
634.102614	0.155737
634.309672	0.155982
634.516713	0.155898
634.723735	0.156035
634.930739	0.156080
635.137724	0.156096
635.344692	0.156351
635.551641	0.156303
635.758572	0.156383
635.965485	0.156557
636.172379	0.156392
636.379256	0.156443
636.586114	0.156363
636.792954	0.156186
636.999775	0.156292
637.206579	0.156348
637.413364	0.156607
637.620131	0.156615
637.826880	0.156621
638.033610	0.156459
638.240323	0.156679
638.447017	0.156973
638.653692	0.157328
638.860350	0.157423
639.066990	0.157599
639.273611	0.157522
639.480214	0.157774
639.686798	0.158092
639.893365	0.158420
640.099913	0.158413
640.306443	0.158588
640.512955	0.158519
640.719449	0.158579
640.925924	0.158741
641.132381	0.158977
641.338820	0.158894
641.545241	0.158858
641.751644	0.158964
641.958028	0.158966
642.164394	0.158967
642.370742	0.159234
642.577071	0.159475
642.783383	0.159457
642.989676	0.159677
643.195951	0.159887
643.402207	0.159920
643.608446	0.160028
643.814666	0.160356
644.020868	0.160379
644.227052	0.160421
644.433218	0.160320
644.639365	0.160354
644.845494	0.160419
645.051605	0.160520
645.257698	0.160843
645.463772	0.160803
645.669828	0.160844
645.875866	0.161068
646.081886	0.161441
646.287888	0.161442
646.493871	0.161561
646.699836	0.161401
646.905783	0.161458
647.111712	0.161388
647.317622	0.161744
647.523514	0.161969
647.729388	0.161924
647.935244	0.161810
648.141082	0.162157
648.346901	0.162278
648.552702	0.162617
648.758485	0.162432
648.964250	0.162538
649.169996	0.162441
649.375724	0.162514
649.581434	0.162432
649.787126	0.162462
649.992800	0.162444
650.198455	0.162303
650.404092	0.162083
650.609711	0.162257
650.815311	0.162332
651.020894	0.162671
651.226458	0.162654
651.432004	0.162731
651.637532	0.162543
651.843041	0.162546
652.048532	0.162635
652.254006	0.162776
652.459460	0.163122
652.664897	0.163022
652.870315	0.162826
653.075716	0.162867
653.281097	0.163141
653.486461	0.163747
653.691807	0.163802
653.897134	0.164003
654.102443	0.164193
654.307734	0.164296
654.513006	0.164588
654.718261	0.164857
654.923497	0.164901
655.128715	0.164991
655.333915	0.164838
655.539096	0.165057
655.744259	0.165073
655.949404	0.165330
656.154531	0.165112
656.359640	0.165118
656.564730	0.165259
656.769802	0.165491
656.974856	0.165698
657.179892	0.165892
657.384909	0.165943
657.589908	0.166247
657.794889	0.166338
657.999852	0.166575
658.204797	0.166842
658.409723	0.166820
658.614631	0.166931
658.819521	0.166978
659.024393	0.167067
659.229246	0.167228
659.434081	0.167292
659.638898	0.167394
659.843697	0.167577
660.048478	0.167615
660.253240	0.167542
660.457984	0.167351
660.662710	0.167423
660.867417	0.167546
661.072107	0.167385
661.276778	0.167324
661.481431	0.167175
661.686066	0.167183
661.890682	0.167123
662.095281	0.167278
662.299861	0.167523
662.504422	0.167658
662.708966	0.167647
662.913491	0.167949
663.117999	0.167918
663.322488	0.168050
663.526958	0.168238
663.731411	0.168460
663.935845	0.168644
664.140261	0.168874
664.344659	0.169014
664.549038	0.168916
664.753400	0.168730
664.957743	0.168911
665.162068	0.169243
665.366375	0.169293
665.570663	0.169470
665.774933	0.169554
665.979185	0.169370
666.183419	0.169395
666.387635	0.169550
666.591832	0.169713
666.796011	0.169800
667.000172	0.169734
667.204315	0.169748
667.408439	0.169785
667.612545	0.169982
667.816634	0.170061
668.020703	0.169996
668.224755	0.170266
668.428788	0.170412
668.632803	0.170665
668.836800	0.170490
669.040779	0.170710
669.244739	0.170722
669.448681	0.170815
669.652605	0.171076
669.856511	0.171420
670.060399	0.171553
670.264268	0.171882
670.468119	0.171990
670.671952	0.172523
670.875767	0.172829
671.079563	0.173348
671.283341	0.173453
671.487101	0.173653
671.690843	0.173723
671.894567	0.173671
672.098272	0.173660
672.301959	0.173999
672.505628	0.173937
672.709278	0.173843
672.912911	0.173669
673.116525	0.173741
673.320121	0.173792
673.523699	0.173874
673.727258	0.174200
673.930799	0.174427
674.134322	0.174364
674.337827	0.174484
674.541314	0.174771
674.744782	0.174897
674.948232	0.175184
675.151664	0.175483
675.355078	0.175519
675.558474	0.175432
675.761851	0.175557
675.965210	0.175533
676.168551	0.175683
676.371873	0.175547
676.575178	0.175594
676.778464	0.175516
676.981732	0.175305
677.184981	0.175299
677.388213	0.175590
677.591426	0.175425
677.794621	0.175507
677.997798	0.175456
678.200956	0.175549
678.404097	0.175757
678.607219	0.175637
678.810323	0.175972
679.013408	0.176233
679.216476	0.176290
679.419525	0.176426
679.622556	0.176550
679.825569	0.176847
680.028563	0.177102
680.231540	0.177123
680.434498	0.177505
680.637438	0.177405
680.840359	0.177559
681.043263	0.177564
681.246148	0.177921
681.449015	0.178167
681.651864	0.178034
681.854694	0.178036
682.057506	0.178063
682.260301	0.178188
682.463076	0.178215
682.665834	0.178212
682.868573	0.178548
683.071295	0.178631
683.273998	0.178546
683.476682	0.178987
683.679349	0.179166
683.881997	0.179325
684.084627	0.179357
684.287239	0.179724
684.489833	0.179697
684.692408	0.179565
684.894965	0.179479
685.097504	0.179541
685.300025	0.179209
685.502527	0.179066
685.705012	0.179030
685.907478	0.179145
686.109925	0.179155
686.312355	0.179614
686.514766	0.179689
686.717159	0.179899
686.919534	0.180140
687.121891	0.180457
687.324230	0.180840
687.526550	0.180995
687.728852	0.180807
687.931136	0.180704
688.133401	0.180577
688.335649	0.180671
688.537878	0.180684
688.740089	0.180726
688.942281	0.180788
689.144456	0.180603
689.346612	0.180538
689.548750	0.180638
689.750870	0.180818
689.952971	0.180724
690.155055	0.180886
690.357120	0.180888
690.559167	0.181008
690.761195	0.181144
690.963206	0.180976
691.165198	0.181358
691.367172	0.181730
691.569128	0.181665
691.771065	0.182004
691.972984	0.181955
692.174885	0.181970
692.376768	0.182007
692.578633	0.181806
692.780479	0.182110
692.982308	0.181898
693.184118	0.181582
693.385909	0.181699
693.587683	0.181512
693.789438	0.181521
693.991175	0.181751
694.192894	0.181884
694.394595	0.182215
694.596277	0.182435
694.797941	0.182557
694.999587	0.182849
695.201215	0.183088
695.402824	0.183101
695.604416	0.183352
695.805989	0.183419
696.007543	0.183428
696.209080	0.183352
696.410598	0.183336
696.612099	0.183458
696.813580	0.183602
697.015044	0.183584
697.216490	0.183749
697.417917	0.183625
697.619326	0.183754
697.820717	0.183860
698.022089	0.183909
698.223444	0.184017
698.424780	0.184137
698.626098	0.184303
698.827397	0.184457
699.028679	0.184589
699.229942	0.184898
699.431187	0.184936
699.632414	0.184986
699.833622	0.185268
700.034813	0.185562
700.235985	0.185618
700.437139	0.185536
700.638274	0.185676
700.839392	0.185789
701.040491	0.185740
701.241572	0.185919
701.442635	0.185931
701.643679	0.185726
701.844706	0.185648
702.045714	0.185541
702.246704	0.185754
702.447675	0.185942
702.648629	0.186023
702.849564	0.186114
703.050481	0.186279
703.251380	0.186308
703.452260	0.186484
703.653122	0.186473
703.853966	0.186712
704.054792	0.186364
704.255600	0.186234
704.456389	0.186154
704.657160	0.186145
704.857913	0.185864
705.058648	0.185953
705.259365	0.186075
705.460063	0.186042
705.660743	0.185974
705.861405	0.186237
706.062048	0.186167
706.262674	0.186239
706.463281	0.186328
706.663870	0.186319
706.864441	0.186248
707.064993	0.186168
707.265527	0.186435
707.466043	0.186571
707.666541	0.186680
707.867021	0.186799
708.067482	0.186873
708.267925	0.186956
708.468350	0.187127
708.668757	0.187181
708.869145	0.187259
709.069516	0.187055
709.269868	0.186986
709.470201	0.186871
709.670517	0.186782
709.870814	0.186673
710.071093	0.186625
710.271354	0.186537
710.471597	0.186497
710.671821	0.186392
710.872028	0.186315
711.072216	0.186383
711.272385	0.186559
711.472537	0.186614
711.672670	0.186823
711.872785	0.186788
712.072882	0.186890
712.272961	0.186964
712.473021	0.187242
712.673063	0.187300
712.873087	0.187405
713.073093	0.187422
713.273081	0.187245
713.473050	0.187255
713.673001	0.187282
713.872934	0.187352
714.072849	0.187769
714.272745	0.187801
714.472623	0.187997
714.672483	0.187943
714.872325	0.188087
715.072148	0.188385
715.271954	0.188600
715.471741	0.188828
715.671509	0.188914
715.871260	0.188575
716.070992	0.188498
716.270707	0.188461
716.470403	0.188734
716.670080	0.188592
716.869740	0.188636
717.069381	0.188524
717.269004	0.188465
717.468609	0.188348
717.668195	0.188550
717.867764	0.188543
718.067314	0.188716
718.266846	0.188396
718.466360	0.188607
718.665855	0.188617
718.865332	0.188441
719.064791	0.188117
719.264232	0.187999
719.463655	0.187822
719.663059	0.187699
719.862445	0.187352
720.061813	0.187323
720.261163	0.186881
720.460494	0.186566
720.659807	0.186548
720.859102	0.186603
721.058379	0.186515
721.257638	0.186320
721.456878	0.186191
721.656100	0.186276
721.855304	0.186122
722.054490	0.186318
722.253657	0.186382
722.452806	0.186390
722.651937	0.186556
722.851050	0.186656
723.050145	0.186628
723.249221	0.186682
723.448279	0.186484
723.647319	0.186376
723.846340	0.185902
724.045344	0.185823
724.244329	0.185659
724.443296	0.185365
724.642245	0.185098
724.841175	0.185147
725.040088	0.184819
725.238982	0.184536
725.437857	0.184621
725.636715	0.184895
725.835554	0.184811
726.034376	0.184534
726.233179	0.184406
726.431963	0.184394
726.630730	0.184107
726.829478	0.184179
727.028208	0.184354
727.226920	0.184199
727.425614	0.183908
727.624289	0.183711
727.822946	0.183654
728.021585	0.183804
728.220206	0.183624
728.418808	0.183527
728.617392	0.183485
728.815958	0.183276
729.014506	0.183252
729.213036	0.183250
729.411547	0.183309
729.610040	0.183301
729.808515	0.182982
730.006972	0.183119
730.205410	0.183223
730.403831	0.183111
730.602233	0.183122
730.800616	0.182926
730.998982	0.182782
731.197329	0.182439
731.395658	0.182298
731.593969	0.182178
731.792262	0.181948
731.990536	0.181800
732.188793	0.181776
732.387031	0.181721
732.585250	0.181847
732.783452	0.181700
732.981635	0.181864
733.179800	0.181872
733.377947	0.181666
733.576076	0.181648
733.774186	0.181736
733.972278	0.181573
734.170352	0.181570
734.368408	0.181407
734.566446	0.181512
734.764465	0.181454
734.962466	0.181406
735.160449	0.181532
735.358413	0.181578
735.556360	0.181256
735.754288	0.181310
735.952198	0.181183
736.150090	0.180979
736.347963	0.180686
736.545818	0.180450
736.743655	0.180014
736.941474	0.179682
737.139275	0.179213
737.337057	0.179008
737.534821	0.178676
737.732567	0.178220
737.930295	0.177984
738.128005	0.177909
738.325696	0.178022
738.523369	0.178177
738.721024	0.178211
738.918660	0.178578
739.116279	0.178713
739.313879	0.178816
739.511461	0.179058
739.709024	0.179256
739.906570	0.179182
740.104097	0.178881
740.301606	0.178931
740.499097	0.178880
740.696569	0.178517
740.894024	0.178448
741.091460	0.178237
741.288878	0.178155
741.486277	0.177972
741.683659	0.178172
741.881022	0.178212
742.078367	0.177936
742.275694	0.177694
742.473002	0.177464
742.670293	0.177241
742.867565	0.177046
743.064819	0.176673
743.262054	0.176719
743.459272	0.176278
743.656471	0.175968
743.853652	0.175751
744.050815	0.175784
744.247959	0.175603
744.445085	0.175515
744.642194	0.175517
744.839283	0.175480
745.036355	0.175390
745.233408	0.175495
745.430444	0.175389
745.627461	0.175877
745.824459	0.175878
746.021440	0.175845
746.218402	0.176058
746.415346	0.176232
746.612272	0.176353
746.809180	0.176077
747.006069	0.176040
747.202940	0.176102
747.399793	0.175622
747.596628	0.175515
747.793444	0.175773
747.990243	0.175536
748.187023	0.175231
748.383784	0.175090
748.580528	0.175299
748.777253	0.175082
748.973960	0.175066
749.170649	0.175075
749.367320	0.175005
749.563973	0.174796
749.760607	0.174610
749.957223	0.174650
750.153821	0.174594
750.350400	0.174304
750.546962	0.174411
750.743505	0.174224
750.940030	0.174220
751.136536	0.174143
751.333025	0.173866
751.529495	0.173931
751.725947	0.173812
751.922381	0.173648
752.118796	0.173624
752.315194	0.173308
752.511573	0.173266
752.707934	0.173132
752.904276	0.173106
753.100601	0.173187
753.296907	0.172914
753.493195	0.172599
753.689465	0.172603
753.885716	0.172269
754.081949	0.172290
754.278164	0.172127
754.474361	0.171683
754.670540	0.171441
754.866700	0.171519
755.062843	0.171271
755.258967	0.171231
755.455072	0.171301
755.651160	0.171245
755.847229	0.171264
756.043280	0.171248
756.239313	0.171445
756.435328	0.171588
756.631324	0.171376
756.827302	0.171297
757.023262	0.171442
757.219204	0.171073
757.415127	0.171096
757.611033	0.171004
757.806920	0.170931
758.002788	0.171170
758.198639	0.171007
758.394471	0.170704
758.590286	0.170631
758.786081	0.170388
758.981859	0.170268
759.177619	0.170011
759.373360	0.169672
759.569083	0.169502
759.764788	0.168877
759.960474	0.168697
760.156143	0.168540
760.351793	0.168422
760.547425	0.168320
760.743038	0.168323
760.938634	0.168354
761.134211	0.168184
761.329770	0.168057
761.525311	0.168271
761.720833	0.168009
761.916338	0.168150
762.111824	0.167970
762.307292	0.167889
762.502741	0.167806
762.698173	0.167526
762.893586	0.167719
763.088981	0.167709
763.284358	0.167731
763.479716	0.167801
763.675057	0.167915
763.870379	0.168159
764.065683	0.167933
764.260968	0.167702
764.456236	0.167940
764.651485	0.167831
764.846716	0.168007
765.041929	0.167769
765.237123	0.167639
765.432299	0.167204
765.627457	0.167071
765.822597	0.167339
766.017719	0.167448
766.212822	0.167473
766.407907	0.167489
766.602974	0.167156
766.798023	0.167173
766.993054	0.167125
767.188066	0.167358
767.383060	0.167463
767.578036	0.167101
767.772993	0.167261
767.967933	0.167059
768.162854	0.166822
768.357757	0.166636
768.552642	0.166476
768.747508	0.166170
768.942356	0.165719
769.137186	0.165527
769.331998	0.165489
769.526792	0.165358
769.721567	0.165216
769.916324	0.165350
770.111063	0.165494
770.305784	0.165647
770.500486	0.165967
770.695171	0.166187
770.889837	0.166194
771.084484	0.166459
771.279114	0.166255
771.473725	0.166253
771.668318	0.165828
771.862893	0.165912
772.057450	0.165412
772.251988	0.165286
772.446509	0.165240
772.641011	0.165077
772.835494	0.164855
773.029960	0.164688
773.224407	0.164537
773.418836	0.164569
773.613247	0.164367
773.807640	0.164764
774.002014	0.164772
774.196370	0.164484
774.390708	0.164320
774.585028	0.164320
774.779330	0.164220
774.973613	0.164195
775.167878	0.164199
775.362125	0.164129
775.556354	0.163769
775.750564	0.163688
775.944756	0.163879
776.138930	0.163769
776.333086	0.163596
776.527223	0.163648
776.721343	0.163616
776.915444	0.163843
777.109526	0.163846
777.303591	0.163924
777.497637	0.163863
777.691666	0.163818
777.885676	0.163851
778.079667	0.163864
778.273641	0.164099
778.467596	0.164212
778.661533	0.163875
778.855452	0.163676
779.049352	0.163765
779.243235	0.163855
779.437099	0.163783
779.630945	0.163943
779.824773	0.164009
780.018582	0.163821
780.212373	0.163868
780.406146	0.164151
780.599901	0.164586
780.793638	0.164495
780.987356	0.164711
781.181056	0.164905
781.374738	0.164936
781.568402	0.165194
781.762047	0.165325
781.955674	0.165301
782.149283	0.165230
782.342874	0.165410
782.536447	0.165425
782.730001	0.165344
782.923537	0.165456
783.117055	0.165829
783.310555	0.165823
783.504036	0.165836
783.697499	0.166024
783.890944	0.166159
784.084371	0.165966
784.277780	0.166318
784.471170	0.166229
784.664542	0.166405
784.857896	0.166306
785.051231	0.166281
785.244549	0.166373
785.437848	0.166114
785.631129	0.166011
785.824392	0.166071
786.017636	0.165786
786.210863	0.166145
786.404071	0.166075
786.597260	0.166078
786.790432	0.166044
786.983585	0.165693
787.176721	0.165867
787.369838	0.166102
787.562936	0.165908
787.756017	0.166065
787.949079	0.165929
788.142123	0.165762
788.335149	0.165779
788.528156	0.165774
788.721146	0.166200
788.914117	0.166289
789.107070	0.166191
789.300005	0.166217
789.492921	0.166084
789.685819	0.165880
789.878699	0.165884
790.071561	0.165807
790.264405	0.165686
790.457230	0.165724
790.650037	0.165806
790.842826	0.165884
791.035597	0.165929
791.228349	0.166060
791.421084	0.166368
791.613800	0.166625
791.806497	0.166521
791.999177	0.166866
792.191838	0.167059
792.384481	0.167315
792.577106	0.167379
792.769713	0.167845
792.962301	0.167876
793.154871	0.167974
793.347423	0.167867
793.539957	0.168100
793.732473	0.168047
793.924970	0.167914
794.117449	0.167872
794.309910	0.167938
794.502353	0.167792
794.694777	0.168102
794.887183	0.168084
795.079571	0.168329
795.271941	0.168488
795.464293	0.168493
795.656626	0.168709
795.848941	0.168856
796.041238	0.169141
796.233516	0.169276
796.425777	0.169234
796.618019	0.169513
796.810243	0.169340
797.002449	0.169535
797.194636	0.169713
797.386805	0.169830
797.578956	0.169742
797.771089	0.169456
797.963204	0.169532
798.155300	0.169758
798.347378	0.169636
798.539438	0.169905
798.731480	0.169714
798.923503	0.169899
799.115509	0.169855
799.307496	0.170088
799.499465	0.170680
799.691415	0.170761
799.883348	0.170791
800.075262	0.170985
800.267158	0.171153
800.459035	0.171426
800.650895	0.171501
800.842736	0.171842
801.034559	0.172006
801.226364	0.172025
801.418150	0.172322
801.609919	0.172651
801.801669	0.172944
801.993401	0.173121
802.185114	0.173553
802.376810	0.173867
802.568487	0.174089
802.760146	0.174186
802.951787	0.174391
803.143409	0.174348
803.335014	0.174648
803.526600	0.174701
803.718168	0.174608
803.909717	0.174710
804.101249	0.174937
804.292762	0.174957
804.484257	0.175372
804.675734	0.175359
804.867192	0.175665
805.058632	0.175483
805.250054	0.175716
805.441458	0.176324
805.632844	0.176431
805.824211	0.176332
806.015561	0.176340
806.206891	0.176209
806.398204	0.176472
806.589499	0.176544
806.780775	0.176590
806.972033	0.176535
807.163273	0.176610
807.354495	0.176695
807.545698	0.176887
807.736883	0.177206
807.928050	0.177498
808.119199	0.177758
808.310329	0.178257
808.501441	0.178818
808.692535	0.179373
808.883611	0.179707
809.074669	0.180385
809.265708	0.180910
809.456729	0.181323
809.647732	0.181599
809.838717	0.181877
810.029683	0.181966
810.220632	0.182106
810.411562	0.182269
810.602474	0.182515
810.793367	0.182631
810.984242	0.183066
811.175100	0.183294
811.365938	0.183564
811.556759	0.184050
811.747562	0.184115
811.938346	0.184268
812.129112	0.184418
812.319860	0.184480
812.510589	0.184529
812.701300	0.184644
812.891994	0.184723
813.082668	0.184841
813.273325	0.184771
813.463964	0.185252
813.654584	0.185570
813.845186	0.185785
814.035769	0.186237
814.226335	0.186321
814.416882	0.186265
814.607411	0.186641
814.797922	0.186884
814.988415	0.187140
815.178889	0.187390
815.369345	0.187475
815.559783	0.187801
815.750203	0.187783
815.940605	0.188080
816.130988	0.188602
816.321353	0.188800
816.511700	0.188967
816.702028	0.189100
816.892339	0.188943
817.082631	0.189331
817.272905	0.189222
817.463161	0.189638
817.653398	0.189799
817.843617	0.189562
818.033819	0.189645
818.224001	0.189923
818.414166	0.190259
818.604312	0.190729
818.794440	0.190897
818.984550	0.191513
819.174642	0.191386
819.364716	0.191497
819.554771	0.191849
819.744808	0.192242
819.934827	0.192144
820.124827	0.192211
820.314810	0.192165
820.504774	0.192273
820.694720	0.192334
820.884647	0.192786
821.074557	0.193098
821.264448	0.193306
821.454321	0.193135
821.644176	0.193588
821.834012	0.193912
822.023831	0.194167
822.213631	0.194324
822.403413	0.194257
822.593176	0.194420
822.782922	0.194623
822.972649	0.194995
823.162358	0.195553
823.352049	0.195784
823.541721	0.195836
823.731376	0.196351
823.921012	0.196730
824.110629	0.197192
824.300229	0.197342
824.489811	0.197744
824.679374	0.198079
824.868919	0.198288
825.058445	0.198537
825.247954	0.198858
825.437444	0.198991
825.626916	0.199388
825.816370	0.199638
826.005806	0.199976
826.195223	0.200119
826.384622	0.199909
826.574003	0.199974
826.763366	0.200172
826.952711	0.200306
827.142037	0.200547
827.331345	0.200753
827.520635	0.200875
827.709906	0.201028
827.899160	0.201305
828.088395	0.201649
828.277612	0.201712
828.466810	0.202050
828.655991	0.202397
828.845153	0.202391
829.034297	0.202393
829.223423	0.202926
829.412531	0.202947
829.601620	0.203259
829.790691	0.203752
829.979744	0.204373
830.168779	0.204660
830.357795	0.204740
830.546793	0.205121
830.735773	0.205698
830.924735	0.205830
831.113679	0.206141
831.302604	0.206234
831.491511	0.206654
831.680400	0.206702
831.869271	0.206708
832.058123	0.207166
832.246957	0.207317
832.435773	0.207076
832.624571	0.207083
832.813351	0.207289
833.002112	0.207453
833.190855	0.207127
833.379580	0.207418
833.568287	0.207614
833.756975	0.207601
833.945645	0.207678
834.134297	0.207822
834.322931	0.208165
834.511547	0.208419
834.700144	0.208719
834.888723	0.209210
835.077284	0.209502
835.265826	0.209802
835.454351	0.210282
835.642857	0.210822
835.831345	0.211613
836.019815	0.212018
836.208266	0.212763
836.396699	0.213307
836.585114	0.213677
836.773511	0.214082
836.961890	0.214553
837.150250	0.215095
837.338592	0.215676
837.526916	0.215782
837.715222	0.216027
837.903510	0.216265
838.091779	0.216741
838.280030	0.217304
838.468263	0.217820
838.656477	0.218418
838.844674	0.218697
839.032852	0.219175
839.221012	0.219857
839.409153	0.220356
839.597277	0.220844
839.785382	0.221062
839.973469	0.221241
840.161538	0.221638
840.349589	0.221891
840.537621	0.222214
840.725635	0.222228
840.913631	0.222667
841.101609	0.223232
841.289568	0.223459
841.477509	0.223701
841.665432	0.224078
841.853337	0.224135
842.041224	0.224387
842.229092	0.224585
842.416942	0.225043
842.604774	0.224888
842.792588	0.224776
842.980383	0.225048
843.168160	0.225348
843.355919	0.225136
843.543660	0.225339
843.731382	0.225601
843.919087	0.225902
844.106773	0.226219
844.294441	0.226534
844.482090	0.227110
844.669722	0.227297
844.857335	0.227564
845.044930	0.228129
845.232507	0.228631
845.420065	0.228763
845.607605	0.229114
845.795127	0.228988
845.982631	0.229535
846.170117	0.229523
846.357584	0.229864
846.545033	0.229847
846.732464	0.230192
846.919877	0.230250
847.107272	0.230656
847.294648	0.230583
847.482006	0.231075
847.669346	0.231056
847.856667	0.231288
848.043971	0.231685
848.231256	0.232278
848.418523	0.232481
848.605771	0.232958
848.793002	0.233493
848.980214	0.233904
849.167408	0.234141
849.354584	0.234663
849.541742	0.234996
849.728881	0.235269
849.916002	0.235494
850.103105	0.235894
850.290190	0.236236
850.477256	0.236273
850.664304	0.236554
850.851334	0.236751
851.038346	0.237013
851.225340	0.237113
851.412315	0.237043
851.599272	0.237338
851.786211	0.237845
851.973132	0.238209
852.160034	0.238037
852.346918	0.238435
852.533784	0.239205
852.720632	0.239367
852.907462	0.239869
853.094273	0.240323
853.281066	0.240742
853.467841	0.241020
853.654598	0.241210
853.841336	0.242521
854.028056	0.243108
854.214758	0.243357
854.401442	0.243431
854.588107	0.243666
854.774755	0.243827
854.961384	0.243894
855.147995	0.244042
855.334587	0.244271
855.521162	0.243662
855.707718	0.243648
855.894256	0.243588
856.080775	0.244030
856.267277	0.244328
856.453760	0.244696
856.640225	0.244949
856.826672	0.245280
857.013101	0.245603
857.199511	0.246367
857.385903	0.246491
857.572277	0.246854
857.758633	0.246946
857.944970	0.247311
858.131290	0.247766
858.317591	0.248261
858.503873	0.248743
858.690138	0.248725
858.876384	0.248773
859.062612	0.249089
859.248822	0.249210
859.435014	0.249694
859.621188	0.249915
859.807343	0.250133
859.993480	0.250549
860.179599	0.250670
860.365699	0.251398
860.551781	0.251825
860.737846	0.251907
860.923891	0.252172
861.109919	0.252745
861.295929	0.253488
861.481920	0.253788
861.667893	0.253757
861.853848	0.254221
862.039784	0.254368
862.225702	0.254459
862.411603	0.255232
862.597484	0.256013
862.783348	0.256205
862.969193	0.256292
863.155021	0.256805
863.340830	0.256839
863.526620	0.256792
863.712393	0.256840
863.898147	0.257353
864.083883	0.257289
864.269601	0.257167
864.455301	0.257525
864.640982	0.257512
864.826645	0.257580
865.012290	0.258167
865.197917	0.258307
865.383526	0.258888
865.569116	0.258970
865.754688	0.259081
865.940242	0.259127
866.125777	0.258964
866.311295	0.259504
866.496794	0.259403
866.682275	0.259134
866.867737	0.259276
867.053182	0.259153
867.238608	0.259231
867.424016	0.259551
867.609406	0.259651
867.794778	0.259658
867.980131	0.259440
868.165466	0.259772
868.350783	0.260136
868.536082	0.260222
868.721362	0.260020
868.906625	0.260432
869.091869	0.260653
869.277094	0.260774
869.462302	0.260894
869.647491	0.261270
869.832662	0.261470
870.017815	0.261775
870.202950	0.262201
870.388066	0.262576
870.573165	0.262800
870.758245	0.263167
870.943306	0.263711
871.128350	0.264190
871.313375	0.264737
871.498382	0.265064
871.683371	0.265622
871.868342	0.265994
872.053294	0.266763
872.238229	0.266951
872.423144	0.267358
872.608042	0.267892
872.792922	0.268410
872.977783	0.268218
873.162626	0.268367
873.347451	0.268749
873.532258	0.269253
873.717046	0.269324
873.901816	0.269523
874.086568	0.269759
874.271302	0.269899
874.456017	0.269971
874.640715	0.270443
874.825394	0.270478
875.010055	0.270116
875.194697	0.270218
875.379322	0.270522
875.563928	0.270945
875.748516	0.270926
875.933085	0.270920
876.117637	0.271000
876.302170	0.271296
876.486685	0.272164
876.671182	0.272339
876.855661	0.271972
877.040121	0.271862
877.224563	0.271816
877.408987	0.272286
877.593393	0.272437
877.777780	0.272835
877.962150	0.272693
878.146501	0.272353
878.330833	0.272964
878.515148	0.273463
878.699444	0.273465
878.883722	0.273231
879.067982	0.272728
879.252224	0.272967
879.436447	0.272757
879.620653	0.272967
879.804840	0.272572
879.989008	0.272305
880.173159	0.272397
880.357291	0.272608
880.541405	0.272781
880.725501	0.273030
880.909579	0.272987
881.093638	0.273271
881.277680	0.273448
881.461703	0.274037
881.645707	0.273935
881.829694	0.274072
882.013662	0.274320
882.197612	0.274383
882.381544	0.274753
882.565458	0.274529
882.749353	0.274566
882.933230	0.274357
883.117089	0.274467
883.300930	0.274798
883.484753	0.274496
883.668557	0.274463
883.852343	0.274602
884.036111	0.274512
884.219861	0.275193
884.403592	0.275175
884.587305	0.275465
884.771000	0.275472
884.954677	0.275446
885.138335	0.275704
885.321976	0.275926
885.505598	0.276383
885.689201	0.276445
885.872787	0.276060
886.056354	0.276615
886.239904	0.276167
886.423434	0.275991
886.606947	0.275943
886.790442	0.275770
886.973918	0.275370
887.157376	0.275215
887.340816	0.275164
887.524237	0.275396
887.707641	0.275249
887.891026	0.275528
888.074393	0.275837
888.257741	0.275871
888.441072	0.275952
888.624384	0.275929
888.807678	0.275204
888.990954	0.275426
889.174211	0.275573
889.357451	0.275261
889.540672	0.275172
889.723875	0.275256
889.907059	0.275778
890.090226	0.276032
890.273374	0.276295
890.456504	0.277091
890.639616	0.276627
890.822709	0.276794
891.005785	0.276645
891.188842	0.276871
891.371881	0.276667
891.554901	0.275948
891.737904	0.275710
891.920888	0.275738
892.103854	0.275840
892.286802	0.276304
892.469731	0.275814
892.652643	0.275662
892.835536	0.275702
893.018410	0.275667
893.201267	0.275882
893.384106	0.276036
893.566926	0.275697
893.749728	0.275454
893.932511	0.275623
894.115277	0.275478
894.298024	0.275810
894.480753	0.275867
894.663464	0.276410
894.846157	0.276568
895.028831	0.276034
895.211487	0.276230
895.394125	0.275779
895.576745	0.275241
895.759346	0.275466
895.941930	0.275458
896.124495	0.275564
896.307041	0.275059
896.489570	0.274669
896.672080	0.274897
896.854573	0.274926
897.037046	0.275163
897.219502	0.274966
897.401940	0.274560
897.584359	0.274368
897.766760	0.273731
897.949143	0.273234
898.131507	0.273318
898.313854	0.273456
898.496182	0.273231
898.678492	0.273168
898.860783	0.273352
899.043057	0.273297
899.225312	0.273024
899.407549	0.273432
899.589768	0.273653
899.771968	0.273460
899.954151	0.273179
900.136315	0.272757
900.318461	0.272443
900.500588	0.271715
900.682698	0.271592
900.864789	0.271704
901.046862	0.271265
901.228917	0.270873
901.410953	0.270750
901.592971	0.270483
901.774972	0.270877
901.956953	0.270513
902.138917	0.270412
902.320862	0.270207
902.502790	0.269777
902.684699	0.269059
902.866589	0.268885
903.048462	0.268987
903.230316	0.268637
903.412152	0.267853
903.593970	0.267933
903.775770	0.268182
903.957551	0.268209
904.139314	0.268036
904.321059	0.268065
904.502786	0.267667
904.684494	0.267068
904.866185	0.267118
905.047857	0.267042
905.229510	0.266685
905.411146	0.265995
905.592763	0.265528
905.774363	0.265123
905.955943	0.264831
906.137506	0.264795
906.319051	0.264660
906.500577	0.264590
906.682085	0.264455
906.863575	0.264104
907.045046	0.264313
907.226500	0.264247
907.407935	0.264294
907.589352	0.264308
907.770750	0.263860
907.952131	0.263623
908.133493	0.262728
908.314837	0.261984
908.496163	0.262155
908.677470	0.261947
908.858760	0.261628
909.040031	0.261150
909.221284	0.260452
909.402518	0.260266
909.583735	0.259336
909.764933	0.259313
909.946113	0.259158
910.127275	0.258456
910.308418	0.257894
910.489544	0.257418
910.670651	0.256638
910.851740	0.256132
911.032810	0.255309
911.213863	0.254941
911.394897	0.254455
911.575913	0.254227
911.756911	0.253453
911.937890	0.253045
912.118851	0.252340
912.299794	0.252092
912.480719	0.252023
912.661626	0.251930
912.842514	0.251644
913.023384	0.250930
913.204236	0.250735
913.385070	0.250633
913.565886	0.250616
913.746683	0.250588
913.927462	0.250121
914.108223	0.249208
914.288965	0.249201
914.469690	0.249281
914.650396	0.248992
914.831084	0.248256
915.011754	0.247829
915.192405	0.247008
915.373038	0.246409
915.553653	0.246404
915.734250	0.245983
915.914829	0.245466
916.095389	0.244472
916.275931	0.243932
916.456455	0.243655
916.636961	0.242913
916.817448	0.242458
916.997917	0.241922
917.178368	0.241131
917.358801	0.241383
917.539216	0.240730
917.719612	0.241226
917.899990	0.240923
918.080350	0.240749
918.260692	0.240481
918.441015	0.239727
918.621320	0.239475
918.801607	0.239371
918.981876	0.238254
919.162127	0.237455
919.342359	0.235883
919.522573	0.236109
919.702769	0.235537
919.882947	0.235418
920.063106	0.235200
920.243247	0.234748
920.423370	0.234269
920.603475	0.234421
920.783562	0.234171
920.963630	0.233403
921.143680	0.231804
921.323712	0.230750
921.503725	0.229188
921.683721	0.228707
921.863698	0.227790
922.043657	0.226516
922.223598	0.225625
922.403520	0.225574
922.583424	0.225544
922.763311	0.225839
922.943178	0.224780
923.123028	0.225049
923.302859	0.224036
923.482673	0.223166
923.662467	0.223068
923.842244	0.222838
924.022003	0.220739
924.201743	0.220819
924.381465	0.219465
924.561169	0.219633
924.740854	0.218652
924.920522	0.218441
925.100171	0.218107
925.279802	0.218169
925.459414	0.217379
925.639009	0.217864
925.818585	0.216377
925.998143	0.215444
926.177683	0.215230
926.357205	0.214955
926.536708	0.213973
926.716193	0.213970
926.895660	0.212844
927.075109	0.211706
927.254539	0.210916
927.433951	0.210520
927.613345	0.210262
927.792721	0.209437
927.972079	0.208575
928.151418	0.208775
928.330739	0.207849
928.510042	0.207312
928.689327	0.207100
928.868593	0.206374
929.047841	0.205583
929.227071	0.205463
929.406283	0.204458
929.585476	0.203921
929.764652	0.203022
929.943809	0.202196
930.122948	0.200918
930.302068	0.199809
930.481171	0.199837
930.660255	0.199494
930.839321	0.198815
931.018369	0.198288
931.197398	0.197624
931.376409	0.196064
931.555402	0.195231
931.734377	0.195472
931.913334	0.194923
932.092272	0.193663
932.271192	0.193207
932.450094	0.192297
932.628978	0.191647
932.807844	0.190931
932.986691	0.190514
933.165520	0.189788
933.344331	0.188110
933.523123	0.187779
933.701898	0.187842
933.880654	0.186862
934.059392	0.186098
934.238111	0.185603
934.416813	0.185072
934.595496	0.184043
934.774161	0.183657
934.952808	0.183258
935.131437	0.181593
935.310047	0.179684
935.488639	0.178918
935.667213	0.178578
935.845769	0.177297
936.024306	0.177199
936.202825	0.177477
936.381326	0.176895
936.559809	0.175749
936.738274	0.175842
936.916720	0.175817
937.095148	0.174980
937.273558	0.173658
937.451950	0.173041
937.630323	0.171975
937.808678	0.171300
937.987015	0.169948
938.165334	0.170033
938.343635	0.169031
938.521917	0.168692
938.700181	0.169219
938.878427	0.168741
939.056655	0.167991
939.234864	0.167618
939.413055	0.166204
939.591228	0.165140
939.769383	0.164261
939.947519	0.163022
940.125638	0.161814
940.303738	0.159095
940.481820	0.158154
940.659883	0.157103
940.837929	0.153865
941.015956	0.153232
941.193965	0.153011
941.371955	0.152312
941.549928	0.151834
941.727882	0.150428
941.905818	0.150538
942.083736	0.149910
942.261636	0.149499
942.439517	0.150310
942.617380	0.149372
942.795225	0.148919
942.973052	0.147846
943.150860	0.147367
943.328651	0.146492
943.506423	0.144656
943.684176	0.144686
943.861912	0.142600
944.039629	0.141865
944.217328	0.140275
944.395009	0.139160
944.572672	0.138163
944.750317	0.137368
944.927943	0.137294
945.105551	0.138109
945.283141	0.136199
945.460712	0.137689
945.638265	0.137160
945.815801	0.136940
945.993317	0.135884
946.170816	0.135074
946.348297	0.135395
946.525759	0.134263
946.703203	0.133458
946.880629	0.133104
947.058036	0.132816
947.235425	0.132629
947.412797	0.132494
947.590149	0.131656
947.767484	0.130977
947.944800	0.129560
948.122099	0.128842
948.299379	0.126832
948.476640	0.126771
948.653884	0.125562
948.831109	0.123538
949.008316	0.122381
949.185505	0.122549
949.362676	0.122085
949.539828	0.121292
949.716962	0.120602
949.894078	0.120435
950.071176	0.118858
950.248256	0.117461
950.425317	0.117970
950.602360	0.117255
950.779385	0.116723
950.956391	0.117161
951.133380	0.116095
951.310350	0.116775
951.487302	0.116226
951.664235	0.115069
951.841151	0.114199
952.018048	0.112428
952.194927	0.112037
952.371788	0.111942
952.548631	0.108373
952.725455	0.108231
952.902261	0.106259
953.079049	0.104867
953.255819	0.105530
953.432570	0.104207
953.609303	0.104463
953.786018	0.102411
953.962715	0.100878
954.139394	0.101674
954.316054	0.100583
954.492696	0.101181
954.669320	0.101988
954.845926	0.099872
955.022513	0.099187
955.199083	0.099517
955.375634	0.103468
955.552166	0.102574
955.728681	0.102605
955.905177	0.103202
956.081655	0.101287
956.258115	0.100224
956.434557	0.102330
956.610980	0.102460
956.787385	0.100414
956.963772	0.097100
957.140141	0.096638
957.316492	0.094776
957.492824	0.092232
957.669138	0.091884
957.845434	0.092064
958.021712	0.090654
958.197971	0.091042
958.374212	0.090749
958.550435	0.092366
958.726640	0.091436
958.902826	0.092634
959.078995	0.094386
959.255145	0.094251
959.431277	0.093468
959.607390	0.090324
959.783486	0.090415
959.959563	0.089725
960.135622	0.088319
960.311662	0.089595
960.487685	0.090581
960.663689	0.090027
960.839675	0.089695
961.015643	0.087373
961.191593	0.088011
961.367524	0.087144
961.543437	0.088059
961.719332	0.086804
961.895209	0.087927
962.071067	0.085556
962.246907	0.086314
962.422730	0.087764
962.598533	0.090451
962.774319	0.092823
962.950086	0.093293
963.125835	0.092081
963.301566	0.094240
963.477279	0.093609
963.652973	0.096884
963.828650	0.097132
964.004308	0.097483
964.179947	0.097513
964.355569	0.098027
964.531172	0.097703
964.706757	0.099208
964.882324	0.098647
965.057873	0.098373
965.233403	0.096572
965.408916	0.095631
965.584410	0.094476
965.759885	0.093132
965.935343	0.091794
966.110782	0.092986
966.286203	0.092851
966.461606	0.092828
966.636991	0.092800
966.812357	0.092869
966.987705	0.091553
967.163035	0.090609
967.338347	0.091336
967.513641	0.091297
967.688916	0.089811
967.864173	0.090906
968.039412	0.090000
968.214632	0.087281
968.389835	0.085929
968.565019	0.087552
968.740185	0.087082
968.915333	0.087091
969.090462	0.087379
969.265573	0.086964
969.440667	0.085949
969.615741	0.085031
969.790798	0.087743
969.965836	0.086364
970.140856	0.086121
970.315858	0.087560
970.490842	0.086805
970.665808	0.086862
970.840755	0.087710
971.015684	0.086750
971.190595	0.084700
971.365487	0.083107
971.540362	0.083342
971.715218	0.084392
971.890056	0.083357
972.064875	0.083127
972.239677	0.082005
972.414460	0.080879
972.589225	0.082893
972.763972	0.085465
972.938700	0.085161
973.113411	0.086596
973.288103	0.084511
973.462777	0.084950
973.637432	0.086052
973.812070	0.087713
973.986689	0.086891
974.161290	0.085558
974.335873	0.086166
974.510437	0.088882
974.684984	0.088908
974.859512	0.089544
975.034022	0.088718
975.208513	0.088052
975.382987	0.087540
975.557442	0.088569
975.731879	0.087950
975.906298	0.087773
976.080698	0.086445
976.255080	0.086980
976.429445	0.087787
976.603790	0.089921
976.778118	0.090405
976.952427	0.091290
977.126719	0.093366
977.300992	0.095400
977.475246	0.095871
977.649483	0.095305
977.823701	0.094465
977.997901	0.091978
978.172083	0.091267
978.346247	0.091233
978.520392	0.089607
978.694519	0.087564
978.868628	0.084693
979.042719	0.083376
979.216791	0.083445
979.390845	0.084117
979.564882	0.086636
979.738899	0.086988
979.912899	0.089546
980.086880	0.089815
980.260843	0.088782
980.434788	0.090491
980.608715	0.091354
980.782623	0.092945
980.956514	0.092735
981.130386	0.090350
981.304240	0.089599
981.478075	0.085597
981.651892	0.085811
981.825692	0.088182
981.999472	0.088080
982.173235	0.089444
982.346980	0.086516
982.520706	0.085544
982.694414	0.086847
982.868104	0.086391
983.041775	0.087795
983.215428	0.087497
983.389064	0.085847
983.562680	0.085276
983.736279	0.081907
983.909860	0.082464
984.083422	0.082638
984.256966	0.081842
984.430491	0.083245
984.603999	0.083904
984.777488	0.082937
984.950959	0.083873
985.124412	0.085139
985.297847	0.087815
985.471263	0.089384
985.644661	0.090766
985.818041	0.092417
985.991403	0.091720
986.164747	0.090477
986.338072	0.091276
986.511379	0.090625
986.684668	0.090235
986.857938	0.088141
987.031191	0.086062
987.204425	0.087348
987.377641	0.086334
987.550839	0.086994
987.724018	0.085923
987.897179	0.086517
988.070322	0.087891
988.243447	0.088413
988.416554	0.090363
988.589642	0.093220
988.762712	0.090503
988.935764	0.091866
989.108798	0.090482
989.281813	0.091011
989.454811	0.091099
989.627790	0.090030
989.800751	0.089744
989.973693	0.088260
990.146617	0.085330
990.319524	0.084377
990.492412	0.084121
990.665281	0.084749
990.838133	0.084808
991.010966	0.085667
991.183781	0.085192
991.356578	0.083941
991.529356	0.086448
991.702117	0.086753
991.874859	0.089378
992.047583	0.087536
992.220288	0.087310
992.392976	0.088825
992.565645	0.088932
992.738296	0.090149
992.910929	0.090396
993.083543	0.088859
993.256139	0.089785
993.428718	0.088783
993.601277	0.090082
993.773819	0.091169
993.946342	0.090601
994.118848	0.089768
994.291335	0.089196
994.463803	0.089742
994.636254	0.090138
994.808686	0.090717
994.981100	0.091266
995.153496	0.092468
995.325874	0.090653
995.498233	0.091959
995.670574	0.091810
995.842897	0.091330
996.015202	0.091238
996.187488	0.092329
996.359757	0.091919
996.532007	0.092000
996.704239	0.090179
996.876452	0.090528
997.048648	0.089111
997.220825	0.088994
997.392984	0.090806
997.565124	0.090123
997.737247	0.088141
997.909351	0.088305
998.081437	0.086293
998.253505	0.086019
998.425554	0.085302
998.597586	0.083277
998.769599	0.082126
998.941594	0.080054
999.113571	0.080877
999.285529	0.080818
999.457469	0.080786
999.629391	0.080744
999.801295	0.082350
999.973181	0.083300
1000.145048	0.085461
1000.316897	0.087197
1000.488728	0.087399
1000.660541	0.087148
1000.832335	0.087355
1001.004111	0.086637
1001.175869	0.088088
1001.347609	0.086177
1001.519331	0.087951
1001.691034	0.088052
1001.862719	0.088676
1002.034386	0.088809
1002.206035	0.088671
1002.377665	0.089864
1002.549277	0.091485
1002.720871	0.090214
1002.892447	0.090772
1003.064004	0.088360
1003.235544	0.088755
1003.407065	0.088126
1003.578568	0.087672
1003.750052	0.086569
1003.921519	0.084249
1004.092967	0.083838
1004.264397	0.084436
1004.435809	0.083782
1004.607202	0.083537
1004.778577	0.083258
1004.949934	0.082833
1005.121273	0.084499
1005.292594	0.085410
1005.463896	0.086715
1005.635180	0.085295
1005.806446	0.086382
1005.977694	0.087791
1006.148923	0.090376
1006.320135	0.090578
1006.491328	0.089155
1006.662503	0.086425
1006.833659	0.087348
1007.004798	0.085603
1007.175918	0.086413
1007.347020	0.087341
1007.518103	0.087371
1007.689169	0.084479
1007.860216	0.083362
1008.031245	0.086045
1008.202256	0.087312
1008.373248	0.085350
1008.544223	0.086019
1008.715179	0.084707
1008.886117	0.083735
1009.057036	0.083141
1009.227938	0.084405
1009.398821	0.086299
1009.569686	0.084229
1009.740533	0.084685
1009.911361	0.088318
1010.082172	0.089069
1010.252964	0.090737
1010.423738	0.090617
1010.594493	0.091130
1010.765231	0.091252
1010.935950	0.087245
1011.106651	0.088032
1011.277334	0.088760
1011.447998	0.085517
1011.618645	0.084845
1011.789273	0.084130
1011.959882	0.084686
1012.130474	0.084138
1012.301048	0.084068
1012.471603	0.085894
1012.642140	0.085419
1012.812658	0.083942
1012.983159	0.084969
1013.153641	0.085005
1013.324105	0.085906
1013.494551	0.085866
1013.664979	0.085680
1013.835388	0.083906
1014.005779	0.082811
1014.176152	0.082454
1014.346507	0.082801
1014.516843	0.081641
1014.687162	0.083077
1014.857462	0.081671
1015.027744	0.080336
1015.198007	0.080293
1015.368252	0.081971
1015.538480	0.083054
1015.708689	0.082578
1015.878879	0.083087
1016.049052	0.083093
1016.219206	0.082013
1016.389342	0.080915
1016.559460	0.081017
1016.729559	0.082382
1016.899641	0.081864
1017.069704	0.082851
1017.239749	0.083523
1017.409775	0.081246
1017.579784	0.081692
1017.749774	0.082820
1017.919746	0.084165
1018.089700	0.083657
1018.259635	0.081313
1018.429553	0.081384
1018.599452	0.081125
1018.769333	0.078939
1018.939195	0.080782
1019.109040	0.081036
1019.278866	0.080523
1019.448674	0.079206
1019.618464	0.079143
1019.788235	0.078699
1019.957989	0.079673
1020.127724	0.079184
1020.297441	0.081341
1020.467139	0.081336
1020.636820	0.081012
1020.806482	0.081242
1020.976126	0.081319
1021.145752	0.083511
1021.315359	0.085925
1021.484948	0.085751
1021.654519	0.085237
1021.824072	0.085178
1021.993607	0.084215
1022.163123	0.083720
1022.332621	0.082876
1022.502101	0.083615
1022.671563	0.081932
1022.841007	0.080218
1023.010432	0.079875
1023.179839	0.082089
1023.349228	0.082941
1023.518598	0.082283
1023.687951	0.082734
1023.857285	0.081805
1024.026601	0.081167
1024.195899	0.080393
1024.365178	0.080808
1024.534439	0.081845
1024.703682	0.079922
1024.872907	0.077674
1025.042114	0.080219
1025.211302	0.080613
1025.380472	0.081180
1025.549624	0.084124
1025.718758	0.084860
1025.887873	0.085614
1026.056970	0.085569
1026.226049	0.085346
1026.395110	0.087543
1026.564153	0.085780
1026.733177	0.085629
1026.902183	0.085274
1027.071171	0.082160
1027.240141	0.083423
1027.409092	0.083447
1027.578026	0.083055
1027.746940	0.082716
1027.915837	0.082740
1028.084716	0.083352
1028.253576	0.082573
1028.422418	0.083047
1028.591242	0.084229
1028.760048	0.084193
1028.928835	0.082672
1029.097604	0.079573
1029.266355	0.080709
1029.435088	0.080359
1029.603803	0.081228
1029.772499	0.082613
1029.941177	0.082552
1030.109837	0.082467
1030.278478	0.080300
1030.447102	0.081088
1030.615707	0.084231
1030.784294	0.083824
1030.952863	0.083256
1031.121413	0.082490
1031.289945	0.081848
1031.458460	0.082834
1031.626955	0.083683
1031.795433	0.083738
1031.963892	0.083588
1032.132334	0.082521
1032.300756	0.082152
1032.469161	0.083358
1032.637548	0.083446
1032.805916	0.083383
1032.974266	0.082890
1033.142598	0.082795
1033.310911	0.084738
1033.479207	0.085292
1033.647484	0.085128
1033.815743	0.084631
1033.983983	0.082931
1034.152206	0.083957
1034.320410	0.084530
1034.488596	0.083114
1034.656764	0.082502
1034.824914	0.081186
1034.993045	0.080682
1035.161158	0.079183
1035.329253	0.078876
1035.497330	0.080276
1035.665388	0.078429
1035.833428	0.078426
1036.001450	0.079906
1036.169454	0.080358
1036.337440	0.079778
1036.505407	0.080601
1036.673356	0.080414
1036.841287	0.082638
1037.009200	0.081665
1037.177094	0.081021
1037.344970	0.081333
1037.512828	0.081296
1037.680668	0.080336
1037.848489	0.081547
1038.016293	0.081046
1038.184078	0.083352
1038.351845	0.083518
1038.519593	0.083213
1038.687324	0.084068
1038.855036	0.083458
1039.022730	0.084182
1039.190406	0.084461
1039.358063	0.084386
1039.525702	0.083755
1039.693323	0.082310
1039.860926	0.079189
1040.028511	0.080311
1040.196077	0.079591
1040.363625	0.078041
1040.531155	0.076716
1040.698667	0.076550
1040.866161	0.077592
1041.033636	0.077873
1041.201093	0.078123
1041.368532	0.079542
1041.535952	0.078502
1041.703355	0.079097
1041.870739	0.080244
1042.038105	0.079524
1042.205452	0.079099
1042.372782	0.078277
1042.540093	0.077846
1042.707386	0.078311
1042.874661	0.081022
1043.041918	0.081233
1043.209156	0.080429
1043.376376	0.079335
1043.543578	0.080304
1043.710762	0.081218
1043.877927	0.080056
1044.045074	0.079981
1044.212203	0.080189
1044.379314	0.078497
1044.546407	0.079343
1044.713481	0.078819
1044.880537	0.079114
1045.047575	0.077981
1045.214595	0.077579
1045.381596	0.077881
1045.548579	0.077677
1045.715544	0.076861
1045.882491	0.076307
1046.049420	0.074383
1046.216330	0.075832
1046.383222	0.074814
1046.550096	0.075794
1046.716951	0.077001
1046.883789	0.077855
1047.050608	0.079585
1047.217409	0.080287
1047.384192	0.079407
1047.550956	0.080139
1047.717703	0.082481
1047.884431	0.084936
1048.051140	0.086257
1048.217832	0.086355
1048.384505	0.087101
1048.551161	0.086644
1048.717798	0.085464
1048.884416	0.086679
1049.051017	0.085858
1049.217599	0.081759
1049.384163	0.080524
1049.550709	0.079720
1049.717237	0.078398
1049.883746	0.077320
1050.050237	0.077308
1050.216710	0.079367
1050.383165	0.080182
1050.549601	0.081314
1050.716019	0.083356
1050.882420	0.082390
1051.048801	0.081890
1051.215165	0.081304
1051.381510	0.081341
1051.547837	0.080999
1051.714146	0.080119
1051.880437	0.079113
1052.046709	0.078579
1052.212964	0.076944
1052.379200	0.077266
1052.545417	0.077824
1052.711617	0.078728
1052.877798	0.077402
1053.043961	0.077581
1053.210106	0.078476
1053.376233	0.077546
1053.542341	0.077650
1053.708432	0.079699
1053.874504	0.079456
1054.040557	0.077444
1054.206593	0.079730
1054.372610	0.080529
1054.538609	0.078791
1054.704590	0.079796
1054.870553	0.081932
1055.036497	0.080921
1055.202424	0.079980
1055.368331	0.082856
1055.534221	0.084904
1055.700093	0.082942
1055.865946	0.081925
1056.031781	0.081837
1056.197598	0.080026
1056.363397	0.078071
1056.529177	0.078448
1056.694939	0.079517
1056.860683	0.076977
1057.026409	0.074887
1057.192116	0.074900
1057.357806	0.076324
1057.523477	0.078288
1057.689130	0.076678
1057.854764	0.077335
1058.020381	0.078226
1058.185979	0.076930
1058.351559	0.077340
1058.517120	0.078814
1058.682664	0.075596
1058.848189	0.075568
1059.013696	0.075260
1059.179185	0.075785
1059.344656	0.076460
1059.510108	0.076520
1059.675542	0.076373
1059.840958	0.077685
1060.006356	0.077734
1060.171735	0.080259
1060.337096	0.081061
1060.502439	0.081854
1060.667764	0.081266
1060.833071	0.081802
1060.998359	0.080286
1061.163629	0.080096
1061.328881	0.079198
1061.494115	0.080886
1061.659330	0.081944
1061.824527	0.080464
1061.989706	0.078725
1062.154867	0.078637
1062.320010	0.078211
1062.485134	0.078880
1062.650240	0.079867
1062.815328	0.080063
1062.980398	0.078657
1063.145449	0.078929
1063.310482	0.079030
1063.475497	0.080431
1063.640494	0.080576
1063.805473	0.080288
1063.970433	0.079941
1064.135375	0.080598
1064.300299	0.079541
1064.465204	0.077783
1064.630092	0.076793
1064.794961	0.077297
1064.959812	0.076438
1065.124645	0.077984
1065.289459	0.077677
1065.454256	0.077944
1065.619034	0.077893
1065.783793	0.078252
1065.948535	0.078657
1066.113258	0.079841
1066.277964	0.076218
1066.442651	0.076718
1066.607319	0.076973
1066.771970	0.076431
1066.936602	0.078828
1067.101216	0.077608
1067.265812	0.077808
1067.430389	0.080106
1067.594949	0.079191
1067.759490	0.082577
1067.924013	0.081297
1068.088518	0.082003
1068.253004	0.080800
1068.417472	0.078321
1068.581922	0.078547
1068.746354	0.078762
1068.910768	0.078670
1069.075163	0.078531
1069.239540	0.079738
1069.403899	0.081517
1069.568240	0.079714
1069.732562	0.081069
1069.896866	0.085365
1070.061152	0.087840
1070.225420	0.088834
1070.389670	0.085579
1070.553901	0.085148
1070.718114	0.084243
1070.882309	0.084482
1071.046486	0.085452
1071.210644	0.086310
1071.374784	0.082019
1071.538906	0.080375
1071.703010	0.079568
1071.867096	0.079960
1072.031163	0.080410
1072.195212	0.079692
1072.359243	0.077965
1072.523256	0.078404
1072.687250	0.079151
1072.851226	0.081788
1073.015184	0.081058
1073.179124	0.080693
1073.343045	0.081169
1073.506949	0.082612
1073.670834	0.082038
1073.834701	0.081809
1073.998549	0.080864
1074.162380	0.078608
1074.326192	0.076504
1074.489986	0.077400
1074.653761	0.077706
1074.817519	0.077263
1074.981258	0.075773
1075.144979	0.075768
1075.308682	0.077163
1075.472367	0.078295
1075.636033	0.076703
1075.799681	0.074995
1075.963311	0.073792
1076.126923	0.077061
1076.290516	0.077623
1076.454092	0.076311
1076.617649	0.075284
1076.781187	0.074249
1076.944708	0.074690
1077.108210	0.077043
1077.271695	0.080879
1077.435160	0.081876
1077.598608	0.076911
1077.762038	0.078375
1077.925449	0.078829
1078.088842	0.080339
1078.252217	0.080171
1078.415573	0.079518
1078.578912	0.079109
1078.742232	0.077947
1078.905534	0.076515
1079.068817	0.079461
1079.232083	0.077451
1079.395330	0.079123
1079.558559	0.081193
1079.721770	0.081537
1079.884962	0.082408
1080.048136	0.082660
1080.211293	0.082506
1080.374430	0.085356
1080.537550	0.084610
1080.700651	0.087469
1080.863735	0.084438
1081.026800	0.082562
1081.189846	0.082881
1081.352875	0.081397
1081.515885	0.082309
1081.678877	0.081473
1081.841851	0.080104
1082.004807	0.082126
1082.167744	0.081425
1082.330663	0.084747
1082.493564	0.085714
1082.656447	0.085323
1082.819312	0.087538
1082.982158	0.086005
1083.144986	0.085728
1083.307796	0.086035
1083.470587	0.081449
1083.633361	0.080763
1083.796116	0.080989
1083.958853	0.080720
1084.121571	0.082394
1084.284272	0.080006
1084.446954	0.080977
1084.609618	0.079162
1084.772264	0.078500
1084.934892	0.080273
1085.097501	0.081705
1085.260092	0.080090
1085.422665	0.080956
1085.585220	0.078193
1085.747756	0.079269
1085.910274	0.078350
1086.072774	0.078980
1086.235256	0.078269
1086.397720	0.080230
1086.560165	0.079941
1086.722592	0.079265
1086.885001	0.079548
1087.047392	0.082243
1087.209764	0.080893
1087.372119	0.082961
1087.534455	0.084375
1087.696772	0.086876
1087.859072	0.084639
1088.021353	0.083550
1088.183616	0.084204
1088.345861	0.082885
1088.508088	0.081939
1088.670296	0.080201
1088.832486	0.076991
1088.994658	0.077263
1089.156812	0.077364
1089.318948	0.076841
1089.481065	0.075859
1089.643164	0.075572
1089.805245	0.075934
1089.967308	0.076162
1090.129352	0.079333
1090.291378	0.082545
1090.453386	0.082377
1090.615376	0.079646
1090.777347	0.081799
1090.939301	0.083374
1091.101236	0.082505
1091.263153	0.083467
1091.425051	0.081264
1091.586932	0.080733
1091.748794	0.078481
1091.910638	0.076304
1092.072463	0.074916
1092.234271	0.075842
1092.396060	0.076688
1092.557831	0.076261
1092.719584	0.074424
1092.881319	0.075711
1093.043035	0.075494
1093.204733	0.078513
1093.366413	0.080606
1093.528075	0.082648
1093.689718	0.081240
1093.851343	0.079778
1094.012950	0.082049
1094.174539	0.079111
1094.336110	0.078153
1094.497662	0.076215
1094.659196	0.075523
1094.820712	0.076048
1094.982210	0.074772
1095.143689	0.073101
1095.305151	0.074872
1095.466594	0.073888
1095.628018	0.075924
1095.789425	0.077130
1095.950813	0.079285
1096.112183	0.077079
1096.273535	0.077196
1096.434869	0.077025
1096.596184	0.077871
1096.757482	0.075360
1096.918761	0.074527
1097.080021	0.077086
1097.241264	0.078003
1097.402488	0.077768
1097.563694	0.080540
1097.724882	0.077392
1097.886052	0.079997
1098.047203	0.082324
1098.208336	0.082322
1098.369451	0.083003
1098.530548	0.082443
1098.691627	0.082448
1098.852687	0.081069
1099.013729	0.079876
1099.174753	0.082372
1099.335758	0.080500
1099.496746	0.077623
1099.657715	0.078974
1099.818666	0.081999
1099.979599	0.081749
1100.140513	0.079977
1100.301409	0.077461
1100.462287	0.076749
1100.623147	0.078130
1100.783989	0.079915
1100.944812	0.081089
1101.105617	0.080885
1101.266404	0.080893
1101.427173	0.078931
1101.587923	0.083426
1101.748656	0.089171
1101.909370	0.087071
1102.070066	0.084794
1102.230743	0.082870
1102.391403	0.083823
1102.552044	0.084872
1102.712667	0.082907
1102.873271	0.082930
1103.033858	0.078291
1103.194426	0.075602
1103.354976	0.075596
1103.515508	0.076470
1103.676021	0.077020
1103.836517	0.075825
1103.996994	0.074316
1104.157453	0.074940
1104.317893	0.076619
1104.478316	0.075906
1104.638720	0.075500
1104.799106	0.075450
1104.959474	0.077164
1105.119823	0.076049
1105.280155	0.073109
1105.440468	0.070542
1105.600763	0.069496
1105.761039	0.070101
1105.921298	0.073067
1106.081538	0.070081
1106.241760	0.070676
1106.401964	0.065610
1106.562149	0.065507
1106.722316	0.068734
1106.882465	0.071810
1107.042596	0.066874
1107.202709	0.065435
1107.362803	0.060232
1107.522879	0.064094
1107.682937	0.063673
1107.842977	0.069348
1108.002999	0.072525
1108.163002	0.071362
1108.322987	0.069390
1108.482954	0.074157
1108.642902	0.074728
1108.802833	0.079589
1108.962745	0.081730
1109.122639	0.084478
1109.282515	0.082670
1109.442372	0.083091
1109.602211	0.085066
1109.762032	0.088020
1109.921835	0.083013
1110.081620	0.086695
1110.241386	0.085866
1110.401134	0.082719
1110.560864	0.082162
1110.720576	0.081867
1110.880269	0.081365
1111.039945	0.079239
1111.199602	0.075328
1111.359240	0.080236
1111.518861	0.075938
1111.678463	0.078854
1111.838047	0.081595
1111.997613	0.079613
1112.157161	0.079198
1112.316690	0.077301
1112.476202	0.078459
1112.635695	0.077049
1112.795169	0.078732
1112.954626	0.078780
1113.114064	0.075282
1113.273484	0.071543
1113.432886	0.074939
1113.592270	0.077768
1113.751635	0.077959
1113.910983	0.077305
1114.070312	0.079851
1114.229622	0.077034
1114.388915	0.080223
1114.548189	0.080979
1114.707445	0.081264
1114.866683	0.076216
1115.025903	0.071876
1115.185104	0.070400
1115.344287	0.072275
1115.503452	0.071644
1115.662599	0.069668
1115.821727	0.067039
1115.980838	0.067357
1116.139930	0.072166
1116.299004	0.075448
1116.458059	0.077687
1116.617097	0.078617
1116.776116	0.074012
1116.935117	0.075282
1117.094099	0.072984
1117.253064	0.074397
1117.412010	0.075301
1117.570938	0.072370
1117.729848	0.069200
1117.888740	0.068448
1118.047613	0.068453
1118.206468	0.067353
1118.365305	0.069357
1118.524124	0.072731
1118.682924	0.074132
1118.841707	0.073590
1119.000471	0.070939
1119.159216	0.074099
1119.317944	0.071457
1119.476653	0.072188
1119.635344	0.073910
1119.794017	0.073922
1119.952672	0.074965
1120.111308	0.073550
1120.269927	0.071293
1120.428527	0.073390
1120.587108	0.072813
1120.745672	0.074805
1120.904217	0.073894
1121.062744	0.077229
1121.221253	0.074729
1121.379744	0.076277
1121.538216	0.071540
1121.696671	0.073841
1121.855107	0.072704
1122.013524	0.072830
1122.171924	0.076614
1122.330305	0.079308
1122.488668	0.078994
1122.647013	0.080235
1122.805340	0.079316
1122.963648	0.081135
1123.121938	0.077506
1123.280210	0.077828
1123.438464	0.078975
1123.596700	0.074301
1123.754917	0.071075
1123.913116	0.069584
1124.071297	0.067835
1124.229459	0.073460
1124.387604	0.078183
1124.545730	0.078652
1124.703838	0.078430
1124.861928	0.075645
1125.019999	0.079279
1125.178052	0.080960
1125.336088	0.081954
1125.494104	0.084891
1125.652103	0.078397
1125.810083	0.075732
1125.968045	0.076845
1126.125989	0.077867
1126.283915	0.076457
1126.441823	0.076051
1126.599712	0.074250
1126.757583	0.075734
1126.915436	0.073334
1127.073270	0.074295
1127.231087	0.076851
1127.388885	0.079277
1127.546665	0.076631
1127.704426	0.076366
1127.862170	0.073133
1128.019895	0.078357
1128.177602	0.080260
1128.335291	0.077711
1128.492961	0.076838
1128.650614	0.074906
1128.808248	0.077714
1128.965864	0.080604
1129.123461	0.082614
1129.281041	0.086498
1129.438602	0.078810
1129.596145	0.075182
1129.753670	0.079764
1129.911176	0.080214
1130.068665	0.078558
1130.226135	0.074757
1130.383587	0.074349
1130.541020	0.078605
1130.698436	0.074904
1130.855833	0.080283
1131.013212	0.078560
1131.170573	0.074413
1131.327915	0.068951
1131.485239	0.063430
1131.642545	0.060837
1131.799833	0.064002
1131.957103	0.064854
1132.114354	0.072288
1132.271588	0.066957
1132.428803	0.070661
1132.585999	0.076296
1132.743178	0.088508
1132.900338	0.093661
1133.057480	0.095867
1133.214604	0.092564
1133.371710	0.088890
1133.528797	0.082133
1133.685866	0.084232
1133.842917	0.082992
1133.999950	0.086853
1134.156964	0.081145
1134.313960	0.080464
1134.470938	0.081560
1134.627898	0.079197
1134.784840	0.073822
1134.941763	0.072879
1135.098668	0.072908
1135.255555	0.072409
1135.412424	0.067546
1135.569274	0.066288
1135.726107	0.065957
1135.882921	0.059003
1136.039716	0.063007
1136.196494	0.064546
1136.353253	0.067381
1136.509995	0.064634
1136.666717	0.063330
1136.823422	0.056946
1136.980109	0.058043
1137.136777	0.059509
1137.293427	0.063117
1137.450059	0.060504
1137.606672	0.059577
1137.763267	0.056860
1137.919844	0.060149
1138.076403	0.055077
1138.232944	0.058483
1138.389466	0.057784
1138.545971	0.059194
1138.702457	0.062422
1138.858924	0.062554
1139.015374	0.063880
1139.171805	0.060567
1139.328218	0.061778
1139.484613	0.068942
1139.640990	0.070573
1139.797348	0.069974
1139.953688	0.068726
1140.110010	0.065922
1140.266314	0.064459
1140.422600	0.064163
1140.578867	0.075013
1140.735116	0.075557
1140.891347	0.077507
1141.047559	0.074185
1141.203754	0.075280
1141.359930	0.074317
1141.516088	0.077149
1141.672228	0.082670
1141.828349	0.083725
1141.984452	0.075284
1142.140537	0.072136
1142.296604	0.066847
1142.452653	0.071103
1142.608683	0.065585
1142.764695	0.067092
1142.920689	0.063629
1143.076665	0.057963
1143.232622	0.054914
1143.388562	0.054630
1143.544483	0.054834
1143.700385	0.055291
1143.856270	0.053338
1144.012136	0.054996
1144.167985	0.056374
1144.323814	0.056022
1144.479626	0.061039
1144.635420	0.067109
1144.791195	0.069073
1144.946952	0.065714
1145.102691	0.066441
1145.258411	0.065755
1145.414113	0.071326
1145.569798	0.068850
1145.725463	0.070237
1145.881111	0.062713
1146.036741	0.065322
1146.192352	0.061265
1146.347945	0.062160
1146.503519	0.059508
1146.659076	0.059675
1146.814614	0.058091
1146.970134	0.061016
1147.125636	0.055081
1147.281120	0.059750
1147.436585	0.052561
1147.592032	0.061780
1147.747461	0.070231
1147.902872	0.070628
1148.058265	0.067760
1148.213639	0.067959
1148.368995	0.067875
1148.524333	0.075271
1148.679653	0.076636
1148.834954	0.077689
1148.990237	0.066826
1149.145502	0.063612
1149.300749	0.063395
1149.455977	0.068688
1149.611188	0.064510
1149.766380	0.059184
1149.921553	0.060427
1150.076709	0.055664
1150.231846	0.055034
1150.386966	0.057350
1150.542066	0.057602
1150.697149	0.059838
1150.852214	0.058103
1151.007260	0.060198
1151.162288	0.063100
1151.317298	0.057328
1151.472289	0.060060
1151.627263	0.055755
1151.782218	0.056436
1151.937155	0.058047
1152.092073	0.051040
1152.246974	0.052837
1152.401856	0.053020
1152.556720	0.051988
1152.711566	0.053410
1152.866393	0.051482
1153.021203	0.060800
1153.175994	0.060253
1153.330767	0.054313
1153.485521	0.060871
1153.640258	0.061304
1153.794976	0.059147
1153.949676	0.059450
1154.104358	0.060492
1154.259021	0.061626
1154.413667	0.057111
1154.568294	0.055295
1154.722903	0.054966
1154.877493	0.053157
1155.032066	0.042516
1155.186620	0.046239
1155.341156	0.041760
1155.495674	0.036791
1155.650173	0.036532
1155.804654	0.040190
1155.959118	0.047219
1156.113562	0.051086
1156.267989	0.049677
1156.422397	0.061502
1156.576788	0.053967
1156.731160	0.055985
1156.885513	0.062546
1157.039849	0.060696
1157.194166	0.062656
1157.348465	0.064868
1157.502746	0.059082
1157.657009	0.060130
1157.811253	0.056211
1157.965479	0.064921
1158.119687	0.068179
1158.273877	0.070924
1158.428048	0.070942
1158.582201	0.068603
1158.736337	0.062724
1158.890453	0.066096
1159.044552	0.071691
1159.198632	0.069092
1159.352694	0.067847
1159.506738	0.072551
1159.660764	0.067320
1159.814771	0.073152
1159.968761	0.070162
1160.122732	0.077909
1160.276685	0.070795
1160.430619	0.060947
1160.584535	0.060909
1160.738434	0.056269
1160.892313	0.049899
1161.046175	0.053261
1161.200019	0.051437
1161.353844	0.053863
1161.507651	0.046262
1161.661440	0.046872
1161.815210	0.041208
1161.968962	0.040707
1162.122697	0.049062
1162.276412	0.050453
1162.430110	0.046363
1162.583789	0.047800
1162.737451	0.044408
1162.891094	0.049370
1163.044718	0.058892
1163.198325	0.066252
1163.351913	0.070290
1163.505483	0.056973
1163.659035	0.059292
1163.812569	0.064448
1163.966084	0.064758
1164.119581	0.062610
1164.273060	0.052794
1164.426521	0.050357
1164.579964	0.054355
1164.733388	0.054871
1164.886794	0.060593
1165.040182	0.052652
1165.193551	0.056260
1165.346903	0.054180
1165.500236	0.054811
1165.653551	0.060759
1165.806848	0.061583
1165.960126	0.065024
1166.113386	0.060480
1166.266628	0.065368
1166.419852	0.070233
1166.573058	0.060423
1166.726245	0.065848
1166.879414	0.065622
1167.032565	0.065435
1167.185698	0.053641
1167.338812	0.045393
1167.491909	0.043890
1167.644987	0.038924
1167.798046	0.038673
1167.951088	0.037955
1168.104111	0.030709
1168.257117	0.030809
1168.410103	0.029052
1168.563072	0.039221
1168.716023	0.049176
1168.868955	0.056943
1169.021869	0.058199
1169.174765	0.058847
1169.327642	0.061312
1169.480501	0.062933
1169.633343	0.072014
1169.786165	0.072084
1169.938970	0.071907
1170.091757	0.069431
1170.244525	0.065430
1170.397275	0.061621
1170.550007	0.065767
1170.702720	0.060140
1170.855415	0.052678
1171.008092	0.046936
1171.160751	0.047247
1171.313392	0.046322
1171.466014	-0.001125
1171.618619	0.053412
1171.771205	0.053412
1171.923772	0.053412
