sample name	sample
index	1084
start time	 04-22-2021  11:25:52 AM


Wavelength (nm)	Absorbance
494.344910	0.218222
494.563924	0.218222
494.782919	0.218222
495.001897	1.326242
495.220856	0.130577
495.439797	0.126308
495.658719	0.157666
495.877624	0.144688
496.096510	0.096596
496.315378	0.040935
496.534227	0.140266
496.753059	0.182715
496.971872	0.209929
497.190667	0.106448
497.409444	0.104965
497.628203	0.099356
497.846943	0.100320
498.065665	0.099368
498.284369	0.099500
498.503055	0.096887
498.721723	0.096162
498.940372	0.096511
499.159003	0.096835
499.377616	0.095271
499.596210	0.095845
499.814787	0.095059
500.033345	0.096611
500.251885	0.096565
500.470406	0.097342
500.688910	0.098012
500.907395	0.098546
501.125862	0.098806
501.344311	0.098698
501.562742	0.098733
501.781154	0.098674
501.999548	0.095746
502.217924	0.095706
502.436282	0.095904
502.654621	0.096584
502.872942	0.096558
503.091245	0.097037
503.309530	0.098963
503.527797	0.099181
503.746045	0.099136
503.964275	0.100220
504.182487	0.100548
504.400681	0.101166
504.618856	0.099671
504.837013	0.099636
505.055152	0.098415
505.273273	0.097358
505.491376	0.096981
505.709460	0.097647
505.927526	0.097161
506.145574	0.096931
506.363604	0.095654
506.581615	0.096205
506.799608	0.096529
507.017583	0.096233
507.235540	0.096404
507.453478	0.096558
507.671399	0.095935
507.889301	0.095902
508.107185	0.095542
508.325050	0.096211
508.542898	0.096707
508.760727	0.096278
508.978538	0.096992
509.196330	0.097148
509.414105	0.097209
509.631861	0.098147
509.849599	0.099275
510.067319	0.099507
510.285021	0.100138
510.502704	0.100209
510.720369	0.099594
510.938016	0.099941
511.155645	0.099858
511.373255	0.099216
511.590848	0.098705
511.808422	0.098565
512.025977	0.099614
512.243515	0.099257
512.461034	0.099696
512.678536	0.101205
512.896018	0.101552
513.113483	0.100820
513.330930	0.101257
513.548358	0.102128
513.765768	0.102183
513.983160	0.101211
514.200533	0.100478
514.417889	0.099550
514.635226	0.099351
514.852545	0.098589
515.069845	0.099057
515.287128	0.098585
515.504392	0.098263
515.721638	0.098659
515.938866	0.099701
516.156075	0.100453
516.373267	0.101162
516.590440	0.101249
516.807594	0.101995
517.024731	0.102459
517.241850	0.103245
517.458950	0.103249
517.676032	0.102930
517.893095	0.101613
518.110141	0.101697
518.327168	0.101306
518.544177	0.101319
518.761168	0.100764
518.978141	0.100909
519.195095	0.100639
519.412031	0.100432
519.628949	0.100806
519.845849	0.101706
520.062731	0.101579
520.279594	0.102788
520.496439	0.102485
520.713266	0.102579
520.930074	0.102354
521.146865	0.102773
521.363637	0.103107
521.580391	0.103079
521.797127	0.103456
522.013844	0.103720
522.230543	0.103117
522.447224	0.103361
522.663887	0.103862
522.880532	0.103998
523.097158	0.104246
523.313766	0.104387
523.530356	0.104383
523.746928	0.104524
523.963481	0.104879
524.180017	0.104839
524.396534	0.104871
524.613032	0.105899
524.829513	0.105954
525.045975	0.105750
525.262420	0.105598
525.478845	0.105481
525.695253	0.105050
525.911643	0.105032
526.128014	0.105018
526.344367	0.105145
526.560702	0.104609
526.777018	0.105293
526.993316	0.105946
527.209597	0.106269
527.425858	0.106471
527.642102	0.106626
527.858328	0.106548
528.074535	0.106660
528.290724	0.106528
528.506894	0.106821
528.723047	0.106609
528.939181	0.107030
529.155297	0.107005
529.371395	0.107693
529.587475	0.108262
529.803536	0.108707
530.019579	0.109042
530.235604	0.109783
530.451611	0.109437
530.667600	0.109494
530.883570	0.109193
531.099522	0.109669
531.315456	0.109054
531.531372	0.109343
531.747269	0.109516
531.963148	0.109891
532.179009	0.109641
532.394852	0.109998
532.610676	0.109858
532.826482	0.110072
533.042271	0.109641
533.258040	0.110441
533.473792	0.110790
533.689525	0.110385
533.905240	0.109949
534.120937	0.110208
534.336616	0.110036
534.552277	0.110979
534.767919	0.110962
534.983543	0.111309
535.199149	0.111389
535.414736	0.111014
535.630306	0.111414
535.845857	0.111616
536.061390	0.111306
536.276904	0.111432
536.492401	0.111038
536.707879	0.110861
536.923339	0.111102
537.138781	0.110853
537.354204	0.110596
537.569610	0.110914
537.784997	0.111028
538.000366	0.111641
538.215716	0.112133
538.431049	0.112594
538.646363	0.113062
538.861659	0.112966
539.076937	0.113209
539.292196	0.113550
539.507438	0.113309
539.722661	0.113751
539.937866	0.113498
540.153052	0.113250
540.368221	0.112953
540.583371	0.113238
540.798503	0.113283
541.013617	0.113655
541.228712	0.113734
541.443789	0.114129
541.658848	0.114062
541.873889	0.114331
542.088912	0.114813
542.303916	0.115016
542.518902	0.114783
542.733870	0.114916
542.948820	0.114931
543.163752	0.115310
543.378665	0.115193
543.593560	0.115075
543.808437	0.115021
544.023295	0.114790
544.238136	0.115031
544.452958	0.115457
544.667762	0.115882
544.882548	0.115866
545.097315	0.116057
545.312064	0.116207
545.526795	0.116715
545.741508	0.116895
545.956203	0.117412
546.170879	0.117554
546.385537	0.117502
546.600177	0.117544
546.814799	0.117897
547.029402	0.117469
547.243988	0.117492
547.458555	0.117304
547.673103	0.117350
547.887634	0.116904
548.102146	0.116985
548.316640	0.117479
548.531116	0.117546
548.745574	0.117409
548.960013	0.117440
549.174435	0.117642
549.388838	0.117810
549.603222	0.118470
549.817589	0.119138
550.031937	0.119227
550.246267	0.118851
550.460579	0.118718
550.674873	0.118673
550.889148	0.119210
551.103405	0.119877
551.317644	0.120033
551.531865	0.119808
551.746068	0.119616
551.960252	0.119623
552.174418	0.119879
552.388566	0.120384
552.602696	0.120908
552.816807	0.120939
553.030900	0.120584
553.244975	0.120554
553.459032	0.120622
553.673070	0.120817
553.887091	0.120945
554.101093	0.121121
554.315077	0.121137
554.529042	0.121255
554.742990	0.121293
554.956919	0.121340
555.170830	0.121571
555.384722	0.121674
555.598597	0.121755
555.812453	0.121956
556.026291	0.121967
556.240111	0.122067
556.453913	0.122099
556.667696	0.122171
556.881461	0.122309
557.095208	0.122350
557.308937	0.122396
557.522647	0.122663
557.736339	0.122393
557.950013	0.122405
558.163669	0.122677
558.377307	0.122894
558.590926	0.122982
558.804527	0.123073
559.018110	0.123363
559.231675	0.123474
559.445221	0.123086
559.658749	0.123396
559.872259	0.123301
560.085751	0.123017
560.299225	0.122987
560.512680	0.123178
560.726117	0.123187
560.939536	0.122988
561.152937	0.122983
561.366319	0.123251
561.579683	0.123212
561.793029	0.123545
562.006357	0.123612
562.219667	0.123553
562.432958	0.123720
562.646231	0.123788
562.859486	0.124180
563.072723	0.124543
563.285941	0.124536
563.499141	0.124677
563.712323	0.124740
563.925487	0.124890
564.138632	0.125070
564.351760	0.124750
564.564869	0.125081
564.777960	0.124479
564.991032	0.124451
565.204087	0.124826
565.417123	0.124980
565.630141	0.124759
565.843140	0.125117
566.056122	0.125079
566.269085	0.125673
566.482030	0.125342
566.694957	0.125892
566.907866	0.125750
567.120756	0.125552
567.333628	0.125658
567.546482	0.125983
567.759318	0.125372
567.972135	0.124851
568.184935	0.124463
568.397716	0.124710
568.610478	0.124765
568.823223	0.125166
569.035949	0.125794
569.248657	0.126239
569.461347	0.126254
569.674019	0.126949
569.886672	0.127229
570.099308	0.127396
570.311925	0.127531
570.524523	0.127485
570.737104	0.127354
570.949666	0.127017
571.162210	0.126845
571.374736	0.127145
571.587244	0.126938
571.799733	0.127356
572.012205	0.127574
572.224658	0.127585
572.437092	0.127906
572.649509	0.127942
572.861907	0.128134
573.074287	0.127789
573.286649	0.127681
573.498993	0.127723
573.711318	0.127622
573.923625	0.127655
574.135914	0.127807
574.348185	0.128089
574.560438	0.127988
574.772672	0.127852
574.984888	0.127980
575.197086	0.128184
575.409266	0.128213
575.621427	0.128560
575.833570	0.128769
576.045695	0.128088
576.257802	0.127880
576.469890	0.127838
576.681961	0.127961
576.894013	0.128864
577.106046	0.128937
577.318062	0.129145
577.530059	0.128902
577.742039	0.128772
577.954000	0.129505
578.165942	0.129676
578.377867	0.130007
578.589773	0.129806
578.801661	0.129355
579.013531	0.129249
579.225382	0.129104
579.437216	0.129006
579.649031	0.129234
579.860828	0.129306
580.072606	0.129075
580.284367	0.129098
580.496109	0.129390
580.707833	0.129105
580.919539	0.128866
581.131227	0.129135
581.342896	0.129284
581.554547	0.129170
581.766180	0.129041
581.977795	0.129159
582.189391	0.128805
582.400969	0.128910
582.612529	0.129446
582.824071	0.129516
583.035595	0.129642
583.247100	0.129918
583.458587	0.129987
583.670056	0.130180
583.881506	0.130259
584.092939	0.130770
584.304353	0.130470
584.515749	0.130256
584.727127	0.130682
584.938486	0.130773
585.149828	0.130843
585.361151	0.131049
585.572456	0.131006
585.783742	0.131293
585.995011	0.131529
586.206261	0.131919
586.417493	0.131623
586.628706	0.131671
586.839902	0.131440
587.051079	0.131458
587.262238	0.131241
587.473379	0.131397
587.684502	0.131152
587.895606	0.130889
588.106692	0.130824
588.317760	0.131239
588.528810	0.131610
588.739841	0.131869
588.950855	0.132186
589.161850	0.132271
589.372827	0.132563
589.583785	0.132496
589.794726	0.132855
590.005648	0.132789
590.216552	0.132622
590.427437	0.132272
590.638305	0.132481
590.849154	0.132256
591.059985	0.132391
591.270798	0.132041
591.481592	0.132358
591.692369	0.132203
591.903127	0.132250
592.113867	0.132502
592.324588	0.132658
592.535292	0.132578
592.745977	0.132459
592.956644	0.132696
593.167293	0.133220
593.377923	0.133429
593.588536	0.133610
593.799130	0.134069
594.009706	0.134294
594.220263	0.134377
594.430803	0.134288
594.641324	0.134383
594.851827	0.134186
595.062312	0.134464
595.272778	0.134367
595.483227	0.134468
595.693657	0.134524
595.904069	0.134467
596.114462	0.134526
596.324838	0.134661
596.535195	0.134707
596.745534	0.135078
596.955855	0.134800
597.166157	0.134998
597.376441	0.135011
597.586707	0.135089
597.796955	0.135341
598.007185	0.135383
598.217396	0.135242
598.427589	0.135402
598.637764	0.135454
598.847921	0.135255
599.058060	0.135137
599.268180	0.135085
599.478282	0.134901
599.688366	0.134888
599.898431	0.134799
600.108479	0.135301
600.318508	0.135720
600.528519	0.135568
600.738511	0.135559
600.948486	0.135639
601.158442	0.135854
601.368380	0.136176
601.578300	0.135986
601.788202	0.135678
601.998085	0.135376
602.207950	0.135202
602.417797	0.135432
602.627626	0.135783
602.837436	0.135782
603.047228	0.135719
603.257002	0.135736
603.466758	0.135710
603.676496	0.136089
603.886215	0.136174
604.095916	0.136196
604.305599	0.136368
604.515264	0.135960
604.724910	0.135950
604.934538	0.136045
605.144148	0.136019
605.353740	0.136165
605.563314	0.136092
605.772869	0.136048
605.982406	0.135987
606.191925	0.135931
606.401425	0.136534
606.610908	0.136612
606.820372	0.136658
607.029818	0.136811
607.239246	0.137033
607.448655	0.137152
607.658047	0.137410
607.867420	0.137659
608.076775	0.137558
608.286111	0.137573
608.495430	0.137837
608.704730	0.137762
608.914012	0.137811
609.123275	0.137885
609.332521	0.137942
609.541748	0.137350
609.750957	0.137310
609.960148	0.137331
610.169321	0.137085
610.378475	0.137048
610.587611	0.137092
610.796729	0.136926
611.005829	0.137013
611.214910	0.137343
611.423974	0.137903
611.633019	0.137903
611.842045	0.138081
612.051054	0.138307
612.260044	0.138193
612.469017	0.138075
612.677970	0.138037
612.886906	0.137834
613.095824	0.137524
613.304723	0.137430
613.513604	0.137186
613.722467	0.137056
613.931311	0.137251
614.140138	0.137330
614.348946	0.137526
614.557736	0.137766
614.766507	0.137963
614.975261	0.138210
615.183996	0.138014
615.392713	0.138302
615.601412	0.138136
615.810092	0.137650
616.018754	0.137799
616.227399	0.138093
616.436024	0.138133
616.644632	0.137852
616.853222	0.137786
617.061793	0.138234
617.270346	0.138083
617.478880	0.138152
617.687397	0.138401
617.895895	0.138264
618.104375	0.138023
618.312837	0.138025
618.521281	0.138081
618.729706	0.138273
618.938113	0.138327
619.146502	0.138557
619.354873	0.139007
619.563226	0.138832
619.771560	0.139111
619.979876	0.139191
620.188174	0.139274
620.396453	0.139733
620.604715	0.139684
620.812958	0.139746
621.021183	0.140005
621.229390	0.140021
621.437578	0.140555
621.645748	0.140463
621.853900	0.140661
622.062034	0.140475
622.270150	0.140231
622.478247	0.140460
622.686326	0.140647
622.894387	0.140538
623.102430	0.140508
623.310454	0.140259
623.518461	0.140465
623.726449	0.140535
623.934418	0.140802
624.142370	0.140934
624.350303	0.140651
624.558218	0.140335
624.766115	0.140425
624.973994	0.140406
625.181855	0.140400
625.389697	0.140183
625.597521	0.140209
625.805327	0.140342
626.013114	0.140238
626.220883	0.140416
626.428634	0.140804
626.636367	0.140590
626.844082	0.140524
627.051778	0.140755
627.259457	0.140966
627.467117	0.140920
627.674758	0.140831
627.882382	0.141193
628.089987	0.141309
628.297574	0.141435
628.505143	0.141801
628.712694	0.142010
628.920226	0.142159
629.127740	0.142161
629.335236	0.142426
629.542714	0.142555
629.750174	0.142266
629.957615	0.142067
630.165038	0.142027
630.372443	0.141778
630.579829	0.141858
630.787198	0.141767
630.994548	0.141696
631.201880	0.141532
631.409194	0.141336
631.616489	0.141643
631.823766	0.141836
632.031025	0.141505
632.238266	0.141781
632.445489	0.141581
632.652693	0.141816
632.859879	0.142019
633.067047	0.142102
633.274197	0.142353
633.481329	0.142587
633.688442	0.142815
633.895537	0.143407
634.102614	0.143486
634.309672	0.143767
634.516713	0.143726
634.723735	0.143741
634.930739	0.143795
635.137724	0.143835
635.344692	0.143747
635.551641	0.143638
635.758572	0.143279
635.965485	0.143293
636.172379	0.143138
636.379256	0.143402
636.586114	0.143723
636.792954	0.143982
636.999775	0.144072
637.206579	0.143750
637.413364	0.143769
637.620131	0.143984
637.826880	0.144059
638.033610	0.144404
638.240323	0.144242
638.447017	0.144284
638.653692	0.144342
638.860350	0.144405
639.066990	0.144966
639.273611	0.145111
639.480214	0.145096
639.686798	0.145270
639.893365	0.145292
640.099913	0.145475
640.306443	0.145611
640.512955	0.145508
640.719449	0.145416
640.925924	0.145456
641.132381	0.145729
641.338820	0.145777
641.545241	0.145829
641.751644	0.146023
641.958028	0.145912
642.164394	0.145880
642.370742	0.146115
642.577071	0.146265
642.783383	0.146435
642.989676	0.146376
643.195951	0.146742
643.402207	0.146899
643.608446	0.146811
643.814666	0.147015
644.020868	0.147047
644.227052	0.147110
644.433218	0.147386
644.639365	0.147704
644.845494	0.147947
645.051605	0.148253
645.257698	0.148302
645.463772	0.148380
645.669828	0.148195
645.875866	0.148399
646.081886	0.148470
646.287888	0.148547
646.493871	0.148459
646.699836	0.148483
646.905783	0.148097
647.111712	0.148049
647.317622	0.148359
647.523514	0.148750
647.729388	0.148661
647.935244	0.148652
648.141082	0.148731
648.346901	0.148399
648.552702	0.148495
648.758485	0.148722
648.964250	0.148738
649.169996	0.148521
649.375724	0.148523
649.581434	0.148655
649.787126	0.148812
649.992800	0.148504
650.198455	0.148851
650.404092	0.148977
650.609711	0.148960
650.815311	0.149267
651.020894	0.149426
651.226458	0.149696
651.432004	0.149907
651.637532	0.150161
651.843041	0.150773
652.048532	0.151058
652.254006	0.151130
652.459460	0.151573
652.664897	0.151575
652.870315	0.151853
653.075716	0.152117
653.281097	0.152070
653.486461	0.152200
653.691807	0.152287
653.897134	0.152235
654.102443	0.152322
654.307734	0.152167
654.513006	0.152389
654.718261	0.152512
654.923497	0.152471
655.128715	0.152527
655.333915	0.152368
655.539096	0.152400
655.744259	0.152389
655.949404	0.152545
656.154531	0.152838
656.359640	0.152784
656.564730	0.152697
656.769802	0.152549
656.974856	0.152715
657.179892	0.152940
657.384909	0.152970
657.589908	0.153088
657.794889	0.153103
657.999852	0.153094
658.204797	0.153261
658.409723	0.153351
658.614631	0.153675
658.819521	0.153812
659.024393	0.153980
659.229246	0.153888
659.434081	0.153894
659.638898	0.153610
659.843697	0.153436
660.048478	0.153139
660.253240	0.153068
660.457984	0.152962
660.662710	0.152936
660.867417	0.152821
661.072107	0.152874
661.276778	0.152850
661.481431	0.153308
661.686066	0.153367
661.890682	0.153848
662.095281	0.154067
662.299861	0.154024
662.504422	0.154052
662.708966	0.154130
662.913491	0.154299
663.117999	0.154309
663.322488	0.154126
663.526958	0.154354
663.731411	0.154394
663.935845	0.154436
664.140261	0.154694
664.344659	0.154897
664.549038	0.155054
664.753400	0.155001
664.957743	0.155412
665.162068	0.155712
665.366375	0.155857
665.570663	0.155984
665.774933	0.156397
665.979185	0.156541
666.183419	0.156694
666.387635	0.157025
666.591832	0.157198
666.796011	0.157099
667.000172	0.157338
667.204315	0.157421
667.408439	0.157707
667.612545	0.157712
667.816634	0.157820
668.020703	0.157738
668.224755	0.157567
668.428788	0.157658
668.632803	0.157844
668.836800	0.157859
669.040779	0.157987
669.244739	0.157936
669.448681	0.157833
669.652605	0.157867
669.856511	0.158082
670.060399	0.158375
670.264268	0.158648
670.468119	0.158737
670.671952	0.158885
670.875767	0.158689
671.079563	0.158724
671.283341	0.158888
671.487101	0.158871
671.690843	0.159068
671.894567	0.159006
672.098272	0.159081
672.301959	0.159299
672.505628	0.159354
672.709278	0.159839
672.912911	0.159967
673.116525	0.160143
673.320121	0.160106
673.523699	0.160091
673.727258	0.160120
673.930799	0.160184
674.134322	0.160146
674.337827	0.159925
674.541314	0.160183
674.744782	0.160240
674.948232	0.160418
675.151664	0.160665
675.355078	0.160944
675.558474	0.161156
675.761851	0.161549
675.965210	0.161761
676.168551	0.162316
676.371873	0.162234
676.575178	0.162247
676.778464	0.162115
676.981732	0.162321
677.184981	0.162368
677.388213	0.162365
677.591426	0.162272
677.794621	0.162489
677.997798	0.162469
678.200956	0.162370
678.404097	0.162371
678.607219	0.162449
678.810323	0.162364
679.013408	0.162343
679.216476	0.162368
679.419525	0.162489
679.622556	0.162421
679.825569	0.162458
680.028563	0.162598
680.231540	0.162660
680.434498	0.162917
680.637438	0.163253
680.840359	0.163387
681.043263	0.163632
681.246148	0.163605
681.449015	0.163471
681.651864	0.163399
681.854694	0.163298
682.057506	0.163465
682.260301	0.163518
682.463076	0.163328
682.665834	0.163249
682.868573	0.163397
683.071295	0.163414
683.273998	0.163448
683.476682	0.163545
683.679349	0.163979
683.881997	0.164122
684.084627	0.163955
684.287239	0.164051
684.489833	0.164092
684.692408	0.163832
684.894965	0.163817
685.097504	0.164226
685.300025	0.164432
685.502527	0.164209
685.705012	0.164084
685.907478	0.164271
686.109925	0.164401
686.312355	0.164550
686.514766	0.164790
686.717159	0.165167
686.919534	0.165210
687.121891	0.165333
687.324230	0.165578
687.526550	0.165867
687.728852	0.166029
687.931136	0.166244
688.133401	0.166391
688.335649	0.166578
688.537878	0.166462
688.740089	0.166441
688.942281	0.166351
689.144456	0.166344
689.346612	0.166646
689.548750	0.166725
689.750870	0.167023
689.952971	0.167072
690.155055	0.167250
690.357120	0.167150
690.559167	0.167215
690.761195	0.167430
690.963206	0.167451
691.165198	0.167287
691.367172	0.167253
691.569128	0.167138
691.771065	0.167270
691.972984	0.167215
692.174885	0.167510
692.376768	0.167613
692.578633	0.167642
692.780479	0.168013
692.982308	0.168105
693.184118	0.168181
693.385909	0.168021
693.587683	0.167995
693.789438	0.168036
693.991175	0.168069
694.192894	0.167968
694.394595	0.167834
694.596277	0.167488
694.797941	0.167558
694.999587	0.167591
695.201215	0.167751
695.402824	0.167774
695.604416	0.167802
695.805989	0.167929
696.007543	0.168065
696.209080	0.168241
696.410598	0.168677
696.612099	0.168659
696.813580	0.168741
697.015044	0.168817
697.216490	0.168854
697.417917	0.168748
697.619326	0.168512
697.820717	0.168430
698.022089	0.168407
698.223444	0.168349
698.424780	0.168521
698.626098	0.168486
698.827397	0.168573
699.028679	0.168574
699.229942	0.168748
699.431187	0.168883
699.632414	0.169210
699.833622	0.169350
700.034813	0.169403
700.235985	0.169348
700.437139	0.169299
700.638274	0.169420
700.839392	0.169686
701.040491	0.169716
701.241572	0.169997
701.442635	0.169995
701.643679	0.170069
701.844706	0.170060
702.045714	0.169859
702.246704	0.170118
702.447675	0.169943
702.648629	0.169942
702.849564	0.169917
703.050481	0.169700
703.251380	0.169509
703.452260	0.169457
703.653122	0.169277
703.853966	0.169542
704.054792	0.169552
704.255600	0.169445
704.456389	0.169324
704.657160	0.169087
704.857913	0.169120
705.058648	0.169070
705.259365	0.168944
705.460063	0.168822
705.660743	0.168765
705.861405	0.168597
706.062048	0.168542
706.262674	0.168573
706.463281	0.168649
706.663870	0.168625
706.864441	0.168584
707.064993	0.168668
707.265527	0.168737
707.466043	0.168692
707.666541	0.168578
707.867021	0.168639
708.067482	0.168473
708.267925	0.168692
708.468350	0.168863
708.668757	0.168977
708.869145	0.169092
709.069516	0.169466
709.269868	0.169502
709.470201	0.169739
709.670517	0.169837
709.870814	0.169798
710.071093	0.169770
710.271354	0.169542
710.471597	0.169556
710.671821	0.169467
710.872028	0.169214
711.072216	0.169361
711.272385	0.169596
711.472537	0.169760
711.672670	0.169901
711.872785	0.170056
712.072882	0.170182
712.272961	0.170322
712.473021	0.170446
712.673063	0.170369
712.873087	0.170161
713.073093	0.169776
713.273081	0.169676
713.473050	0.169901
713.673001	0.169945
713.872934	0.170036
714.072849	0.169998
714.272745	0.169909
714.472623	0.170010
714.672483	0.170105
714.872325	0.170377
715.072148	0.170386
715.271954	0.170122
715.471741	0.169901
715.671509	0.169896
715.871260	0.169770
716.070992	0.169719
716.270707	0.169793
716.470403	0.169757
716.670080	0.169673
716.869740	0.169815
717.069381	0.169600
717.269004	0.169529
717.468609	0.169183
717.668195	0.169108
717.867764	0.168938
718.067314	0.168782
718.266846	0.168546
718.466360	0.168407
718.665855	0.168077
718.865332	0.168294
719.064791	0.168054
719.264232	0.168001
719.463655	0.167993
719.663059	0.167932
719.862445	0.167690
720.061813	0.167724
720.261163	0.167517
720.460494	0.167446
720.659807	0.167258
720.859102	0.167547
721.058379	0.167813
721.257638	0.167744
721.456878	0.167738
721.656100	0.167854
721.855304	0.167761
722.054490	0.168024
722.253657	0.168115
722.452806	0.168242
722.651937	0.168129
722.851050	0.168030
723.050145	0.168090
723.249221	0.168079
723.448279	0.168066
723.647319	0.168123
723.846340	0.167879
724.045344	0.167801
724.244329	0.167482
724.443296	0.167085
724.642245	0.166944
724.841175	0.166982
725.040088	0.166944
725.238982	0.166946
725.437857	0.166743
725.636715	0.166763
725.835554	0.166674
726.034376	0.166653
726.233179	0.166954
726.431963	0.166889
726.630730	0.166729
726.829478	0.166668
727.028208	0.166607
727.226920	0.166519
727.425614	0.166539
727.624289	0.166321
727.822946	0.166296
728.021585	0.166082
728.220206	0.165902
728.418808	0.165758
728.617392	0.165778
728.815958	0.165644
729.014506	0.165764
729.213036	0.165307
729.411547	0.165331
729.610040	0.165341
729.808515	0.165224
730.006972	0.165158
730.205410	0.164886
730.403831	0.164583
730.602233	0.164353
730.800616	0.164034
730.998982	0.164151
731.197329	0.163903
731.395658	0.163880
731.593969	0.163863
731.792262	0.163839
731.990536	0.163790
732.188793	0.163671
732.387031	0.163616
732.585250	0.163719
732.783452	0.163549
732.981635	0.163625
733.179800	0.163326
733.377947	0.162947
733.576076	0.162642
733.774186	0.162551
733.972278	0.162426
734.170352	0.162331
734.368408	0.162053
734.566446	0.162060
734.764465	0.162011
734.962466	0.161938
735.160449	0.162161
735.358413	0.162220
735.556360	0.162222
735.754288	0.162144
735.952198	0.162411
736.150090	0.162679
736.347963	0.162624
736.545818	0.162358
736.743655	0.162454
736.941474	0.162322
737.139275	0.162249
737.337057	0.162075
737.534821	0.162383
737.732567	0.161979
737.930295	0.161528
738.128005	0.161382
738.325696	0.161463
738.523369	0.161121
738.721024	0.160890
738.918660	0.160681
739.116279	0.160539
739.313879	0.160135
739.511461	0.159942
739.709024	0.159893
739.906570	0.159650
740.104097	0.159474
740.301606	0.159499
740.499097	0.159541
740.696569	0.159407
740.894024	0.159528
741.091460	0.159351
741.288878	0.159428
741.486277	0.159355
741.683659	0.159363
741.881022	0.159378
742.078367	0.159530
742.275694	0.159439
742.473002	0.159642
742.670293	0.159418
742.867565	0.159438
743.064819	0.159416
743.262054	0.159688
743.459272	0.159544
743.656471	0.159237
743.853652	0.159054
744.050815	0.159001
744.247959	0.158743
744.445085	0.158763
744.642194	0.158547
744.839283	0.158463
745.036355	0.158123
745.233408	0.158405
745.430444	0.158630
745.627461	0.158543
745.824459	0.158385
746.021440	0.158299
746.218402	0.158137
746.415346	0.158401
746.612272	0.158335
746.809180	0.158303
747.006069	0.158089
747.202940	0.157911
747.399793	0.157649
747.596628	0.157811
747.793444	0.157899
747.990243	0.157848
748.187023	0.157823
748.383784	0.157893
748.580528	0.157946
748.777253	0.157925
748.973960	0.157884
749.170649	0.157887
749.367320	0.157382
749.563973	0.157224
749.760607	0.157164
749.957223	0.156968
750.153821	0.156578
750.350400	0.156472
750.546962	0.156135
750.743505	0.155901
750.940030	0.155928
751.136536	0.156020
751.333025	0.155941
751.529495	0.155690
751.725947	0.155519
751.922381	0.155410
752.118796	0.155202
752.315194	0.155131
752.511573	0.155123
752.707934	0.155002
752.904276	0.154784
753.100601	0.154689
753.296907	0.154966
753.493195	0.154713
753.689465	0.154780
753.885716	0.154574
754.081949	0.154584
754.278164	0.154519
754.474361	0.154316
754.670540	0.154381
754.866700	0.154073
755.062843	0.153813
755.258967	0.153911
755.455072	0.153959
755.651160	0.154005
755.847229	0.154044
756.043280	0.153865
756.239313	0.153799
756.435328	0.153677
756.631324	0.153880
756.827302	0.153834
757.023262	0.153640
757.219204	0.153420
757.415127	0.153451
757.611033	0.153363
757.806920	0.153237
758.002788	0.153258
758.198639	0.153088
758.394471	0.153074
758.590286	0.152942
758.786081	0.152880
758.981859	0.152904
759.177619	0.152599
759.373360	0.152263
759.569083	0.152262
759.764788	0.152028
759.960474	0.152216
760.156143	0.151914
760.351793	0.151709
760.547425	0.151629
760.743038	0.151334
760.938634	0.151299
761.134211	0.151157
761.329770	0.151019
761.525311	0.150823
761.720833	0.150510
761.916338	0.150458
762.111824	0.150679
762.307292	0.150720
762.502741	0.150913
762.698173	0.150869
762.893586	0.150856
763.088981	0.150824
763.284358	0.150815
763.479716	0.150697
763.675057	0.150710
763.870379	0.150411
764.065683	0.150140
764.260968	0.149796
764.456236	0.149495
764.651485	0.149388
764.846716	0.149202
765.041929	0.149334
765.237123	0.149318
765.432299	0.149138
765.627457	0.149265
765.822597	0.149136
766.017719	0.148993
766.212822	0.149207
766.407907	0.149318
766.602974	0.149496
766.798023	0.149135
766.993054	0.149072
767.188066	0.149109
767.383060	0.148823
767.578036	0.148930
767.772993	0.148885
767.967933	0.148693
768.162854	0.148750
768.357757	0.148683
768.552642	0.148999
768.747508	0.149242
768.942356	0.149115
769.137186	0.148923
769.331998	0.148852
769.526792	0.148726
769.721567	0.148506
769.916324	0.148403
770.111063	0.148166
770.305784	0.148077
770.500486	0.147778
770.695171	0.147660
770.889837	0.147666
771.084484	0.147720
771.279114	0.147509
771.473725	0.147792
771.668318	0.147502
771.862893	0.147656
772.057450	0.147403
772.251988	0.147339
772.446509	0.147526
772.641011	0.147410
772.835494	0.147387
773.029960	0.147655
773.224407	0.147483
773.418836	0.147641
773.613247	0.147316
773.807640	0.147366
774.002014	0.147116
774.196370	0.147017
774.390708	0.147147
774.585028	0.147128
774.779330	0.147051
774.973613	0.146997
775.167878	0.147125
775.362125	0.147210
775.556354	0.147130
775.750564	0.147381
775.944756	0.147153
776.138930	0.147095
776.333086	0.146996
776.527223	0.147103
776.721343	0.147236
776.915444	0.147089
777.109526	0.147080
777.303591	0.147075
777.497637	0.147093
777.691666	0.147346
777.885676	0.147432
778.079667	0.147373
778.273641	0.147143
778.467596	0.147249
778.661533	0.146967
778.855452	0.146895
779.049352	0.147083
779.243235	0.146983
779.437099	0.146586
779.630945	0.146554
779.824773	0.146521
780.018582	0.146752
780.212373	0.146284
780.406146	0.146527
780.599901	0.146601
780.793638	0.146401
780.987356	0.146371
781.181056	0.146694
781.374738	0.146781
781.568402	0.146929
781.762047	0.146725
781.955674	0.147077
782.149283	0.147006
782.342874	0.147221
782.536447	0.147255
782.730001	0.147527
782.923537	0.147676
783.117055	0.147707
783.310555	0.147805
783.504036	0.148005
783.697499	0.148207
783.890944	0.148344
784.084371	0.148338
784.277780	0.148590
784.471170	0.148665
784.664542	0.148601
784.857896	0.148743
785.051231	0.148749
785.244549	0.148967
785.437848	0.148961
785.631129	0.149024
785.824392	0.148990
786.017636	0.149147
786.210863	0.149055
786.404071	0.149219
786.597260	0.149310
786.790432	0.149263
786.983585	0.149232
787.176721	0.149087
787.369838	0.148970
787.562936	0.149019
787.756017	0.148868
787.949079	0.148856
788.142123	0.148737
788.335149	0.148682
788.528156	0.148841
788.721146	0.148859
788.914117	0.148964
789.107070	0.149132
789.300005	0.148954
789.492921	0.148952
789.685819	0.148756
789.878699	0.148694
790.071561	0.148789
790.264405	0.148926
790.457230	0.148953
790.650037	0.149046
790.842826	0.149227
791.035597	0.149704
791.228349	0.149711
791.421084	0.150163
791.613800	0.150326
791.806497	0.150392
791.999177	0.150365
792.191838	0.150519
792.384481	0.150431
792.577106	0.150309
792.769713	0.150414
792.962301	0.150543
793.154871	0.150592
793.347423	0.150774
793.539957	0.150967
793.732473	0.151114
793.924970	0.151162
794.117449	0.151367
794.309910	0.151697
794.502353	0.151668
794.694777	0.151814
794.887183	0.151793
795.079571	0.151930
795.271941	0.151757
795.464293	0.151797
795.656626	0.151977
795.848941	0.152283
796.041238	0.152432
796.233516	0.152767
796.425777	0.152945
796.618019	0.153378
796.810243	0.153447
797.002449	0.153859
797.194636	0.154109
797.386805	0.154151
797.578956	0.154296
797.771089	0.154381
797.963204	0.154265
798.155300	0.154470
798.347378	0.154327
798.539438	0.154311
798.731480	0.154278
798.923503	0.154411
799.115509	0.154596
799.307496	0.154522
799.499465	0.154557
799.691415	0.154588
799.883348	0.154515
800.075262	0.154477
800.267158	0.154961
800.459035	0.154926
800.650895	0.154783
800.842736	0.154817
801.034559	0.154740
801.226364	0.154886
801.418150	0.155056
801.609919	0.155140
801.801669	0.155369
801.993401	0.155220
802.185114	0.155444
802.376810	0.155863
802.568487	0.155944
802.760146	0.156342
802.951787	0.156438
803.143409	0.156442
803.335014	0.156665
803.526600	0.156761
803.718168	0.157007
803.909717	0.157275
804.101249	0.156996
804.292762	0.157082
804.484257	0.157243
804.675734	0.157247
804.867192	0.157703
805.058632	0.157928
805.250054	0.158228
805.441458	0.158353
805.632844	0.158347
805.824211	0.158838
806.015561	0.159044
806.206891	0.159131
806.398204	0.159440
806.589499	0.159418
806.780775	0.159422
806.972033	0.159752
807.163273	0.159739
807.354495	0.160068
807.545698	0.160037
807.736883	0.160322
807.928050	0.160542
808.119199	0.160698
808.310329	0.160851
808.501441	0.161156
808.692535	0.161242
808.883611	0.161441
809.074669	0.161420
809.265708	0.161848
809.456729	0.161861
809.647732	0.162020
809.838717	0.162024
810.029683	0.162128
810.220632	0.162217
810.411562	0.162513
810.602474	0.162794
810.793367	0.162908
810.984242	0.162760
811.175100	0.162857
811.365938	0.162872
811.556759	0.163251
811.747562	0.163300
811.938346	0.163511
812.129112	0.163528
812.319860	0.163758
812.510589	0.163808
812.701300	0.163875
812.891994	0.163819
813.082668	0.163929
813.273325	0.164031
813.463964	0.164482
813.654584	0.164678
813.845186	0.164381
814.035769	0.164238
814.226335	0.164438
814.416882	0.164865
814.607411	0.165220
814.797922	0.165312
814.988415	0.165516
815.178889	0.165308
815.369345	0.165078
815.559783	0.165445
815.750203	0.165800
815.940605	0.165972
816.130988	0.165976
816.321353	0.166251
816.511700	0.166587
816.702028	0.166579
816.892339	0.167099
817.082631	0.167651
817.272905	0.167798
817.463161	0.167675
817.653398	0.168036
817.843617	0.168239
818.033819	0.168621
818.224001	0.168801
818.414166	0.169062
818.604312	0.169149
818.794440	0.169174
818.984550	0.169425
819.174642	0.169963
819.364716	0.170231
819.554771	0.170464
819.744808	0.170551
819.934827	0.170833
820.124827	0.170959
820.314810	0.171129
820.504774	0.171330
820.694720	0.171431
820.884647	0.171686
821.074557	0.171555
821.264448	0.171684
821.454321	0.171786
821.644176	0.172202
821.834012	0.172608
822.023831	0.172703
822.213631	0.172861
822.403413	0.173253
822.593176	0.173186
822.782922	0.173463
822.972649	0.173636
823.162358	0.173846
823.352049	0.173643
823.541721	0.173780
823.731376	0.173996
823.921012	0.174112
824.110629	0.174149
824.300229	0.174570
824.489811	0.175229
824.679374	0.175291
824.868919	0.175616
825.058445	0.176054
825.247954	0.175934
825.437444	0.176220
825.626916	0.176501
825.816370	0.176978
826.005806	0.177198
826.195223	0.177299
826.384622	0.177766
826.574003	0.177696
826.763366	0.177950
826.952711	0.178471
827.142037	0.178802
827.331345	0.179201
827.520635	0.179506
827.709906	0.179834
827.899160	0.179995
828.088395	0.180243
828.277612	0.180814
828.466810	0.180882
828.655991	0.181191
828.845153	0.181483
829.034297	0.181717
829.223423	0.181824
829.412531	0.181938
829.601620	0.182095
829.790691	0.182241
829.979744	0.182285
830.168779	0.182780
830.357795	0.182850
830.546793	0.182816
830.735773	0.182859
830.924735	0.183005
831.113679	0.183287
831.302604	0.183498
831.491511	0.183947
831.680400	0.184303
831.869271	0.184427
832.058123	0.184877
832.246957	0.185385
832.435773	0.185743
832.624571	0.186135
832.813351	0.186491
833.002112	0.187032
833.190855	0.187252
833.379580	0.187567
833.568287	0.187667
833.756975	0.187797
833.945645	0.187818
834.134297	0.188040
834.322931	0.188161
834.511547	0.188347
834.700144	0.188209
834.888723	0.188092
835.077284	0.188297
835.265826	0.188646
835.454351	0.188948
835.642857	0.189311
835.831345	0.189521
836.019815	0.189734
836.208266	0.189939
836.396699	0.190170
836.585114	0.190603
836.773511	0.190793
836.961890	0.191255
837.150250	0.191491
837.338592	0.191719
837.526916	0.192032
837.715222	0.192149
837.903510	0.192330
838.091779	0.192513
838.280030	0.192981
838.468263	0.193450
838.656477	0.193539
838.844674	0.193901
839.032852	0.194382
839.221012	0.194821
839.409153	0.195180
839.597277	0.195381
839.785382	0.195701
839.973469	0.196076
840.161538	0.196282
840.349589	0.196500
840.537621	0.196708
840.725635	0.196860
840.913631	0.197245
841.101609	0.197791
841.289568	0.198353
841.477509	0.199316
841.665432	0.199402
841.853337	0.199573
842.041224	0.200105
842.229092	0.200410
842.416942	0.200565
842.604774	0.200835
842.792588	0.201105
842.980383	0.201261
843.168160	0.201002
843.355919	0.201145
843.543660	0.201291
843.731382	0.201449
843.919087	0.201535
844.106773	0.202077
844.294441	0.201865
844.482090	0.202022
844.669722	0.202055
844.857335	0.202438
845.044930	0.202791
845.232507	0.202965
845.420065	0.203032
845.607605	0.203187
845.795127	0.202957
845.982631	0.203592
846.170117	0.203738
846.357584	0.204035
846.545033	0.203894
846.732464	0.203691
846.919877	0.204036
847.107272	0.204224
847.294648	0.204338
847.482006	0.204836
847.669346	0.204848
847.856667	0.205114
848.043971	0.205300
848.231256	0.206007
848.418523	0.206783
848.605771	0.207081
848.793002	0.207113
848.980214	0.207568
849.167408	0.207823
849.354584	0.208145
849.541742	0.208331
849.728881	0.208798
849.916002	0.208832
850.103105	0.209341
850.290190	0.209755
850.477256	0.210393
850.664304	0.210964
850.851334	0.211211
851.038346	0.211389
851.225340	0.212027
851.412315	0.212471
851.599272	0.212793
851.786211	0.212656
851.973132	0.212852
852.160034	0.212948
852.346918	0.213124
852.533784	0.213403
852.720632	0.213496
852.907462	0.213572
853.094273	0.213623
853.281066	0.214192
853.467841	0.214625
853.654598	0.214736
853.841336	0.214860
854.028056	0.215084
854.214758	0.215134
854.401442	0.215670
854.588107	0.215748
854.774755	0.215751
854.961384	0.215705
855.147995	0.215831
855.334587	0.216240
855.521162	0.216838
855.707718	0.217235
855.894256	0.217704
856.080775	0.218081
856.267277	0.218635
856.453760	0.219074
856.640225	0.219392
856.826672	0.219739
857.013101	0.219916
857.199511	0.220088
857.385903	0.220116
857.572277	0.220580
857.758633	0.220755
857.944970	0.221022
858.131290	0.221320
858.317591	0.221537
858.503873	0.221690
858.690138	0.221968
858.876384	0.222382
859.062612	0.222567
859.248822	0.222736
859.435014	0.223291
859.621188	0.223567
859.807343	0.223932
859.993480	0.224388
860.179599	0.224630
860.365699	0.224893
860.551781	0.224670
860.737846	0.225140
860.923891	0.224857
861.109919	0.224871
861.295929	0.224934
861.481920	0.225240
861.667893	0.225167
861.853848	0.225617
862.039784	0.225781
862.225702	0.226535
862.411603	0.226337
862.597484	0.227076
862.783348	0.227003
862.969193	0.227336
863.155021	0.227116
863.340830	0.227475
863.526620	0.227497
863.712393	0.227834
863.898147	0.227605
864.083883	0.228225
864.269601	0.228028
864.455301	0.228423
864.640982	0.228530
864.826645	0.228799
865.012290	0.229189
865.197917	0.229303
865.383526	0.229470
865.569116	0.229724
865.754688	0.229789
865.940242	0.230267
866.125777	0.230240
866.311295	0.230398
866.496794	0.230471
866.682275	0.230405
866.867737	0.230625
867.053182	0.230831
867.238608	0.230832
867.424016	0.230844
867.609406	0.230971
867.794778	0.231005
867.980131	0.230758
868.165466	0.231162
868.350783	0.230847
868.536082	0.230871
868.721362	0.230795
868.906625	0.231065
869.091869	0.231258
869.277094	0.231336
869.462302	0.231675
869.647491	0.232192
869.832662	0.232258
870.017815	0.232696
870.202950	0.233099
870.388066	0.233324
870.573165	0.233475
870.758245	0.233431
870.943306	0.233892
871.128350	0.233987
871.313375	0.234259
871.498382	0.234664
871.683371	0.234991
871.868342	0.235185
872.053294	0.235350
872.238229	0.235586
872.423144	0.235848
872.608042	0.235865
872.792922	0.236138
872.977783	0.236062
873.162626	0.236237
873.347451	0.236631
873.532258	0.236694
873.717046	0.236974
873.901816	0.237222
874.086568	0.237729
874.271302	0.237887
874.456017	0.238150
874.640715	0.238350
874.825394	0.238647
875.010055	0.238761
875.194697	0.238865
875.379322	0.238967
875.563928	0.239177
875.748516	0.239317
875.933085	0.239687
876.117637	0.239873
876.302170	0.239788
876.486685	0.239708
876.671182	0.239677
876.855661	0.239918
877.040121	0.240472
877.224563	0.240743
877.408987	0.240851
877.593393	0.240905
877.777780	0.241199
877.962150	0.241728
878.146501	0.242008
878.330833	0.242091
878.515148	0.242637
878.699444	0.242136
878.883722	0.242533
879.067982	0.242711
879.252224	0.242873
879.436447	0.243271
879.620653	0.243387
879.804840	0.243502
879.989008	0.243806
880.173159	0.243767
880.357291	0.244164
880.541405	0.243841
880.725501	0.243952
880.909579	0.244090
881.093638	0.243599
881.277680	0.243728
881.461703	0.244001
881.645707	0.243797
881.829694	0.243804
882.013662	0.243823
882.197612	0.244282
882.381544	0.244443
882.565458	0.244487
882.749353	0.244714
882.933230	0.245011
883.117089	0.245073
883.300930	0.245454
883.484753	0.246148
883.668557	0.246375
883.852343	0.246220
884.036111	0.246320
884.219861	0.246056
884.403592	0.245970
884.587305	0.246590
884.771000	0.246286
884.954677	0.246505
885.138335	0.245567
885.321976	0.245505
885.505598	0.245517
885.689201	0.245071
885.872787	0.245801
886.056354	0.246029
886.239904	0.245018
886.423434	0.245146
886.606947	0.245145
886.790442	0.245601
886.973918	0.245442
887.157376	0.245109
887.340816	0.245621
887.524237	0.245039
887.707641	0.245207
887.891026	0.245295
888.074393	0.245158
888.257741	0.244890
888.441072	0.244730
888.624384	0.245013
888.807678	0.245060
888.990954	0.244769
889.174211	0.244852
889.357451	0.244758
889.540672	0.244988
889.723875	0.245257
889.907059	0.245163
890.090226	0.245315
890.273374	0.245152
890.456504	0.245392
890.639616	0.245772
890.822709	0.245354
891.005785	0.245520
891.188842	0.245354
891.371881	0.245072
891.554901	0.245229
891.737904	0.245021
891.920888	0.245166
892.103854	0.245010
892.286802	0.244972
892.469731	0.245416
892.652643	0.245021
892.835536	0.245060
893.018410	0.245112
893.201267	0.245356
893.384106	0.245429
893.566926	0.245715
893.749728	0.245701
893.932511	0.245047
894.115277	0.245011
894.298024	0.244802
894.480753	0.244704
894.663464	0.244947
894.846157	0.244628
895.028831	0.244581
895.211487	0.244029
895.394125	0.244355
895.576745	0.244969
895.759346	0.244788
895.941930	0.245088
896.124495	0.244818
896.307041	0.244288
896.489570	0.244317
896.672080	0.244006
896.854573	0.244082
897.037046	0.244041
897.219502	0.243245
897.401940	0.243227
897.584359	0.243662
897.766760	0.243860
897.949143	0.243883
898.131507	0.243885
898.313854	0.243703
898.496182	0.243278
898.678492	0.242801
898.860783	0.243165
899.043057	0.242887
899.225312	0.242408
899.407549	0.242311
899.589768	0.242121
899.771968	0.241583
899.954151	0.241157
900.136315	0.241167
900.318461	0.240922
900.500588	0.240497
900.682698	0.240081
900.864789	0.239743
901.046862	0.239580
901.228917	0.239791
901.410953	0.239740
901.592971	0.240218
901.774972	0.240114
901.956953	0.239854
902.138917	0.239880
902.320862	0.240398
902.502790	0.240028
902.684699	0.239900
902.866589	0.239645
903.048462	0.239485
903.230316	0.239246
903.412152	0.239402
903.593970	0.239544
903.775770	0.239111
903.957551	0.238835
904.139314	0.238855
904.321059	0.238740
904.502786	0.238357
904.684494	0.238062
904.866185	0.237916
905.047857	0.237845
905.229510	0.237843
905.411146	0.237919
905.592763	0.237487
905.774363	0.237795
905.955943	0.237593
906.137506	0.237843
906.319051	0.237830
906.500577	0.237415
906.682085	0.236783
906.863575	0.236202
907.045046	0.236011
907.226500	0.236100
907.407935	0.235417
907.589352	0.235498
907.770750	0.235104
907.952131	0.234797
908.133493	0.234596
908.314837	0.234432
908.496163	0.234278
908.677470	0.234580
908.858760	0.233730
909.040031	0.233912
909.221284	0.233284
909.402518	0.232685
909.583735	0.232534
909.764933	0.231897
909.946113	0.231317
910.127275	0.230658
910.308418	0.229495
910.489544	0.229778
910.670651	0.228931
910.851740	0.228221
911.032810	0.228231
911.213863	0.227898
911.394897	0.228001
911.575913	0.228121
911.756911	0.228498
911.937890	0.228569
912.118851	0.228505
912.299794	0.227785
912.480719	0.227952
912.661626	0.227291
912.842514	0.226892
913.023384	0.226731
913.204236	0.226327
913.385070	0.225781
913.565886	0.225343
913.746683	0.224709
913.927462	0.224938
914.108223	0.224760
914.288965	0.224850
914.469690	0.224797
914.650396	0.224357
914.831084	0.223606
915.011754	0.223726
915.192405	0.223791
915.373038	0.223664
915.553653	0.223278
915.734250	0.222354
915.914829	0.221803
916.095389	0.221105
916.275931	0.220780
916.456455	0.220929
916.636961	0.220082
916.817448	0.219347
916.997917	0.218373
917.178368	0.217906
917.358801	0.217933
917.539216	0.217134
917.719612	0.216920
917.899990	0.215947
918.080350	0.214871
918.260692	0.214183
918.441015	0.213615
918.621320	0.213437
918.801607	0.213108
918.981876	0.212213
919.162127	0.212405
919.342359	0.211843
919.522573	0.211203
919.702769	0.210868
919.882947	0.211118
920.063106	0.210924
920.243247	0.210737
920.423370	0.210361
920.603475	0.210406
920.783562	0.209618
920.963630	0.209120
921.143680	0.209498
921.323712	0.209873
921.503725	0.208903
921.683721	0.208150
921.863698	0.207825
922.043657	0.207670
922.223598	0.207011
922.403520	0.206428
922.583424	0.206178
922.763311	0.206010
922.943178	0.204919
923.123028	0.204315
923.302859	0.203709
923.482673	0.202730
923.662467	0.202005
923.842244	0.202093
924.022003	0.202088
924.201743	0.201375
924.381465	0.200623
924.561169	0.200316
924.740854	0.199799
924.920522	0.199102
925.100171	0.197894
925.279802	0.197254
925.459414	0.195921
925.639009	0.195399
925.818585	0.194228
925.998143	0.193849
926.177683	0.192895
926.357205	0.192765
926.536708	0.192729
926.716193	0.193550
926.895660	0.193409
927.075109	0.192983
927.254539	0.192305
927.433951	0.192593
927.613345	0.191623
927.792721	0.192119
927.972079	0.190978
928.151418	0.190567
928.330739	0.189623
928.510042	0.188659
928.689327	0.188648
928.868593	0.187052
929.047841	0.186550
929.227071	0.186106
929.406283	0.184707
929.585476	0.183926
929.764652	0.183227
929.943809	0.182186
930.122948	0.181818
930.302068	0.180877
930.481171	0.181766
930.660255	0.180974
930.839321	0.180346
931.018369	0.179722
931.197398	0.179780
931.376409	0.179541
931.555402	0.179202
931.734377	0.178556
931.913334	0.178014
932.092272	0.176219
932.271192	0.175426
932.450094	0.174967
932.628978	0.174613
932.807844	0.173881
932.986691	0.173047
933.165520	0.172832
933.344331	0.171496
933.523123	0.170379
933.701898	0.170952
933.880654	0.170000
934.059392	0.169172
934.238111	0.169022
934.416813	0.167778
934.595496	0.167656
934.774161	0.166675
934.952808	0.166493
935.131437	0.167032
935.310047	0.165520
935.488639	0.165545
935.667213	0.165060
935.845769	0.163953
936.024306	0.163554
936.202825	0.161673
936.381326	0.160778
936.559809	0.160033
936.738274	0.158762
936.916720	0.158731
937.095148	0.157968
937.273558	0.156895
937.451950	0.156885
937.630323	0.157203
937.808678	0.156830
937.987015	0.156753
938.165334	0.156828
938.343635	0.156441
938.521917	0.155564
938.700181	0.155024
938.878427	0.154837
939.056655	0.153349
939.234864	0.151907
939.413055	0.151235
939.591228	0.149904
939.769383	0.148964
939.947519	0.147393
940.125638	0.146690
940.303738	0.145871
940.481820	0.145025
940.659883	0.143978
940.837929	0.142930
941.015956	0.142775
941.193965	0.142745
941.371955	0.141423
941.549928	0.141026
941.727882	0.140363
941.905818	0.140026
942.083736	0.138740
942.261636	0.138813
942.439517	0.138344
942.617380	0.137104
942.795225	0.136917
942.973052	0.136658
943.150860	0.136088
943.328651	0.134814
943.506423	0.132873
943.684176	0.132917
943.861912	0.132242
944.039629	0.131302
944.217328	0.130430
944.395009	0.128081
944.572672	0.127678
944.750317	0.126797
944.927943	0.126990
945.105551	0.126246
945.283141	0.126169
945.460712	0.125327
945.638265	0.126860
945.815801	0.127567
945.993317	0.127693
946.170816	0.125920
946.348297	0.124573
946.525759	0.122971
946.703203	0.123603
946.880629	0.121581
947.058036	0.122038
947.235425	0.119426
947.412797	0.119273
947.590149	0.118925
947.767484	0.120249
947.944800	0.120127
948.122099	0.119709
948.299379	0.119539
948.476640	0.120441
948.653884	0.118184
948.831109	0.118295
949.008316	0.117619
949.185505	0.116034
949.362676	0.113578
949.539828	0.115383
949.716962	0.114046
949.894078	0.113081
950.071176	0.111916
950.248256	0.111008
950.425317	0.110736
950.602360	0.109411
950.779385	0.109292
950.956391	0.109063
951.133380	0.107090
951.310350	0.109164
951.487302	0.109017
951.664235	0.109753
951.841151	0.110002
952.018048	0.108827
952.194927	0.107570
952.371788	0.107030
952.548631	0.107126
952.725455	0.106992
952.902261	0.104895
953.079049	0.103089
953.255819	0.102887
953.432570	0.102498
953.609303	0.102614
953.786018	0.101284
953.962715	0.101066
954.139394	0.099394
954.316054	0.098105
954.492696	0.099163
954.669320	0.097867
954.845926	0.095375
955.022513	0.093542
955.199083	0.093295
955.375634	0.095144
955.552166	0.094686
955.728681	0.095050
955.905177	0.094795
956.081655	0.092960
956.258115	0.093697
956.434557	0.093168
956.610980	0.094614
956.787385	0.093271
956.963772	0.090400
957.140141	0.090540
957.316492	0.089093
957.492824	0.089016
957.669138	0.088929
957.845434	0.090225
958.021712	0.091718
958.197971	0.092046
958.374212	0.092428
958.550435	0.093878
958.726640	0.093093
958.902826	0.093372
959.078995	0.092643
959.255145	0.091911
959.431277	0.089740
959.607390	0.089183
959.783486	0.088882
959.959563	0.089886
960.135622	0.092247
960.311662	0.094206
960.487685	0.094173
960.663689	0.094306
960.839675	0.094485
961.015643	0.096706
961.191593	0.094063
961.367524	0.094302
961.543437	0.093137
961.719332	0.090239
961.895209	0.089279
962.071067	0.091860
962.246907	0.092377
962.422730	0.092377
962.598533	0.089377
962.774319	0.092748
962.950086	0.091327
963.125835	0.089505
963.301566	0.089208
963.477279	0.088606
963.652973	0.086582
963.828650	0.086196
964.004308	0.085093
964.179947	0.087007
964.355569	0.085981
964.531172	0.085522
964.706757	0.087788
964.882324	0.086001
965.057873	0.087675
965.233403	0.087698
965.408916	0.086460
965.584410	0.089485
965.759885	0.087616
965.935343	0.085464
966.110782	0.086452
966.286203	0.084957
966.461606	0.086031
966.636991	0.083595
966.812357	0.084329
966.987705	0.085819
967.163035	0.083035
967.338347	0.082984
967.513641	0.083054
967.688916	0.083248
967.864173	0.083644
968.039412	0.084434
968.214632	0.084717
968.389835	0.083375
968.565019	0.082382
968.740185	0.082394
968.915333	0.083896
969.090462	0.085884
969.265573	0.083170
969.440667	0.084890
969.615741	0.085081
969.790798	0.086712
969.965836	0.086473
970.140856	0.085768
970.315858	0.088465
970.490842	0.087410
970.665808	0.086472
970.840755	0.087063
971.015684	0.084613
971.190595	0.084872
971.365487	0.083623
971.540362	0.086880
971.715218	0.087127
971.890056	0.084308
972.064875	0.085717
972.239677	0.086745
972.414460	0.088556
972.589225	0.089546
972.763972	0.091106
972.938700	0.089016
973.113411	0.086882
973.288103	0.089180
973.462777	0.088509
973.637432	0.086229
973.812070	0.085799
973.986689	0.082582
974.161290	0.082126
974.335873	0.080556
974.510437	0.080635
974.684984	0.081051
974.859512	0.077507
975.034022	0.079320
975.208513	0.081008
975.382987	0.080554
975.557442	0.084435
975.731879	0.084891
975.906298	0.085343
976.080698	0.087149
976.255080	0.087245
976.429445	0.090041
976.603790	0.089426
976.778118	0.090293
976.952427	0.089805
977.126719	0.088475
977.300992	0.088564
977.475246	0.089552
977.649483	0.091662
977.823701	0.091042
977.997901	0.092337
978.172083	0.093631
978.346247	0.094665
978.520392	0.096002
978.694519	0.096579
978.868628	0.097167
979.042719	0.096627
979.216791	0.095260
979.390845	0.096725
979.564882	0.094253
979.738899	0.093749
979.912899	0.090594
980.086880	0.091169
980.260843	0.090477
980.434788	0.090181
980.608715	0.088584
980.782623	0.088334
980.956514	0.085447
981.130386	0.086417
981.304240	0.085346
981.478075	0.086377
981.651892	0.086180
981.825692	0.086685
981.999472	0.084821
982.173235	0.085326
982.346980	0.083308
982.520706	0.083954
982.694414	0.083415
982.868104	0.084799
983.041775	0.085618
983.215428	0.083133
983.389064	0.083022
983.562680	0.085187
983.736279	0.085226
983.909860	0.086147
984.083422	0.086372
984.256966	0.087693
984.430491	0.084739
984.603999	0.084489
984.777488	0.085506
984.950959	0.084963
985.124412	0.084695
985.297847	0.083975
985.471263	0.085907
985.644661	0.086828
985.818041	0.085857
985.991403	0.087528
986.164747	0.089435
986.338072	0.089636
986.511379	0.087848
986.684668	0.089485
986.857938	0.089695
987.031191	0.087617
987.204425	0.086827
987.377641	0.086474
987.550839	0.086360
987.724018	0.083378
987.897179	0.085314
988.070322	0.086969
988.243447	0.085286
988.416554	0.086097
988.589642	0.087919
988.762712	0.088792
988.935764	0.088410
989.108798	0.090946
989.281813	0.092398
989.454811	0.090269
989.627790	0.090774
989.800751	0.092002
989.973693	0.091188
990.146617	0.090173
990.319524	0.089502
990.492412	0.091462
990.665281	0.089542
990.838133	0.091064
991.010966	0.091110
991.183781	0.090121
991.356578	0.089679
991.529356	0.088668
991.702117	0.086785
991.874859	0.086355
992.047583	0.084027
992.220288	0.085297
992.392976	0.083296
992.565645	0.082888
992.738296	0.085047
992.910929	0.082156
993.083543	0.083382
993.256139	0.086721
993.428718	0.087841
993.601277	0.090603
993.773819	0.089769
993.946342	0.090880
994.118848	0.091110
994.291335	0.089838
994.463803	0.090544
994.636254	0.090662
994.808686	0.088837
994.981100	0.089485
995.153496	0.088471
995.325874	0.086770
995.498233	0.087333
995.670574	0.088711
995.842897	0.086630
996.015202	0.090315
996.187488	0.090985
996.359757	0.090380
996.532007	0.088532
996.704239	0.088677
996.876452	0.089226
997.048648	0.087095
997.220825	0.087888
997.392984	0.090861
997.565124	0.087831
997.737247	0.087512
997.909351	0.087756
998.081437	0.087180
998.253505	0.086732
998.425554	0.085949
998.597586	0.084721
998.769599	0.084596
998.941594	0.084146
999.113571	0.085149
999.285529	0.084312
999.457469	0.083472
999.629391	0.083550
999.801295	0.083948
999.973181	0.085118
1000.145048	0.087194
1000.316897	0.086026
1000.488728	0.086144
1000.660541	0.085675
1000.832335	0.087394
1001.004111	0.086979
1001.175869	0.089064
1001.347609	0.087645
1001.519331	0.087887
1001.691034	0.086467
1001.862719	0.086150
1002.034386	0.085533
1002.206035	0.088302
1002.377665	0.086200
1002.549277	0.088494
1002.720871	0.087724
1002.892447	0.088621
1003.064004	0.088621
1003.235544	0.089488
1003.407065	0.089638
1003.578568	0.091300
1003.750052	0.088690
1003.921519	0.089571
1004.092967	0.089758
1004.264397	0.089915
1004.435809	0.091905
1004.607202	0.091050
1004.778577	0.091553
1004.949934	0.090784
1005.121273	0.088912
1005.292594	0.089969
1005.463896	0.091205
1005.635180	0.091854
1005.806446	0.092621
1005.977694	0.089839
1006.148923	0.090612
1006.320135	0.090154
1006.491328	0.091216
1006.662503	0.090653
1006.833659	0.090165
1007.004798	0.087996
1007.175918	0.087392
1007.347020	0.086727
1007.518103	0.086110
1007.689169	0.086532
1007.860216	0.086053
1008.031245	0.085622
1008.202256	0.087181
1008.373248	0.087104
1008.544223	0.087604
1008.715179	0.086067
1008.886117	0.085590
1009.057036	0.086913
1009.227938	0.086462
1009.398821	0.086901
1009.569686	0.087248
1009.740533	0.085632
1009.911361	0.087079
1010.082172	0.087507
1010.252964	0.087343
1010.423738	0.087513
1010.594493	0.087689
1010.765231	0.087915
1010.935950	0.088590
1011.106651	0.086908
1011.277334	0.089345
1011.447998	0.087801
1011.618645	0.086980
1011.789273	0.087481
1011.959882	0.087314
1012.130474	0.086342
1012.301048	0.086799
1012.471603	0.085309
1012.642140	0.086877
1012.812658	0.084705
1012.983159	0.084051
1013.153641	0.086011
1013.324105	0.087809
1013.494551	0.087432
1013.664979	0.088230
1013.835388	0.086237
1014.005779	0.087439
1014.176152	0.086524
1014.346507	0.086321
1014.516843	0.086842
1014.687162	0.087170
1014.857462	0.085813
1015.027744	0.085137
1015.198007	0.084634
1015.368252	0.086587
1015.538480	0.087483
1015.708689	0.088364
1015.878879	0.091726
1016.049052	0.092358
1016.219206	0.090284
1016.389342	0.091188
1016.559460	0.092564
1016.729559	0.093316
1016.899641	0.092666
1017.069704	0.092379
1017.239749	0.092509
1017.409775	0.090854
1017.579784	0.090538
1017.749774	0.092191
1017.919746	0.092935
1018.089700	0.091977
1018.259635	0.091536
1018.429553	0.092562
1018.599452	0.089831
1018.769333	0.089767
1018.939195	0.087733
1019.109040	0.088174
1019.278866	0.086933
1019.448674	0.084886
1019.618464	0.084356
1019.788235	0.082993
1019.957989	0.082216
1020.127724	0.082914
1020.297441	0.082618
1020.467139	0.082434
1020.636820	0.082521
1020.806482	0.084518
1020.976126	0.084542
1021.145752	0.086361
1021.315359	0.088660
1021.484948	0.089231
1021.654519	0.089361
1021.824072	0.089663
1021.993607	0.090196
1022.163123	0.089337
1022.332621	0.086354
1022.502101	0.086052
1022.671563	0.086697
1022.841007	0.085764
1023.010432	0.085860
1023.179839	0.087294
1023.349228	0.088435
1023.518598	0.089944
1023.687951	0.088772
1023.857285	0.089814
1024.026601	0.088796
1024.195899	0.088302
1024.365178	0.086300
1024.534439	0.084061
1024.703682	0.085244
1024.872907	0.084131
1025.042114	0.083533
1025.211302	0.084913
1025.380472	0.084200
1025.549624	0.085644
1025.718758	0.084504
1025.887873	0.086178
1026.056970	0.088228
1026.226049	0.084951
1026.395110	0.084101
1026.564153	0.084417
1026.733177	0.083534
1026.902183	0.084788
1027.071171	0.084453
1027.240141	0.084551
1027.409092	0.085337
1027.578026	0.084852
1027.746940	0.086484
1027.915837	0.086091
1028.084716	0.086003
1028.253576	0.085901
1028.422418	0.086015
1028.591242	0.087069
1028.760048	0.087322
1028.928835	0.087860
1029.097604	0.088092
1029.266355	0.088308
1029.435088	0.089285
1029.603803	0.090790
1029.772499	0.092110
1029.941177	0.090080
1030.109837	0.090025
1030.278478	0.088940
1030.447102	0.087755
1030.615707	0.087597
1030.784294	0.085934
1030.952863	0.086229
1031.121413	0.084015
1031.289945	0.084925
1031.458460	0.086631
1031.626955	0.086109
1031.795433	0.086171
1031.963892	0.085073
1032.132334	0.083821
1032.300756	0.083974
1032.469161	0.082690
1032.637548	0.084384
1032.805916	0.083166
1032.974266	0.082951
1033.142598	0.083133
1033.310911	0.084904
1033.479207	0.085933
1033.647484	0.087452
1033.815743	0.088685
1033.983983	0.091560
1034.152206	0.090114
1034.320410	0.089896
1034.488596	0.091084
1034.656764	0.089910
1034.824914	0.088009
1034.993045	0.088869
1035.161158	0.090971
1035.329253	0.092276
1035.497330	0.091307
1035.665388	0.092053
1035.833428	0.092349
1036.001450	0.091480
1036.169454	0.092235
1036.337440	0.093210
1036.505407	0.094887
1036.673356	0.092364
1036.841287	0.091698
1037.009200	0.089963
1037.177094	0.090197
1037.344970	0.088864
1037.512828	0.088179
1037.680668	0.089139
1037.848489	0.090347
1038.016293	0.087671
1038.184078	0.087337
1038.351845	0.086484
1038.519593	0.088021
1038.687324	0.087806
1038.855036	0.089190
1039.022730	0.088259
1039.190406	0.088295
1039.358063	0.086994
1039.525702	0.087072
1039.693323	0.087444
1039.860926	0.087403
1040.028511	0.086942
1040.196077	0.086866
1040.363625	0.086216
1040.531155	0.087392
1040.698667	0.087977
1040.866161	0.090016
1041.033636	0.091017
1041.201093	0.090859
1041.368532	0.092338
1041.535952	0.091367
1041.703355	0.090864
1041.870739	0.089176
1042.038105	0.087913
1042.205452	0.087361
1042.372782	0.084491
1042.540093	0.082624
1042.707386	0.082375
1042.874661	0.080815
1043.041918	0.081360
1043.209156	0.080270
1043.376376	0.082292
1043.543578	0.084384
1043.710762	0.084175
1043.877927	0.085685
1044.045074	0.087978
1044.212203	0.089447
1044.379314	0.088527
1044.546407	0.086824
1044.713481	0.087288
1044.880537	0.085383
1045.047575	0.083567
1045.214595	0.083016
1045.381596	0.082744
1045.548579	0.081551
1045.715544	0.081350
1045.882491	0.082617
1046.049420	0.085939
1046.216330	0.085852
1046.383222	0.089272
1046.550096	0.091177
1046.716951	0.091414
1046.883789	0.091084
1047.050608	0.088936
1047.217409	0.088208
1047.384192	0.086705
1047.550956	0.085708
1047.717703	0.085692
1047.884431	0.082759
1048.051140	0.081368
1048.217832	0.079943
1048.384505	0.081533
1048.551161	0.085727
1048.717798	0.086054
1048.884416	0.087991
1049.051017	0.088008
1049.217599	0.087871
1049.384163	0.089781
1049.550709	0.091309
1049.717237	0.092545
1049.883746	0.090233
1050.050237	0.088777
1050.216710	0.088220
1050.383165	0.088319
1050.549601	0.086148
1050.716019	0.085358
1050.882420	0.085184
1051.048801	0.082738
1051.215165	0.083593
1051.381510	0.084184
1051.547837	0.082518
1051.714146	0.082041
1051.880437	0.078546
1052.046709	0.079862
1052.212964	0.079860
1052.379200	0.079980
1052.545417	0.081618
1052.711617	0.081502
1052.877798	0.080470
1053.043961	0.080559
1053.210106	0.079556
1053.376233	0.081585
1053.542341	0.081396
1053.708432	0.083330
1053.874504	0.082730
1054.040557	0.082512
1054.206593	0.083715
1054.372610	0.086636
1054.538609	0.088252
1054.704590	0.091648
1054.870553	0.093057
1055.036497	0.095550
1055.202424	0.094618
1055.368331	0.094956
1055.534221	0.094607
1055.700093	0.093138
1055.865946	0.090173
1056.031781	0.091137
1056.197598	0.089429
1056.363397	0.088471
1056.529177	0.084851
1056.694939	0.085603
1056.860683	0.085857
1057.026409	0.085286
1057.192116	0.084890
1057.357806	0.085684
1057.523477	0.083126
1057.689130	0.084376
1057.854764	0.083020
1058.020381	0.083909
1058.185979	0.085384
1058.351559	0.086744
1058.517120	0.087814
1058.682664	0.088353
1058.848189	0.090035
1059.013696	0.093044
1059.179185	0.091669
1059.344656	0.092766
1059.510108	0.093185
1059.675542	0.091338
1059.840958	0.089259
1060.006356	0.087958
1060.171735	0.087757
1060.337096	0.088174
1060.502439	0.086796
1060.667764	0.084331
1060.833071	0.085626
1060.998359	0.084380
1061.163629	0.083710
1061.328881	0.081882
1061.494115	0.083032
1061.659330	0.083620
1061.824527	0.083651
1061.989706	0.083929
1062.154867	0.085877
1062.320010	0.084424
1062.485134	0.085930
1062.650240	0.087684
1062.815328	0.091042
1062.980398	0.090430
1063.145449	0.088741
1063.310482	0.088344
1063.475497	0.086103
1063.640494	0.085479
1063.805473	0.086364
1063.970433	0.087924
1064.135375	0.087467
1064.300299	0.085741
1064.465204	0.087325
1064.630092	0.086547
1064.794961	0.085119
1064.959812	0.087695
1065.124645	0.087507
1065.289459	0.088180
1065.454256	0.086778
1065.619034	0.085621
1065.783793	0.084717
1065.948535	0.085289
1066.113258	0.085210
1066.277964	0.086627
1066.442651	0.085563
1066.607319	0.084800
1066.771970	0.083570
1066.936602	0.084268
1067.101216	0.084562
1067.265812	0.085796
1067.430389	0.085698
1067.594949	0.087833
1067.759490	0.086560
1067.924013	0.085738
1068.088518	0.087436
1068.253004	0.088149
1068.417472	0.088912
1068.581922	0.090772
1068.746354	0.090206
1068.910768	0.088534
1069.075163	0.087761
1069.239540	0.088121
1069.403899	0.086889
1069.568240	0.088648
1069.732562	0.087597
1069.896866	0.085175
1070.061152	0.082296
1070.225420	0.083094
1070.389670	0.082471
1070.553901	0.084032
1070.718114	0.083965
1070.882309	0.087528
1071.046486	0.087016
1071.210644	0.085540
1071.374784	0.087456
1071.538906	0.088360
1071.703010	0.088946
1071.867096	0.088793
1072.031163	0.087118
1072.195212	0.086701
1072.359243	0.086076
1072.523256	0.083579
1072.687250	0.087656
1072.851226	0.089367
1073.015184	0.086979
1073.179124	0.086285
1073.343045	0.087807
1073.506949	0.088312
1073.670834	0.088196
1073.834701	0.088110
1073.998549	0.090939
1074.162380	0.088829
1074.326192	0.086236
1074.489986	0.086050
1074.653761	0.087390
1074.817519	0.086399
1074.981258	0.085400
1075.144979	0.084503
1075.308682	0.084016
1075.472367	0.081626
1075.636033	0.079851
1075.799681	0.079810
1075.963311	0.084198
1076.126923	0.082144
1076.290516	0.082620
1076.454092	0.084324
1076.617649	0.085583
1076.781187	0.085944
1076.944708	0.085372
1077.108210	0.087806
1077.271695	0.087933
1077.435160	0.089391
1077.598608	0.090993
1077.762038	0.090647
1077.925449	0.090388
1078.088842	0.091238
1078.252217	0.091623
1078.415573	0.093351
1078.578912	0.091741
1078.742232	0.089682
1078.905534	0.086576
1079.068817	0.084777
1079.232083	0.084606
1079.395330	0.083049
1079.558559	0.079409
1079.721770	0.080317
1079.884962	0.080554
1080.048136	0.080575
1080.211293	0.081442
1080.374430	0.082252
1080.537550	0.082198
1080.700651	0.083785
1080.863735	0.084822
1081.026800	0.088896
1081.189846	0.086136
1081.352875	0.084019
1081.515885	0.086971
1081.678877	0.084853
1081.841851	0.085655
1082.004807	0.086313
1082.167744	0.084333
1082.330663	0.083690
1082.493564	0.081920
1082.656447	0.081100
1082.819312	0.081361
1082.982158	0.079182
1083.144986	0.080191
1083.307796	0.077676
1083.470587	0.078386
1083.633361	0.079151
1083.796116	0.079727
1083.958853	0.081579
1084.121571	0.082526
1084.284272	0.082745
1084.446954	0.085037
1084.609618	0.089079
1084.772264	0.088710
1084.934892	0.087832
1085.097501	0.087327
1085.260092	0.088090
1085.422665	0.089974
1085.585220	0.089349
1085.747756	0.093607
1085.910274	0.091419
1086.072774	0.088623
1086.235256	0.088979
1086.397720	0.088337
1086.560165	0.089015
1086.722592	0.088662
1086.885001	0.086776
1087.047392	0.087773
1087.209764	0.084056
1087.372119	0.084118
1087.534455	0.083792
1087.696772	0.084545
1087.859072	0.084577
1088.021353	0.086068
1088.183616	0.084454
1088.345861	0.083229
1088.508088	0.083575
1088.670296	0.085429
1088.832486	0.088315
1088.994658	0.089210
1089.156812	0.091117
1089.318948	0.091790
1089.481065	0.091672
1089.643164	0.092280
1089.805245	0.092784
1089.967308	0.096630
1090.129352	0.097315
1090.291378	0.094914
1090.453386	0.096585
1090.615376	0.095120
1090.777347	0.094536
1090.939301	0.091671
1091.101236	0.093282
1091.263153	0.094264
1091.425051	0.089492
1091.586932	0.091865
1091.748794	0.092731
1091.910638	0.089926
1092.072463	0.089323
1092.234271	0.091222
1092.396060	0.096175
1092.557831	0.093859
1092.719584	0.092788
1092.881319	0.093422
1093.043035	0.090871
1093.204733	0.089965
1093.366413	0.093002
1093.528075	0.096440
1093.689718	0.094299
1093.851343	0.087906
1094.012950	0.084137
1094.174539	0.079297
1094.336110	0.078898
1094.497662	0.076911
1094.659196	0.076599
1094.820712	0.074753
1094.982210	0.075552
1095.143689	0.073218
1095.305151	0.073820
1095.466594	0.079416
1095.628018	0.083769
1095.789425	0.083552
1095.950813	0.085255
1096.112183	0.086690
1096.273535	0.088248
1096.434869	0.089420
1096.596184	0.093321
1096.757482	0.093685
1096.918761	0.092036
1097.080021	0.092369
1097.241264	0.092453
1097.402488	0.094888
1097.563694	0.096180
1097.724882	0.093040
1097.886052	0.087229
1098.047203	0.090959
1098.208336	0.092557
1098.369451	0.096182
1098.530548	0.092786
1098.691627	0.092840
1098.852687	0.088101
1099.013729	0.081497
1099.174753	0.081589
1099.335758	0.080089
1099.496746	0.074210
1099.657715	0.078573
1099.818666	0.076427
1099.979599	0.074757
1100.140513	0.075277
1100.301409	0.074828
1100.462287	0.077869
1100.623147	0.081840
1100.783989	0.083895
1100.944812	0.086932
1101.105617	0.080865
1101.266404	0.081475
1101.427173	0.085695
1101.587923	0.083594
1101.748656	0.087322
1101.909370	0.089322
1102.070066	0.088611
1102.230743	0.089397
1102.391403	0.088792
1102.552044	0.089899
1102.712667	0.090277
1102.873271	0.092481
1103.033858	0.097682
1103.194426	0.097372
1103.354976	0.095036
1103.515508	0.095331
1103.676021	0.094466
1103.836517	0.094153
1103.996994	0.094871
1104.157453	0.094461
1104.317893	0.093049
1104.478316	0.090739
1104.638720	0.085687
1104.799106	0.087270
1104.959474	0.086140
1105.119823	0.089809
1105.280155	0.088039
1105.440468	0.088263
1105.600763	0.093127
1105.761039	0.094361
1105.921298	0.096772
1106.081538	0.101800
1106.241760	0.101431
1106.401964	0.102646
1106.562149	0.095929
1106.722316	0.096512
1106.882465	0.102343
1107.042596	0.097281
1107.202709	0.095454
1107.362803	0.090054
1107.522879	0.087986
1107.682937	0.089199
1107.842977	0.087106
1108.002999	0.091257
1108.163002	0.091730
1108.322987	0.085313
1108.482954	0.087935
1108.642902	0.088388
1108.802833	0.091358
1108.962745	0.093480
1109.122639	0.095007
1109.282515	0.093094
1109.442372	0.093620
1109.602211	0.092335
1109.762032	0.089215
1109.921835	0.083992
1110.081620	0.082379
1110.241386	0.082905
1110.401134	0.081833
1110.560864	0.077218
1110.720576	0.081619
1110.880269	0.080328
1111.039945	0.084881
1111.199602	0.087977
1111.359240	0.089385
1111.518861	0.091151
1111.678463	0.090694
1111.838047	0.086708
1111.997613	0.089528
1112.157161	0.087817
1112.316690	0.089963
1112.476202	0.089593
1112.635695	0.093013
1112.795169	0.095316
1112.954626	0.095577
1113.114064	0.096279
1113.273484	0.104919
1113.432886	0.103075
1113.592270	0.104217
1113.751635	0.100596
1113.910983	0.094287
1114.070312	0.088449
1114.229622	0.087211
1114.388915	0.086885
1114.548189	0.089305
1114.707445	0.090371
1114.866683	0.091700
1115.025903	0.093138
1115.185104	0.098700
1115.344287	0.103609
1115.503452	0.105205
1115.662599	0.100010
1115.821727	0.101533
1115.980838	0.095518
1116.139930	0.087296
1116.299004	0.085541
1116.458059	0.086497
1116.617097	0.087039
1116.776116	0.093787
1116.935117	0.096418
1117.094099	0.100123
1117.253064	0.094744
1117.412010	0.094868
1117.570938	0.099665
1117.729848	0.102977
1117.888740	0.096919
1118.047613	0.096287
1118.206468	0.088628
1118.365305	0.086813
1118.524124	0.084998
1118.682924	0.088352
1118.841707	0.089201
1119.000471	0.087586
1119.159216	0.086238
1119.317944	0.087026
1119.476653	0.083323
1119.635344	0.081173
1119.794017	0.078799
1119.952672	0.078757
1120.111308	0.079596
1120.269927	0.078368
1120.428527	0.081681
1120.587108	0.083515
1120.745672	0.090872
1120.904217	0.089266
1121.062744	0.089777
1121.221253	0.094429
1121.379744	0.098197
1121.538216	0.097224
1121.696671	0.097474
1121.855107	0.097380
1122.013524	0.098875
1122.171924	0.092521
1122.330305	0.093213
1122.488668	0.090535
1122.647013	0.091852
1122.805340	0.092154
1122.963648	0.093367
1123.121938	0.091393
1123.280210	0.088596
1123.438464	0.084330
1123.596700	0.085310
1123.754917	0.080620
1123.913116	0.084002
1124.071297	0.086257
1124.229459	0.090992
1124.387604	0.087201
1124.545730	0.084690
1124.703838	0.081530
1124.861928	0.081445
1125.019999	0.079876
1125.178052	0.080608
1125.336088	0.082770
1125.494104	0.081794
1125.652103	0.075579
1125.810083	0.077063
1125.968045	0.081461
1126.125989	0.088041
1126.283915	0.090393
1126.441823	0.085216
1126.599712	0.092241
1126.757583	0.090325
1126.915436	0.089352
1127.073270	0.088177
1127.231087	0.085182
1127.388885	0.092510
1127.546665	0.089909
1127.704426	0.085601
1127.862170	0.090753
1128.019895	0.092540
1128.177602	0.088912
1128.335291	0.082013
1128.492961	0.083790
1128.650614	0.087759
1128.808248	0.084866
1128.965864	0.075192
1129.123461	0.081324
1129.281041	0.083742
1129.438602	0.079834
1129.596145	0.088859
1129.753670	0.097744
1129.911176	0.096829
1130.068665	0.096516
1130.226135	0.097159
1130.383587	0.104215
1130.541020	0.102223
1130.698436	0.103915
1130.855833	0.103592
1131.013212	0.099359
1131.170573	0.100489
1131.327915	0.093213
1131.485239	0.098758
1131.642545	0.100979
1131.799833	0.101933
1131.957103	0.101299
1132.114354	0.094317
1132.271588	0.089592
1132.428803	0.088407
1132.585999	0.082972
1132.743178	0.087121
1132.900338	0.081960
1133.057480	0.079969
1133.214604	0.080226
1133.371710	0.077889
1133.528797	0.087002
1133.685866	0.095167
1133.842917	0.091836
1133.999950	0.088576
1134.156964	0.092335
1134.313960	0.090922
1134.470938	0.095219
1134.627898	0.099232
1134.784840	0.097149
1134.941763	0.087741
1135.098668	0.088320
1135.255555	0.095030
1135.412424	0.091570
1135.569274	0.083987
1135.726107	0.089782
1135.882921	0.083252
1136.039716	0.081014
1136.196494	0.090135
1136.353253	0.099201
1136.509995	0.100549
1136.666717	0.105062
1136.823422	0.114055
1136.980109	0.114794
1137.136777	0.109065
1137.293427	0.108539
1137.450059	0.106241
1137.606672	0.100442
1137.763267	0.097010
1137.919844	0.095758
1138.076403	0.087170
1138.232944	0.087304
1138.389466	0.088916
1138.545971	0.090051
1138.702457	0.092803
1138.858924	0.099839
1139.015374	0.096654
1139.171805	0.090884
1139.328218	0.089111
1139.484613	0.087581
1139.640990	0.080383
1139.797348	0.091342
1139.953688	0.094703
1140.110010	0.092336
1140.266314	0.084112
1140.422600	0.087788
1140.578867	0.092862
1140.735116	0.096785
1140.891347	0.104335
1141.047559	0.113999
1141.203754	0.105592
1141.359930	0.104182
1141.516088	0.099979
1141.672228	0.104548
1141.828349	0.109019
1141.984452	0.114993
1142.140537	0.101762
1142.296604	0.090418
1142.452653	0.097628
1142.608683	0.100017
1142.764695	0.098665
1142.920689	0.099010
1143.076665	0.103158
1143.232622	0.104709
1143.388562	0.093831
1143.544483	0.100733
1143.700385	0.107656
1143.856270	0.099179
1144.012136	0.098429
1144.167985	0.101187
1144.323814	0.107064
1144.479626	0.110286
1144.635420	0.098253
1144.791195	0.093688
1144.946952	0.107198
1145.102691	0.111098
1145.258411	0.105229
1145.414113	0.104090
1145.569798	0.105926
1145.725463	0.114815
1145.881111	0.102600
1146.036741	0.111497
1146.192352	0.124567
1146.347945	0.098064
1146.503519	0.091591
1146.659076	0.101258
1146.814614	0.113076
1146.970134	0.104031
1147.125636	0.092010
1147.281120	0.086993
1147.436585	0.081149
1147.592032	0.075257
1147.747461	0.084487
1147.902872	0.082725
1148.058265	0.076279
1148.213639	0.060841
1148.368995	0.062605
1148.524333	0.063194
1148.679653	0.066189
1148.834954	0.066417
1148.990237	0.067692
1149.145502	0.067048
1149.300749	0.071248
1149.455977	0.067779
1149.611188	0.078741
1149.766380	0.083509
1149.921553	0.086323
1150.076709	0.084203
1150.231846	0.085348
1150.386966	0.096445
1150.542066	0.099723
1150.697149	0.098751
1150.852214	0.105389
1151.007260	0.089940
1151.162288	0.083586
1151.317298	0.083136
1151.472289	0.098381
1151.627263	0.090742
1151.782218	0.082397
1151.937155	0.073788
1152.092073	0.078798
1152.246974	0.083719
1152.401856	0.099168
1152.556720	0.115982
1152.711566	0.113876
1152.866393	0.109062
1153.021203	0.118641
1153.175994	0.113103
1153.330767	0.126904
1153.485521	0.111350
1153.640258	0.093792
1153.794976	0.089522
1153.949676	0.075960
1154.104358	0.070653
1154.259021	0.066756
1154.413667	0.070195
1154.568294	0.080947
1154.722903	0.079172
1154.877493	0.089023
1155.032066	0.105955
1155.186620	0.113994
1155.341156	0.106084
1155.495674	0.101729
1155.650173	0.094013
1155.804654	0.092666
1155.959118	0.087413
1156.113562	0.090645
1156.267989	0.081554
1156.422397	0.074301
1156.576788	0.055450
1156.731160	0.061230
1156.885513	0.068168
1157.039849	0.069811
1157.194166	0.067502
1157.348465	0.062795
1157.502746	0.052765
1157.657009	0.055868
1157.811253	0.053051
1157.965479	0.070069
1158.119687	0.064270
1158.273877	0.076709
1158.428048	0.076074
1158.582201	0.078939
1158.736337	0.077011
1158.890453	0.085086
1159.044552	0.083121
1159.198632	0.075187
1159.352694	0.067404
1159.506738	0.079698
1159.660764	0.064996
1159.814771	0.063258
1159.968761	0.052557
1160.122732	0.055601
1160.276685	0.060373
1160.430619	0.064647
1160.584535	0.062784
1160.738434	0.061781
1160.892313	0.057566
1161.046175	0.057228
1161.200019	0.072215
1161.353844	0.077937
1161.507651	0.076911
1161.661440	0.063581
1161.815210	0.056352
1161.968962	0.073399
1162.122697	0.090512
1162.276412	0.099450
1162.430110	0.126834
1162.583789	0.109794
1162.737451	0.117450
1162.891094	0.127629
1163.044718	0.105306
1163.198325	0.117710
1163.351913	0.116904
1163.505483	0.094986
1163.659035	0.087935
1163.812569	0.056984
1163.966084	0.056201
1164.119581	0.041383
1164.273060	0.036559
1164.426521	0.074102
1164.579964	0.062380
1164.733388	0.063850
1164.886794	0.059417
1165.040182	0.071761
1165.193551	0.076500
1165.346903	0.076626
1165.500236	0.087840
1165.653551	0.097748
1165.806848	0.088681
1165.960126	0.100139
1166.113386	0.108964
1166.266628	0.127135
1166.419852	0.112068
1166.573058	0.115326
1166.726245	0.120832
1166.879414	0.120480
1167.032565	0.091189
1167.185698	0.081446
1167.338812	0.095744
1167.491909	0.073598
1167.644987	0.073133
1167.798046	0.066221
1167.951088	0.070543
1168.104111	0.068977
1168.257117	0.050496
1168.410103	0.061941
1168.563072	0.045519
1168.716023	0.028054
1168.868955	0.033617
1169.021869	0.027418
1169.174765	0.037871
1169.327642	0.024026
1169.480501	0.028978
1169.633343	0.044119
1169.786165	0.063568
1169.938970	0.091050
1170.091757	0.083103
1170.244525	0.096040
1170.397275	0.111061
1170.550007	0.101281
1170.702720	0.117853
1170.855415	0.085397
1171.008092	0.103463
1171.160751	0.096526
1171.313392	0.104286
1171.466014	-0.148011
1171.618619	0.195142
1171.771205	0.195142
1171.923772	0.195142
