sample name	sample
index	4
start time	 02-11-2021  11:14:42 AM
880	0.014361
Peak Time (s)	80.536
Peak Height 	0.01436
calc peak height	80,83
Baseline Time (s)	8.536
Baseline Value 	-0.007566
subtract baseline	10,4
Abs	0.008863
Peak Time (s)	80.536
Peak Height 	0.008863
calc peak height	80,83
Baseline Time (s)	11.534
Baseline Value 	0.009377
subtract baseline	10,3
PK_550	0.007396
Peak Time (s)	81.036
Peak Height 	0.007396
calc peak height	80,83
Baseline Time (s)	11.534
Baseline Value 	2.6543E-4
subtract baseline	10,2
PK_880	-0.002734
Peak Time (s)	82.537
Peak Height 	-0.002734
calc peak height	80,83
Baseline Time (s)	8.536
Baseline Value 	0.002925
subtract baseline	10,1


Time (s)	A880-A510	A880-A775	A880-A975	A880	I510	I775	I975	I880	
0.036000	0.002135	-0.000031	0.006427	0.002906	4298.457755	17943.255356	3138.675207	9721.032020
0.537000	-0.000356	-0.000672	-0.011538	0.005086	4282.558807	17845.585685	3121.516125	9686.358019
1.037000	-0.005929	-0.001535	-0.009463	0.006937	4257.642124	17752.283348	3121.702533	9657.066677
1.534500	-0.000242	0.001680	-0.011358	0.002749	4290.881018	18008.273902	3123.617445	9723.545558
2.035000	-0.001965	0.000082	-0.002872	0.000876	4291.390666	18017.868826	3132.391423	9753.479752
2.535000	-0.000895	0.000238	-0.008120	0.000721	4295.566174	18028.709571	3128.050713	9755.954245
3.035000	-0.002880	-0.000680	-0.010967	0.004072	4277.456346	17880.341806	3122.837557	9702.464090
3.536000	0.000246	-0.000139	-0.015975	0.002973	4291.779659	17937.183188	3119.587701	9719.971948
4.038500	-0.003964	-0.000644	-0.013533	0.003323	4276.328549	17907.546567	3121.323417	9714.392352
4.536500	0.000572	0.000269	-0.002109	0.003820	4290.005994	17921.951120	3130.527000	9706.481988
5.036500	-0.000873	0.000722	-0.006059	0.003668	4285.612842	17942.938875	3127.300812	9708.891386
5.537000	-0.001829	-0.000892	0.003760	0.002452	4286.497550	17929.133136	3136.751516	9728.283105
6.038500	0.002154	-0.000008	-0.002571	-0.000627	4310.662433	18067.251004	3133.941110	9777.595422
6.554500	-0.002797	0.000472	-0.003308	-0.000396	4292.892140	18075.963115	3133.109238	9773.888467
7.034500	-0.002034	-0.000237	-0.003457	0.002624	4285.215647	17945.897075	3130.396950	9725.535390
7.536500	0.000564	-0.001228	-0.001459	-0.000956	4306.317948	18036.102398	3135.184099	9782.894846
8.055000	0.002534	0.001840	0.007587	0.000989	4306.403671	18075.369648	3141.367285	9751.671275
8.536000	0.000000	0.000167	0.001461	0.000000	4301.098389	18051.438195	3136.884200	9767.525029
9.036000	0.000603	-0.001697	-0.007275	-0.001722	4309.090009	18046.473566	3130.847675	9795.220533
9.537000	-0.000985	-0.000849	-0.003130	-0.002100	4304.924382	18089.370432	3134.728882	9801.306328
10.036500	0.003724	0.001260	0.005775	-0.001071	4317.625764	18127.326967	3141.584644	9784.741466
10.537000	0.000268	0.000266	0.007357	0.001879	4295.587964	17989.329162	3140.385309	9737.435317
11.034500	-0.001156	-0.000904	-0.008389	0.000539	4295.300308	17995.237230	3127.977830	9758.875677
11.534500	-0.002350	0.000000	0.000000	0.000447	4291.539781	18029.968046	3135.232108	9760.352063
12.035500	-0.001228	-0.000522	-0.010993	0.000546	4295.027919	18008.280823	3125.772918	9758.765551
12.536000	-0.000941	-0.000077	-0.009649	0.000744	4295.333955	18016.914382	3126.739351	9755.598989
13.035500	-0.000189	0.000039	-0.003056	0.001203	4296.331907	18004.926014	3131.954073	9748.238022
13.538500	0.003159	0.001030	0.009556	0.002494	4303.378540	17994.469518	3141.774202	9727.603645
14.036000	-0.001302	-0.000219	-0.003283	0.000709	4294.220585	18013.170800	3132.182551	9756.152266
14.536000	0.002045	0.000968	-0.008930	0.001834	4301.823261	18015.339004	3126.425596	9738.148168
15.036500	-0.000285	-0.000351	-0.000048	0.001362	4295.461577	17985.812028	3134.400838	9745.691307
15.537500	0.000037	0.000807	-0.000904	0.002672	4292.092365	17980.524069	3132.539427	9724.769358
16.034500	-0.001558	-0.000535	-0.003524	0.001318	4291.274754	17980.968634	3131.455115	9746.407526
16.535000	-0.003314	0.000732	0.007387	0.002108	4282.628769	17997.564407	3140.210468	9733.769842
17.038000	-0.001025	-0.000218	0.001516	0.001407	4292.784676	17988.898714	3135.712579	9744.975478
17.536000	-0.000630	0.000974	0.003154	0.002436	4290.624292	17994.566052	3136.239406	9728.532504
18.038500	-0.000116	0.001085	-0.007761	0.002619	4291.751644	17992.060272	3126.749266	9725.610170
18.535500	0.000760	-0.000787	0.001324	0.001350	4299.076497	17971.053548	3135.595749	9745.885898
19.036000	-0.001107	-0.001027	-0.006764	0.001056	4293.702883	17972.932535	3128.916996	9750.591260
19.537000	0.001635	0.000570	-0.007083	0.001815	4300.479944	18002.106463	3128.002704	9738.445936
20.037000	0.000139	0.001056	-0.001669	0.003160	4290.777310	17972.201902	3131.466458	9716.987979
20.537000	0.001626	0.000278	0.000531	0.000152	4306.159445	18050.019960	3135.946618	9765.090816
21.043000	0.000022	0.001400	0.002575	0.000480	4299.532142	18077.807678	3137.435144	9759.831879
21.568000	0.000868	-0.000198	-0.002108	-0.001124	4307.941114	18077.983222	3134.768542	9785.587394
22.035000	0.002610	0.000866	-0.001355	0.000220	4309.314175	18068.195469	3134.258842	9763.993594
22.535500	-0.000326	-0.000575	-0.005266	-0.000695	4302.364333	18049.770239	3131.686451	9778.684671
23.036000	-0.003915	-0.000601	-0.000935	-0.000874	4290.710757	18055.141969	3135.565625	9781.563928
23.536000	-0.001638	0.001976	0.002573	0.000525	4293.704266	18096.401696	3137.393521	9759.105731
24.036000	0.000672	0.001308	0.003802	0.003428	4291.681880	17971.657068	3135.942641	9712.725523
24.536500	0.000307	0.000463	0.004981	0.003754	4289.327814	17930.973487	3136.681180	9707.525457
25.037500	0.000334	0.001811	-0.003466	0.000437	4300.744526	18093.690928	3132.258740	9760.509986
25.534500	0.000505	-0.000475	0.005914	-0.000587	4304.846119	18049.513066	3141.281561	9776.951004
26.043000	0.000538	0.000167	-0.006920	-0.000750	4305.518371	18077.673058	3130.320848	9779.568139
26.535500	0.001148	0.000228	-0.005626	0.000501	4303.320584	18036.055083	3130.358477	9759.493471
27.035500	-0.000053	0.001805	-0.002529	0.000988	4297.533619	18074.197032	3132.590225	9751.687337
27.538000	0.000486	0.000312	-0.011354	0.001397	4297.978888	18007.711984	3124.753364	9745.139267
28.036500	0.000754	0.000711	0.004557	0.002665	4294.561948	17977.439708	3137.257911	9724.884687
28.536500	0.000799	-0.000163	-0.016975	0.002039	4296.854549	17968.802378	3119.532634	9734.870432
29.036500	-0.000712	0.000370	-0.001748	0.002521	4290.058861	17970.571904	3131.945587	9727.178184
29.537000	0.000985	0.000588	-0.008466	0.002417	4296.196824	17981.777307	3126.325446	9728.840560
30.042500	0.000884	0.000027	-0.003784	0.001582	4298.706724	17991.301478	3131.007178	9742.175422
30.534500	0.001356	0.001471	-0.008182	0.003825	4292.657894	17963.511270	3125.379291	9706.401464
31.035500	0.000790	-0.000055	0.002705	0.001692	4298.011201	17984.647249	3136.495685	9740.425121
31.535500	-0.003020	-0.000066	0.000132	0.002285	4283.024975	17963.640836	3133.761536	9730.950204
32.035000	-0.000860	0.000795	0.002419	0.003147	4287.423760	17963.556534	3134.989429	9717.186633
32.536000	0.000088	0.000051	0.000295	0.003025	4291.062199	17941.953998	3133.264764	9719.134894
33.036000	-0.003684	-0.000452	-0.006045	0.001440	4283.635713	17979.564589	3129.201368	9744.444104
33.536500	-0.004125	0.001246	0.006257	0.002944	4277.061474	17986.336080	3138.493843	9720.424271
34.037000	0.000223	0.000681	-0.002907	0.002781	4292.354477	17972.369372	3130.732343	9723.030155
34.537000	-0.001818	0.000875	-0.005484	0.003371	4283.417180	17958.588700	3128.039525	9713.629567
35.037500	-0.004237	-0.001088	-0.001362	0.001205	4282.562463	17965.638073	3133.405710	9748.215552
35.535000	-0.000301	-0.000200	0.002922	0.002158	4292.690949	17963.359895	3136.279308	9732.967623
36.035000	-0.000428	-0.000548	-0.008889	0.002673	4290.506008	17933.412726	3125.753536	9724.753205
36.535500	-0.000831	0.000451	0.010830	0.003175	4287.428701	17950.643495	3142.296071	9716.747515
37.038500	-0.001148	-0.000497	0.005901	0.002624	4288.224177	17936.880713	3138.462582	9725.533916
37.536500	0.000991	0.000818	0.003071	-0.001106	4308.302982	18112.990804	3139.247117	9785.292604
38.036500	0.000738	0.001388	0.000457	0.001691	4297.837086	18035.005112	3134.553507	9740.437724
38.536000	0.000521	-0.000094	0.001399	0.001362	4298.218074	17994.779079	3135.649921	9745.694042
39.037000	-0.000002	-0.001138	-0.000428	-0.000755	4303.681068	18032.211434	3135.901087	9779.651014
39.537500	-0.002427	-0.000600	-0.006228	-0.001186	4296.850695	18066.107539	3131.284268	9786.591575
40.035000	0.001953	0.001726	-0.005456	0.001315	4303.288666	18059.974102	3129.809720	9746.454573
40.535000	0.002797	0.000024	0.013726	0.000092	4310.402100	18043.235378	3147.594505	9766.052371
41.057500	0.002508	-0.000370	0.005731	0.000381	4308.406690	18019.360102	3140.273126	9761.416046
41.536500	-0.004753	0.000580	-0.012363	0.003264	4273.868700	17952.040673	3122.347103	9715.332102
42.038500	0.002159	-0.000041	-0.003086	0.003410	4296.814677	17925.424070	3130.043603	9713.002929
42.536500	-0.001834	-0.000731	-0.004057	0.002950	4284.788709	17917.433455	3129.608370	9720.327411
43.036500	0.003356	0.001137	0.006392	0.001377	4307.900254	18037.200215	3139.980337	9745.463866
43.536500	-0.003343	-0.000034	0.000330	-0.001215	4293.821216	18086.940605	3136.956928	9787.054454
44.034000	-0.001794	0.002493	0.000229	-0.000768	4297.584510	18160.031779	3136.481191	9779.861064
44.534500	0.001309	-0.000355	-0.002906	-0.006018	4326.426891	18244.884232	3138.318778	9864.796634
45.037500	0.002244	-0.002121	-0.003579	-0.009332	4341.312867	18299.791969	3140.625579	9918.932560
45.535500	-0.034803	-0.019704	0.015537	0.203262	3672.882620	11948.900629	3003.830040	7162.038329
46.035000	-0.031541	-0.028401	0.040558	0.201790	3682.312075	11798.988725	3019.160469	7176.860918
46.538500	-0.020358	-0.020902	0.003642	-0.043462	4382.439079	18855.143841	3178.637627	10501.243251
47.036000	-0.023642	-0.012718	-0.019365	-0.215932	5130.310064	27104.887451	3350.568758	14257.612426
47.536000	-0.023236	-0.010816	-0.013178	-0.162710	4864.889935	24402.980443	3289.961640	12935.730634
48.036500	-0.032962	-0.011901	-0.015936	-0.126336	4658.181721	22622.869700	3244.305301	12121.111558
48.537000	-0.041631	-0.013470	-0.014415	-0.128006	4628.673017	22627.493988	3247.876573	12157.042178
49.037000	-0.044280	-0.013882	-0.016977	-0.117427	4574.188143	22133.572996	3233.339028	11931.786735
49.537000	-0.035973	-0.009282	-0.020311	-0.114969	4598.075697	22228.874255	3227.069739	11880.230557
50.035500	-0.027377	-0.005645	-0.015514	-0.108201	4605.610387	22089.760944	3224.954751	11739.776010
50.534500	-0.026735	-0.003649	-0.012699	-0.077068	4484.027699	20842.106327	3195.611953	11121.109242
51.038000	-0.014816	-0.002959	-0.004271	-0.056144	4449.722916	20023.591829	3183.258956	10729.537075
51.536000	-0.016879	-0.002305	-0.005609	-0.043862	4396.525182	19570.232816	3170.194376	10508.333403
52.036000	-0.013927	-0.000030	-0.005147	-0.041862	4399.999831	19580.792804	3168.744323	10472.901825
52.536500	-0.024218	0.000432	-0.009758	-0.025031	4303.888040	18962.421125	3149.059207	10181.108003
53.037000	-0.018200	0.002011	-0.014207	-0.033890	4355.863212	19354.044971	3153.029287	10333.283070
53.537000	-0.024167	0.000782	-0.004987	-0.031565	4326.673835	19219.635162	3159.317133	10293.049239
54.055500	-0.021760	0.000742	0.000987	-0.036445	4352.297354	19402.972770	3169.420135	10377.761882
54.549500	-0.018076	0.001217	-0.007713	-0.029815	4341.885956	19170.194426	3155.223389	10262.902314
55.040500	-0.012815	0.001870	-0.001335	-0.034185	4376.184463	19359.911218	3165.124732	10338.412932
55.535500	-0.010985	0.003069	0.001445	-0.032031	4375.017683	19323.681930	3165.708657	10301.103267
56.038000	-0.008452	0.004773	-0.003051	-0.028708	4372.178130	19262.396767	3158.471438	10243.892981
56.536000	-0.016586	0.002675	-0.017779	-0.022649	4322.026575	18957.256305	3139.853438	10140.717662
57.037500	-0.006574	0.003845	-0.008148	-0.025607	4367.792290	19110.986115	3151.021817	10190.909475
57.537000	-0.012730	0.004440	-0.004850	-0.023594	4338.809983	19058.018138	3152.180442	10156.714117
58.037500	-0.010211	0.004305	0.002125	-0.021334	4339.720729	18968.957726	3156.460215	10118.513645
58.537500	-0.009879	0.004307	-0.005012	-0.018087	4329.501135	18849.032652	3147.095993	10063.973559
59.037500	-0.010715	0.004271	0.000488	-0.017142	4323.291184	18812.946040	3151.175915	10048.169557
59.538000	-0.010146	0.003530	-0.004904	-0.016226	4322.084531	18752.231859	3145.536994	10032.894102
60.035000	-0.010989	0.002938	0.002353	-0.015442	4316.440109	18701.968973	3151.324229	10019.843833
60.537500	-0.012806	0.001715	-0.004208	-0.009203	4288.797167	18432.116925	3139.962005	9916.812269
61.035500	-0.010139	0.003044	-0.004860	-0.012188	4308.140922	18587.561127	3142.008843	9965.934684
61.536000	-0.009090	0.003813	0.008588	-0.010729	4306.724777	18562.591642	3152.697733	9941.875296
62.036000	-0.009832	0.003527	-0.000469	-0.009832	4301.096018	18519.887752	3143.801880	9927.132390
62.537000	-0.010271	0.003903	-0.006140	-0.006685	4288.854086	18420.300422	3136.089595	9875.651229
63.037000	-0.007494	0.005310	0.000890	-0.006017	4296.044201	18446.813680	3141.638437	9864.783910
63.537500	-0.008920	0.004169	0.011013	-0.007653	4296.763144	18464.562880	3152.109590	9891.453727
64.034500	-0.010344	0.003789	-0.002493	-0.007212	4290.402102	18435.089993	3139.720685	9884.253265
64.535000	-0.010343	0.003041	0.000865	-0.005663	4285.141535	18352.958507	3141.305901	9859.019109
65.035500	-0.005416	0.006249	-0.003583	-0.006982	4306.474177	18515.283990	3138.568671	9880.497819
65.535500	-0.006645	0.005477	-0.008595	-0.008098	4306.087951	18527.698538	3135.188988	9898.729839
66.036000	-0.006897	0.005703	0.000632	-0.007869	4304.433954	18527.575783	3143.041015	9894.984108
66.536500	-0.007940	0.004389	0.012825	-0.002204	4281.566586	18277.839498	3148.841246	9802.996857
67.037000	-0.005603	0.005057	0.008074	-0.007381	4307.203693	18486.717061	3149.221946	9887.007418
67.539000	-0.004964	0.006379	-0.005650	-0.006354	4305.869912	18497.341557	3136.227839	9870.262376
68.037500	-0.010015	0.004044	0.005329	-0.008027	4294.298156	18473.535771	3147.346110	9897.567613
68.534500	-0.007028	0.004839	-0.005340	-0.001263	4281.467868	18260.410168	3132.109978	9787.826595
69.035000	-0.008624	0.004646	0.000883	-0.006763	4294.732357	18449.735185	3142.288033	9876.926469
69.535000	-0.008752	0.006323	0.004940	-0.005142	4288.773550	18451.729328	3144.437722	9850.543981
70.035000	-0.003277	0.006729	0.004952	-0.004810	4306.362761	18454.401606	3144.154556	9845.155158
70.535500	-0.007126	0.003513	-0.003376	-0.004045	4290.575427	18312.134905	3136.197784	9832.759143
71.036000	-0.007601	0.005296	0.000959	-0.004369	4290.058861	18387.285627	3140.253296	9838.005204
71.536500	-0.008318	0.006026	-0.004278	-0.003960	4286.237167	18398.757048	3135.344136	9831.385782
72.036500	0.001502	0.005932	0.005455	-0.003214	4317.352535	18368.724368	3143.188950	9819.298573
72.539500	-0.008533	0.004610	-0.003758	0.002973	4262.175893	18102.938517	3129.843975	9719.971077
73.037500	-0.001107	0.007585	0.010000	-0.001452	4302.280289	18364.823973	3145.652550	9790.868137
73.537500	-0.010407	0.005647	-0.002890	-0.002030	4272.660120	18316.370018	3134.876059	9800.186033
74.035000	-0.004994	0.005658	0.002355	-0.001089	4287.774857	18283.330596	3138.608572	9785.029939
74.536000	-0.010046	0.004544	0.008568	0.004402	4252.386251	18050.546887	3139.237649	9697.221940
75.036000	-0.006188	0.006929	-0.011940	0.000176	4279.441874	18283.546735	3125.287180	9764.703405
75.535500	0.002585	0.007868	0.002542	0.002550	4301.217810	18232.659217	3135.611827	9726.717528
76.036000	-0.005206	0.006977	-0.007325	0.001911	4276.900748	18223.726371	3127.717351	9736.920487
76.536500	-0.008903	0.005400	-0.007325	0.005611	4252.170879	18038.214095	3124.598595	9678.045900
77.037000	-0.008590	0.005146	0.000080	0.001967	4265.344507	18157.130361	3133.990170	9736.019995
77.540000	-0.004645	0.005942	-0.005031	0.002988	4275.160286	18149.206726	3128.748318	9719.723152
78.034500	-0.002785	0.007564	-0.010504	0.005009	4274.618967	18135.181717	3122.442071	9687.587807
78.535000	-0.003927	0.008523	-0.001059	0.012158	4246.968318	17919.047486	3124.362749	9575.077805
79.035500	-0.004719	0.006360	0.006253	0.005731	4265.706621	18067.594220	3136.069834	9676.140563
79.538000	-0.005586	0.006118	-0.004536	0.006558	4260.045598	18030.193103	3126.147300	9663.048180
80.036000	-0.006718	0.006704	-0.004341	0.007474	4253.235829	18018.699178	3125.539930	9648.581443
80.536000	-0.005531	0.006056	0.008863	0.014361	4234.448759	17757.994925	3130.894858	9540.786762
81.036000	-0.008296	0.007396	0.002240	0.009628	4240.909161	17967.773391	3129.284613	9614.691193
81.536500	-0.008306	0.005239	0.002572	0.009350	4241.790213	17902.554051	3129.803402	9619.048133
82.037500	-0.005301	0.006519	-0.005825	0.011526	4244.518795	17871.521296	3120.911320	9584.945877
82.537000	-0.002734	0.006284	-0.002041	0.011037	4254.634731	17880.346878	3124.479510	9592.604887
83.037500	-0.002983	0.006447	0.000508	0.012956	4247.452125	17819.736098	3125.007990	9562.638294
83.535000	-0.006923	0.005981	0.006243	0.014065	4230.866350	17765.594516	3128.915412	9545.382058
84.038000	-0.001292	0.004912	0.001727	0.013406	4251.556090	17751.501464	3125.654436	9555.622709
84.535500	-0.005765	0.004828	-0.004774	0.017942	4222.012701	17593.962283	3116.481648	9485.399571
85.041000	-0.004651	0.007013	0.017936	0.017167	4228.156494	17694.730799	3136.284489	9497.352350
85.536500	-0.003772	0.006314	0.007241	0.016961	4231.699080	17677.887465	3127.308025	9500.533737
86.036000	-0.004077	0.005688	0.008855	0.017424	4229.190761	17640.813065	3128.282497	9493.390672
86.537000	-0.009301	0.004508	0.003713	0.023507	4192.781920	17395.697168	3118.887548	9400.241647
87.037000	-0.005024	0.005812	-0.000409	0.018653	4222.110283	17603.264346	3119.493111	9474.467912
87.537000	-0.004024	0.004968	0.003858	0.018456	4226.002236	17581.317771	3123.206087	9477.498265
