sample name	sample
index	1205
start time	 04-26-2021  12:57:48 PM


Wavelength (nm)	Absorbance
494.344910	-0.632302
494.563924	-0.632302
494.782919	-0.632302
495.001897	NaN
495.220856	-0.224101
495.439797	-0.252319
495.658719	-0.012787
495.877624	0.545621
496.096510	1.052048
496.315378	NaN
496.534227	NaN
496.753059	NaN
496.971872	NaN
497.190667	0.177949
497.409444	0.150542
497.628203	0.145742
497.846943	0.145514
498.065665	0.144803
498.284369	0.142858
498.503055	0.141498
498.721723	0.140624
498.940372	0.140406
499.159003	0.140325
499.377616	0.140578
499.596210	0.139421
499.814787	0.137268
500.033345	0.136309
500.251885	0.137434
500.470406	0.137579
500.688910	0.138644
500.907395	0.138746
501.125862	0.138247
501.344311	0.136828
501.562742	0.137432
501.781154	0.138059
501.999548	0.138223
502.217924	0.137488
502.436282	0.136119
502.654621	0.134874
502.872942	0.133433
503.091245	0.133388
503.309530	0.135008
503.527797	0.135016
503.746045	0.135370
503.964275	0.135784
504.182487	0.136147
504.400681	0.136808
504.618856	0.137750
504.837013	0.138651
505.055152	0.139474
505.273273	0.139373
505.491376	0.138982
505.709460	0.139940
505.927526	0.140682
506.145574	0.140188
506.363604	0.140592
506.581615	0.140070
506.799608	0.140509
507.017583	0.139837
507.235540	0.140253
507.453478	0.140360
507.671399	0.139070
507.889301	0.138320
508.107185	0.138428
508.325050	0.138924
508.542898	0.138344
508.760727	0.138638
508.978538	0.138336
509.196330	0.137879
509.414105	0.138945
509.631861	0.138936
509.849599	0.138430
510.067319	0.139049
510.285021	0.139490
510.502704	0.141135
510.720369	0.140376
510.938016	0.141450
511.155645	0.141587
511.373255	0.139987
511.590848	0.139878
511.808422	0.141179
512.025977	0.141648
512.243515	0.141293
512.461034	0.141364
512.678536	0.141743
512.896018	0.141120
513.113483	0.140985
513.330930	0.142122
513.548358	0.142914
513.765768	0.143166
513.983160	0.141945
514.200533	0.141986
514.417889	0.141776
514.635226	0.141291
514.852545	0.140480
515.069845	0.140894
515.287128	0.140201
515.504392	0.139508
515.721638	0.139114
515.938866	0.139438
516.156075	0.138529
516.373267	0.139040
516.590440	0.140321
516.807594	0.141791
517.024731	0.141835
517.241850	0.143015
517.458950	0.143638
517.676032	0.143335
517.893095	0.144411
518.110141	0.145790
518.327168	0.145459
518.544177	0.145317
518.761168	0.144165
518.978141	0.144323
519.195095	0.143532
519.412031	0.143817
519.628949	0.144152
519.845849	0.144599
520.062731	0.144165
520.279594	0.144008
520.496439	0.143505
520.713266	0.145034
520.930074	0.145155
521.146865	0.145940
521.363637	0.146058
521.580391	0.146534
521.797127	0.146454
522.013844	0.147466
522.230543	0.147673
522.447224	0.148062
522.663887	0.148572
522.880532	0.149368
523.097158	0.149554
523.313766	0.149566
523.530356	0.149390
523.746928	0.149293
523.963481	0.148887
524.180017	0.149440
524.396534	0.149183
524.613032	0.148995
524.829513	0.149181
525.045975	0.149521
525.262420	0.149967
525.478845	0.150910
525.695253	0.151023
525.911643	0.151651
526.128014	0.151807
526.344367	0.152344
526.560702	0.151816
526.777018	0.151864
526.993316	0.151807
527.209597	0.151918
527.425858	0.151940
527.642102	0.151706
527.858328	0.151424
528.074535	0.151464
528.290724	0.151703
528.506894	0.152190
528.723047	0.152416
528.939181	0.152852
529.155297	0.153506
529.371395	0.153179
529.587475	0.153961
529.803536	0.155034
530.019579	0.155993
530.235604	0.156699
530.451611	0.157156
530.667600	0.157744
530.883570	0.158905
531.099522	0.158626
531.315456	0.159773
531.531372	0.160202
531.747269	0.159807
531.963148	0.159513
532.179009	0.159328
532.394852	0.159768
532.610676	0.160019
532.826482	0.159498
533.042271	0.160029
533.258040	0.160223
533.473792	0.160110
533.689525	0.160822
533.905240	0.161706
534.120937	0.162308
534.336616	0.162017
534.552277	0.162295
534.767919	0.162606
534.983543	0.163273
535.199149	0.163362
535.414736	0.164147
535.630306	0.164372
535.845857	0.164154
536.061390	0.164700
536.276904	0.165342
536.492401	0.165610
536.707879	0.165876
536.923339	0.165868
537.138781	0.166337
537.354204	0.166475
537.569610	0.166667
537.784997	0.167060
538.000366	0.167253
538.215716	0.168578
538.431049	0.169008
538.646363	0.169533
538.861659	0.169986
539.076937	0.170644
539.292196	0.171114
539.507438	0.171899
539.722661	0.172319
539.937866	0.172601
540.153052	0.171792
540.368221	0.171920
540.583371	0.172219
540.798503	0.172315
541.013617	0.172340
541.228712	0.172505
541.443789	0.172188
541.658848	0.172937
541.873889	0.173355
542.088912	0.173838
542.303916	0.174119
542.518902	0.174047
542.733870	0.174548
542.948820	0.174700
543.163752	0.175282
543.378665	0.175625
543.593560	0.175952
543.808437	0.176485
544.023295	0.176476
544.238136	0.176353
544.452958	0.176760
544.667762	0.176955
544.882548	0.177449
545.097315	0.177047
545.312064	0.177427
545.526795	0.177067
545.741508	0.177220
545.956203	0.177856
546.170879	0.178464
546.385537	0.178968
546.600177	0.178715
546.814799	0.179196
547.029402	0.179463
547.243988	0.179222
547.458555	0.179460
547.673103	0.179384
547.887634	0.179366
548.102146	0.179350
548.316640	0.179604
548.531116	0.180530
548.745574	0.180298
548.960013	0.180982
549.174435	0.181906
549.388838	0.182305
549.603222	0.182414
549.817589	0.182816
550.031937	0.182650
550.246267	0.182617
550.460579	0.182499
550.674873	0.182673
550.889148	0.182775
551.103405	0.182471
551.317644	0.182689
551.531865	0.183127
551.746068	0.183732
551.960252	0.184446
552.174418	0.184598
552.388566	0.184817
552.602696	0.185527
552.816807	0.185584
553.030900	0.185818
553.244975	0.185944
553.459032	0.185917
553.673070	0.185705
553.887091	0.185190
554.101093	0.185207
554.315077	0.185014
554.529042	0.184444
554.742990	0.184459
554.956919	0.184418
555.170830	0.184053
555.384722	0.184343
555.598597	0.184346
555.812453	0.184687
556.026291	0.184783
556.240111	0.185159
556.453913	0.185601
556.667696	0.186031
556.881461	0.186100
557.095208	0.186089
557.308937	0.185988
557.522647	0.186197
557.736339	0.186829
557.950013	0.187293
558.163669	0.187433
558.377307	0.187401
558.590926	0.187052
558.804527	0.187628
559.018110	0.188252
559.231675	0.188436
559.445221	0.188626
559.658749	0.188748
559.872259	0.188490
560.085751	0.188644
560.299225	0.188652
560.512680	0.189114
560.726117	0.188951
560.939536	0.189318
561.152937	0.189696
561.366319	0.189825
561.579683	0.190082
561.793029	0.190167
562.006357	0.190284
562.219667	0.190076
562.432958	0.190115
562.646231	0.190461
562.859486	0.190680
563.072723	0.190453
563.285941	0.190526
563.499141	0.190370
563.712323	0.190751
563.925487	0.190925
564.138632	0.191469
564.351760	0.191605
564.564869	0.191555
564.777960	0.191191
564.991032	0.191343
565.204087	0.191077
565.417123	0.190934
565.630141	0.190590
565.843140	0.190491
566.056122	0.190340
566.269085	0.190424
566.482030	0.190526
566.694957	0.190371
566.907866	0.190619
567.120756	0.190716
567.333628	0.190764
567.546482	0.191428
567.759318	0.191234
567.972135	0.191392
568.184935	0.191783
568.397716	0.191606
568.610478	0.192011
568.823223	0.192110
569.035949	0.192203
569.248657	0.192530
569.461347	0.192325
569.674019	0.192747
569.886672	0.193099
570.099308	0.192655
570.311925	0.192883
570.524523	0.192894
570.737104	0.192545
570.949666	0.192467
571.162210	0.192545
571.374736	0.192412
571.587244	0.192270
571.799733	0.191802
572.012205	0.192467
572.224658	0.192513
572.437092	0.192858
572.649509	0.193254
572.861907	0.193638
573.074287	0.193919
573.286649	0.194213
573.498993	0.194545
573.711318	0.195068
573.923625	0.195107
574.135914	0.195330
574.348185	0.195116
574.560438	0.195177
574.772672	0.195514
574.984888	0.195451
575.197086	0.195771
575.409266	0.196145
575.621427	0.196352
575.833570	0.196272
576.045695	0.196491
576.257802	0.197118
576.469890	0.197415
576.681961	0.197371
576.894013	0.197549
577.106046	0.197745
577.318062	0.197757
577.530059	0.197733
577.742039	0.198137
577.954000	0.198435
578.165942	0.198071
578.377867	0.197987
578.589773	0.197895
578.801661	0.197905
579.013531	0.197715
579.225382	0.197225
579.437216	0.197303
579.649031	0.196880
579.860828	0.196936
580.072606	0.197146
580.284367	0.197286
580.496109	0.197674
580.707833	0.198047
580.919539	0.198238
581.131227	0.198942
581.342896	0.199255
581.554547	0.199607
581.766180	0.199484
581.977795	0.199867
582.189391	0.200018
582.400969	0.200022
582.612529	0.199596
582.824071	0.199836
583.035595	0.199857
583.247100	0.199388
583.458587	0.199491
583.670056	0.199719
583.881506	0.199559
584.092939	0.199676
584.304353	0.199708
584.515749	0.200431
584.727127	0.200812
584.938486	0.201401
585.149828	0.202097
585.361151	0.202391
585.572456	0.202308
585.783742	0.202478
585.995011	0.202832
586.206261	0.203092
586.417493	0.203120
586.628706	0.203169
586.839902	0.203060
587.051079	0.202742
587.262238	0.202559
587.473379	0.203203
587.684502	0.203173
587.895606	0.203346
588.106692	0.203946
588.317760	0.203902
588.528810	0.203941
588.739841	0.204162
588.950855	0.204447
589.161850	0.204602
589.372827	0.204449
589.583785	0.205035
589.794726	0.205065
590.005648	0.204968
590.216552	0.205307
590.427437	0.205204
590.638305	0.205402
590.849154	0.205819
591.059985	0.206050
591.270798	0.206249
591.481592	0.206265
591.692369	0.206566
591.903127	0.207006
592.113867	0.207236
592.324588	0.207606
592.535292	0.207601
592.745977	0.207924
592.956644	0.208394
593.167293	0.208483
593.377923	0.208847
593.588536	0.208489
593.799130	0.208155
594.009706	0.207969
594.220263	0.207966
594.430803	0.208042
594.641324	0.207724
594.851827	0.207348
595.062312	0.207600
595.272778	0.207590
595.483227	0.208145
595.693657	0.208680
595.904069	0.208958
596.114462	0.209002
596.324838	0.208704
596.535195	0.209119
596.745534	0.209768
596.955855	0.209817
597.166157	0.209908
597.376441	0.209954
597.586707	0.209949
597.796955	0.209785
598.007185	0.210284
598.217396	0.210692
598.427589	0.210678
598.637764	0.210478
598.847921	0.210814
599.058060	0.210943
599.268180	0.211329
599.478282	0.211485
599.688366	0.211834
599.898431	0.211893
600.108479	0.212450
600.318508	0.212553
600.528519	0.212645
600.738511	0.212602
600.948486	0.212922
601.158442	0.213075
601.368380	0.213454
601.578300	0.213816
601.788202	0.213995
601.998085	0.213911
602.207950	0.214015
602.417797	0.214311
602.627626	0.214684
602.837436	0.215113
603.047228	0.214968
603.257002	0.215050
603.466758	0.215343
603.676496	0.215455
603.886215	0.215381
604.095916	0.215817
604.305599	0.216091
604.515264	0.216384
604.724910	0.216116
604.934538	0.216247
605.144148	0.216252
605.353740	0.216544
605.563314	0.216793
605.772869	0.217218
605.982406	0.217201
606.191925	0.217627
606.401425	0.217549
606.610908	0.217854
606.820372	0.218126
607.029818	0.218192
607.239246	0.218199
607.448655	0.218319
607.658047	0.218743
607.867420	0.218766
608.076775	0.218348
608.286111	0.218448
608.495430	0.218422
608.704730	0.218390
608.914012	0.218278
609.123275	0.218198
609.332521	0.218263
609.541748	0.217922
609.750957	0.218454
609.960148	0.218996
610.169321	0.218934
610.378475	0.218754
610.587611	0.218966
610.796729	0.219267
611.005829	0.219393
611.214910	0.219486
611.423974	0.219742
611.633019	0.219864
611.842045	0.219863
612.051054	0.220281
612.260044	0.220983
612.469017	0.221018
612.677970	0.221460
612.886906	0.221820
613.095824	0.222007
613.304723	0.222218
613.513604	0.222670
613.722467	0.223234
613.931311	0.223362
614.140138	0.223320
614.348946	0.223881
614.557736	0.223764
614.766507	0.223928
614.975261	0.224206
615.183996	0.224289
615.392713	0.223986
615.601412	0.223545
615.810092	0.223813
616.018754	0.224031
616.227399	0.224142
616.436024	0.224553
616.644632	0.224811
616.853222	0.224825
617.061793	0.224951
617.270346	0.224985
617.478880	0.225209
617.687397	0.225035
617.895895	0.225194
618.104375	0.225280
618.312837	0.225194
618.521281	0.225095
618.729706	0.225340
618.938113	0.225774
619.146502	0.226221
619.354873	0.226777
619.563226	0.227156
619.771560	0.227165
619.979876	0.227374
620.188174	0.227706
620.396453	0.227865
620.604715	0.227754
620.812958	0.227755
621.021183	0.228014
621.229390	0.227962
621.437578	0.228336
621.645748	0.228539
621.853900	0.228637
622.062034	0.228478
622.270150	0.228671
622.478247	0.228887
622.686326	0.228898
622.894387	0.228946
623.102430	0.228929
623.310454	0.228778
623.518461	0.228948
623.726449	0.228900
623.934418	0.229356
624.142370	0.229577
624.350303	0.229994
624.558218	0.230367
624.766115	0.230259
624.973994	0.230329
625.181855	0.230545
625.389697	0.230748
625.597521	0.231322
625.805327	0.231410
626.013114	0.231591
626.220883	0.231685
626.428634	0.231482
626.636367	0.231770
626.844082	0.232113
627.051778	0.232165
627.259457	0.232372
627.467117	0.232373
627.674758	0.232355
627.882382	0.232557
628.089987	0.232491
628.297574	0.233072
628.505143	0.233236
628.712694	0.233614
628.920226	0.233881
629.127740	0.233811
629.335236	0.233721
629.542714	0.234184
629.750174	0.234129
629.957615	0.234341
630.165038	0.234400
630.372443	0.234628
630.579829	0.234523
630.787198	0.234834
630.994548	0.235115
631.201880	0.235507
631.409194	0.235525
631.616489	0.235832
631.823766	0.236188
632.031025	0.236164
632.238266	0.236463
632.445489	0.236558
632.652693	0.236582
632.859879	0.236662
633.067047	0.236482
633.274197	0.236367
633.481329	0.236439
633.688442	0.236229
633.895537	0.236589
634.102614	0.236535
634.309672	0.236726
634.516713	0.236544
634.723735	0.236813
634.930739	0.237047
635.137724	0.237418
635.344692	0.237612
635.551641	0.237820
635.758572	0.237616
635.965485	0.237754
636.172379	0.237804
636.379256	0.238241
636.586114	0.238419
636.792954	0.238793
636.999775	0.238862
637.206579	0.238808
637.413364	0.239303
637.620131	0.239450
637.826880	0.239783
638.033610	0.239857
638.240323	0.239896
638.447017	0.239866
638.653692	0.239902
638.860350	0.240137
639.066990	0.240277
639.273611	0.240193
639.480214	0.240725
639.686798	0.240695
639.893365	0.241308
640.099913	0.241826
640.306443	0.242169
640.512955	0.242291
640.719449	0.242492
640.925924	0.242762
641.132381	0.243175
641.338820	0.243266
641.545241	0.243522
641.751644	0.243354
641.958028	0.243031
642.164394	0.243110
642.370742	0.243316
642.577071	0.243273
642.783383	0.243257
642.989676	0.243164
643.195951	0.243307
643.402207	0.243278
643.608446	0.243345
643.814666	0.243655
644.020868	0.243945
644.227052	0.244050
644.433218	0.244385
644.639365	0.244767
644.845494	0.245087
645.051605	0.245112
645.257698	0.245380
645.463772	0.245655
645.669828	0.245906
645.875866	0.246151
646.081886	0.246366
646.287888	0.246453
646.493871	0.246651
646.699836	0.246769
646.905783	0.246925
647.111712	0.247140
647.317622	0.247518
647.523514	0.247933
647.729388	0.247813
647.935244	0.247905
648.141082	0.248192
648.346901	0.248165
648.552702	0.248437
648.758485	0.248592
648.964250	0.248875
649.169996	0.248887
649.375724	0.249004
649.581434	0.249514
649.787126	0.249955
649.992800	0.250093
650.198455	0.250433
650.404092	0.250555
650.609711	0.250897
650.815311	0.250914
651.020894	0.251086
651.226458	0.251177
651.432004	0.251225
651.637532	0.251151
651.843041	0.251352
652.048532	0.251446
652.254006	0.251754
652.459460	0.251856
652.664897	0.252066
652.870315	0.251997
653.075716	0.251901
653.281097	0.252108
653.486461	0.252245
653.691807	0.252447
653.897134	0.252813
654.102443	0.252815
654.307734	0.252784
654.513006	0.253142
654.718261	0.253449
654.923497	0.253770
655.128715	0.253915
655.333915	0.254155
655.539096	0.254153
655.744259	0.254347
655.949404	0.254667
656.154531	0.255030
656.359640	0.254907
656.564730	0.255121
656.769802	0.255263
656.974856	0.255253
657.179892	0.255426
657.384909	0.255811
657.589908	0.256016
657.794889	0.256063
657.999852	0.256295
658.204797	0.256593
658.409723	0.257031
658.614631	0.257004
658.819521	0.257300
659.024393	0.257519
659.229246	0.257652
659.434081	0.257755
659.638898	0.258109
659.843697	0.258358
660.048478	0.258524
660.253240	0.258659
660.457984	0.259231
660.662710	0.259569
660.867417	0.260001
661.072107	0.260239
661.276778	0.260480
661.481431	0.260542
661.686066	0.260633
661.890682	0.260982
662.095281	0.261137
662.299861	0.261331
662.504422	0.261459
662.708966	0.261647
662.913491	0.261890
663.117999	0.262022
663.322488	0.262153
663.526958	0.262303
663.731411	0.262496
663.935845	0.262688
664.140261	0.262934
664.344659	0.262974
664.549038	0.263233
664.753400	0.263314
664.957743	0.263542
665.162068	0.263884
665.366375	0.264252
665.570663	0.264308
665.774933	0.264805
665.979185	0.264978
666.183419	0.265311
666.387635	0.265381
666.591832	0.265601
666.796011	0.265891
667.000172	0.265957
667.204315	0.266314
667.408439	0.266750
667.612545	0.266541
667.816634	0.266711
668.020703	0.267015
668.224755	0.267174
668.428788	0.267551
668.632803	0.267799
668.836800	0.267835
669.040779	0.268065
669.244739	0.268094
669.448681	0.268372
669.652605	0.268480
669.856511	0.268854
670.060399	0.269135
670.264268	0.269197
670.468119	0.269296
670.671952	0.269629
670.875767	0.269655
671.079563	0.270099
671.283341	0.270385
671.487101	0.270737
671.690843	0.270771
671.894567	0.270885
672.098272	0.271273
672.301959	0.271467
672.505628	0.271821
672.709278	0.272064
672.912911	0.272196
673.116525	0.272245
673.320121	0.272320
673.523699	0.272568
673.727258	0.272920
673.930799	0.272916
674.134322	0.273230
674.337827	0.273580
674.541314	0.273776
674.744782	0.273869
674.948232	0.274269
675.151664	0.274507
675.355078	0.274768
675.558474	0.275083
675.761851	0.275085
675.965210	0.275319
676.168551	0.275288
676.371873	0.275397
676.575178	0.275470
676.778464	0.275385
676.981732	0.275676
677.184981	0.275674
677.388213	0.275728
677.591426	0.276150
677.794621	0.276378
677.997798	0.276953
678.200956	0.277332
678.404097	0.277525
678.607219	0.277784
678.810323	0.277906
679.013408	0.278039
679.216476	0.278163
679.419525	0.278585
679.622556	0.278410
679.825569	0.278232
680.028563	0.278279
680.231540	0.278694
680.434498	0.279009
680.637438	0.279319
680.840359	0.279706
681.043263	0.279852
681.246148	0.279883
681.449015	0.280386
681.651864	0.280489
681.854694	0.280662
682.057506	0.280643
682.260301	0.280963
682.463076	0.281002
682.665834	0.280926
682.868573	0.281201
683.071295	0.281249
683.273998	0.281373
683.476682	0.281621
683.679349	0.281612
683.881997	0.281760
684.084627	0.281821
684.287239	0.281922
684.489833	0.282098
684.692408	0.281862
684.894965	0.281892
685.097504	0.281767
685.300025	0.281762
685.502527	0.282156
685.705012	0.282410
685.907478	0.282466
686.109925	0.282494
686.312355	0.282923
686.514766	0.283357
686.717159	0.283574
686.919534	0.283814
687.121891	0.284224
687.324230	0.284209
687.526550	0.284505
687.728852	0.284590
687.931136	0.284747
688.133401	0.284911
688.335649	0.285124
688.537878	0.285318
688.740089	0.285705
688.942281	0.285865
689.144456	0.285968
689.346612	0.286140
689.548750	0.286318
689.750870	0.286714
689.952971	0.286554
690.155055	0.286842
690.357120	0.286950
690.559167	0.286969
690.761195	0.287043
690.963206	0.287414
691.165198	0.287387
691.367172	0.287727
691.569128	0.287753
691.771065	0.288022
691.972984	0.287971
692.174885	0.288231
692.376768	0.288243
692.578633	0.288458
692.780479	0.288614
692.982308	0.288896
693.184118	0.289119
693.385909	0.289308
693.587683	0.289637
693.789438	0.289801
693.991175	0.290307
694.192894	0.290834
694.394595	0.291174
694.596277	0.291213
694.797941	0.291241
694.999587	0.291214
695.201215	0.291431
695.402824	0.291414
695.604416	0.291619
695.805989	0.291510
696.007543	0.291227
696.209080	0.291101
696.410598	0.291376
696.612099	0.291630
696.813580	0.291923
697.015044	0.292016
697.216490	0.291934
697.417917	0.292364
697.619326	0.292524
697.820717	0.292796
698.022089	0.292879
698.223444	0.292927
698.424780	0.293201
698.626098	0.293140
698.827397	0.293271
699.028679	0.293393
699.229942	0.293188
699.431187	0.293028
699.632414	0.293226
699.833622	0.293360
700.034813	0.293494
700.235985	0.293231
700.437139	0.293505
700.638274	0.293509
700.839392	0.294117
701.040491	0.294286
701.241572	0.294770
701.442635	0.294908
701.643679	0.295307
701.844706	0.295410
702.045714	0.295674
702.246704	0.295700
702.447675	0.296235
702.648629	0.296362
702.849564	0.296556
703.050481	0.296427
703.251380	0.296509
703.452260	0.296541
703.653122	0.296665
703.853966	0.296817
704.054792	0.296878
704.255600	0.296688
704.456389	0.296695
704.657160	0.296561
704.857913	0.296706
705.058648	0.296879
705.259365	0.296611
705.460063	0.296677
705.660743	0.296472
705.861405	0.296484
706.062048	0.296470
706.262674	0.296020
706.463281	0.295973
706.663870	0.295931
706.864441	0.295858
707.064993	0.296020
707.265527	0.295853
707.466043	0.295946
707.666541	0.295850
707.867021	0.296169
708.067482	0.296210
708.267925	0.296250
708.468350	0.296301
708.668757	0.296381
708.869145	0.296426
709.069516	0.296522
709.269868	0.296519
709.470201	0.296827
709.670517	0.296509
709.870814	0.296765
710.071093	0.296841
710.271354	0.296787
710.471597	0.296553
710.671821	0.296736
710.872028	0.296513
711.072216	0.296750
711.272385	0.296708
711.472537	0.296877
711.672670	0.296721
711.872785	0.296683
712.072882	0.296603
712.272961	0.296548
712.473021	0.296419
712.673063	0.296516
712.873087	0.296266
713.073093	0.296153
713.273081	0.295926
713.473050	0.296034
713.673001	0.295983
713.872934	0.295954
714.072849	0.295985
714.272745	0.296093
714.472623	0.296134
714.672483	0.296198
714.872325	0.296330
715.072148	0.296418
715.271954	0.296371
715.471741	0.296541
715.671509	0.296811
715.871260	0.296752
716.070992	0.296417
716.270707	0.296362
716.470403	0.296335
716.670080	0.295899
716.869740	0.295824
717.069381	0.295817
717.269004	0.295667
717.468609	0.295730
717.668195	0.295813
717.867764	0.295897
718.067314	0.295809
718.266846	0.295712
718.466360	0.295839
718.665855	0.295909
718.865332	0.296017
719.064791	0.296045
719.264232	0.295812
719.463655	0.295583
719.663059	0.295514
719.862445	0.295560
720.061813	0.295713
720.261163	0.295883
720.460494	0.295865
720.659807	0.295579
720.859102	0.295478
721.058379	0.295462
721.257638	0.295642
721.456878	0.295701
721.656100	0.295631
721.855304	0.295305
722.054490	0.295059
722.253657	0.294751
722.452806	0.294368
722.651937	0.294117
722.851050	0.293835
723.050145	0.293906
723.249221	0.293612
723.448279	0.293453
723.647319	0.293386
723.846340	0.293021
724.045344	0.292914
724.244329	0.293195
724.443296	0.293192
724.642245	0.293243
724.841175	0.292896
725.040088	0.292561
725.238982	0.292548
725.437857	0.292429
725.636715	0.292456
725.835554	0.292341
726.034376	0.291897
726.233179	0.291628
726.431963	0.291379
726.630730	0.291036
726.829478	0.291194
727.028208	0.290982
727.226920	0.290830
727.425614	0.290564
727.624289	0.290412
727.822946	0.290411
728.021585	0.290337
728.220206	0.290230
728.418808	0.290367
728.617392	0.290094
728.815958	0.289798
729.014506	0.289538
729.213036	0.289470
729.411547	0.289278
729.610040	0.289236
729.808515	0.289336
730.006972	0.289082
730.205410	0.289029
730.403831	0.289010
730.602233	0.289169
730.800616	0.289156
730.998982	0.289270
731.197329	0.289143
731.395658	0.289055
731.593969	0.288892
731.792262	0.288695
731.990536	0.288209
732.188793	0.287986
732.387031	0.287648
732.585250	0.287582
732.783452	0.287372
732.981635	0.287294
733.179800	0.287175
733.377947	0.287020
733.576076	0.286904
733.774186	0.286881
733.972278	0.286952
734.170352	0.287066
734.368408	0.286882
734.566446	0.286660
734.764465	0.286764
734.962466	0.286662
735.160449	0.286649
735.358413	0.286778
735.556360	0.286714
735.754288	0.286165
735.952198	0.285961
736.150090	0.286108
736.347963	0.285999
736.545818	0.285537
736.743655	0.285252
736.941474	0.285014
737.139275	0.284695
737.337057	0.284727
737.534821	0.284857
737.732567	0.284843
737.930295	0.284274
738.128005	0.284217
738.325696	0.284423
738.523369	0.284348
738.721024	0.283988
738.918660	0.283847
739.116279	0.283695
739.313879	0.283695
739.511461	0.283405
739.709024	0.283545
739.906570	0.283206
740.104097	0.282562
740.301606	0.282197
740.499097	0.282097
740.696569	0.281660
740.894024	0.281441
741.091460	0.280871
741.288878	0.280694
741.486277	0.280481
741.683659	0.280469
741.881022	0.280691
742.078367	0.280795
742.275694	0.280579
742.473002	0.280863
742.670293	0.280770
742.867565	0.280846
743.064819	0.280628
743.262054	0.280476
743.459272	0.280163
743.656471	0.280032
743.853652	0.279919
744.050815	0.279803
744.247959	0.279683
744.445085	0.279465
744.642194	0.279465
744.839283	0.279111
745.036355	0.279083
745.233408	0.279374
745.430444	0.278931
745.627461	0.278848
745.824459	0.278926
746.021440	0.278778
746.218402	0.278592
746.415346	0.278612
746.612272	0.279081
746.809180	0.278870
747.006069	0.278292
747.202940	0.278391
747.399793	0.278319
747.596628	0.277915
747.793444	0.277896
747.990243	0.277878
748.187023	0.277738
748.383784	0.277439
748.580528	0.276906
748.777253	0.276996
748.973960	0.276940
749.170649	0.276633
749.367320	0.276696
749.563973	0.276267
749.760607	0.275969
749.957223	0.275491
750.153821	0.274998
750.350400	0.274859
750.546962	0.274654
750.743505	0.274134
750.940030	0.273889
751.136536	0.273749
751.333025	0.273623
751.529495	0.273641
751.725947	0.273649
751.922381	0.273523
752.118796	0.273589
752.315194	0.273513
752.511573	0.273592
752.707934	0.273655
752.904276	0.273538
753.100601	0.273412
753.296907	0.273017
753.493195	0.272799
753.689465	0.273032
753.885716	0.272919
754.081949	0.272822
754.278164	0.272548
754.474361	0.272602
754.670540	0.272160
754.866700	0.271936
755.062843	0.271920
755.258967	0.271836
755.455072	0.271310
755.651160	0.271257
755.847229	0.270910
756.043280	0.271060
756.239313	0.270493
756.435328	0.270422
756.631324	0.270620
756.827302	0.270319
757.023262	0.269985
757.219204	0.269972
757.415127	0.269671
757.611033	0.269771
757.806920	0.269413
758.002788	0.269253
758.198639	0.269006
758.394471	0.268676
758.590286	0.268524
758.786081	0.268199
758.981859	0.267831
759.177619	0.267830
759.373360	0.267351
759.569083	0.267246
759.764788	0.267264
759.960474	0.267276
760.156143	0.266930
760.351793	0.267260
760.547425	0.267270
760.743038	0.267391
760.938634	0.267408
761.134211	0.267128
761.329770	0.267041
761.525311	0.266692
761.720833	0.266586
761.916338	0.266451
762.111824	0.265883
762.307292	0.265712
762.502741	0.265445
762.698173	0.264834
762.893586	0.265082
763.088981	0.264959
763.284358	0.265100
763.479716	0.265041
763.675057	0.265013
763.870379	0.264917
764.065683	0.265041
764.260968	0.264951
764.456236	0.265086
764.651485	0.264881
764.846716	0.264738
765.041929	0.264612
765.237123	0.264510
765.432299	0.264557
765.627457	0.264757
765.822597	0.264768
766.017719	0.264761
766.212822	0.264880
766.407907	0.264841
766.602974	0.264808
766.798023	0.264713
766.993054	0.264581
767.188066	0.264362
767.383060	0.264062
767.578036	0.263895
767.772993	0.263791
767.967933	0.263721
768.162854	0.263683
768.357757	0.263515
768.552642	0.263380
768.747508	0.263390
768.942356	0.263491
769.137186	0.263543
769.331998	0.263414
769.526792	0.263621
769.721567	0.263441
769.916324	0.263460
770.111063	0.263310
770.305784	0.263339
770.500486	0.263022
770.695171	0.262934
770.889837	0.262673
771.084484	0.262495
771.279114	0.262094
771.473725	0.261740
771.668318	0.261598
771.862893	0.261423
772.057450	0.261137
772.251988	0.261076
772.446509	0.260825
772.641011	0.260908
772.835494	0.261031
773.029960	0.260918
773.224407	0.261185
773.418836	0.260979
773.613247	0.261046
773.807640	0.260942
774.002014	0.261041
774.196370	0.260891
774.390708	0.260494
774.585028	0.260395
774.779330	0.260473
774.973613	0.260123
775.167878	0.259989
775.362125	0.259971
775.556354	0.260187
775.750564	0.260354
775.944756	0.260552
776.138930	0.261032
776.333086	0.260828
776.527223	0.260612
776.721343	0.260491
776.915444	0.260657
777.109526	0.260324
777.303591	0.260207
777.497637	0.259853
777.691666	0.259645
777.885676	0.259202
778.079667	0.259324
778.273641	0.259428
778.467596	0.259517
778.661533	0.259334
778.855452	0.259558
779.049352	0.259435
779.243235	0.259552
779.437099	0.259534
779.630945	0.259590
779.824773	0.259538
780.018582	0.259828
780.212373	0.260050
780.406146	0.260329
780.599901	0.260619
780.793638	0.260458
780.987356	0.260423
781.181056	0.260388
781.374738	0.260302
781.568402	0.260272
781.762047	0.260137
781.955674	0.259985
782.149283	0.259907
782.342874	0.259828
782.536447	0.260099
782.730001	0.260359
782.923537	0.260603
783.117055	0.260612
783.310555	0.260829
783.504036	0.260810
783.697499	0.261125
783.890944	0.260917
784.084371	0.260958
784.277780	0.261173
784.471170	0.260948
784.664542	0.260827
784.857896	0.261017
785.051231	0.260860
785.244549	0.260817
785.437848	0.260783
785.631129	0.261048
785.824392	0.260835
786.017636	0.260613
786.210863	0.260416
786.404071	0.260465
786.597260	0.260478
786.790432	0.260503
786.983585	0.260518
787.176721	0.260396
787.369838	0.260601
787.562936	0.260780
787.756017	0.260989
787.949079	0.261389
788.142123	0.261616
788.335149	0.261742
788.528156	0.261837
788.721146	0.262071
788.914117	0.262164
789.107070	0.262219
789.300005	0.262378
789.492921	0.262275
789.685819	0.262461
789.878699	0.262562
790.071561	0.262679
790.264405	0.262855
790.457230	0.263071
790.650037	0.263647
790.842826	0.263699
791.035597	0.263808
791.228349	0.264011
791.421084	0.263806
791.613800	0.263935
791.806497	0.263949
791.999177	0.264120
792.191838	0.263967
792.384481	0.263782
792.577106	0.263899
792.769713	0.264276
792.962301	0.264453
793.154871	0.264757
793.347423	0.264855
793.539957	0.264941
793.732473	0.264976
793.924970	0.265191
794.117449	0.265285
794.309910	0.265384
794.502353	0.265332
794.694777	0.265498
794.887183	0.265384
795.079571	0.265308
795.271941	0.265675
795.464293	0.265584
795.656626	0.265700
795.848941	0.265813
796.041238	0.266004
796.233516	0.266008
796.425777	0.265919
796.618019	0.266292
796.810243	0.266563
797.002449	0.266494
797.194636	0.266948
797.386805	0.267023
797.578956	0.267091
797.771089	0.267322
797.963204	0.267491
798.155300	0.267781
798.347378	0.267898
798.539438	0.267964
798.731480	0.268325
798.923503	0.268596
799.115509	0.268908
799.307496	0.269340
799.499465	0.269376
799.691415	0.269563
799.883348	0.269715
800.075262	0.269929
800.267158	0.270433
800.459035	0.270470
800.650895	0.270363
800.842736	0.270523
801.034559	0.270373
801.226364	0.270538
801.418150	0.270750
801.609919	0.270886
801.801669	0.271156
801.993401	0.271196
802.185114	0.271337
802.376810	0.271872
802.568487	0.271986
802.760146	0.272671
802.951787	0.272836
803.143409	0.272888
803.335014	0.273505
803.526600	0.273556
803.718168	0.273566
803.909717	0.273706
804.101249	0.273748
804.292762	0.274112
804.484257	0.274021
804.675734	0.274163
804.867192	0.274248
805.058632	0.274108
805.250054	0.274359
805.441458	0.274542
805.632844	0.275144
805.824211	0.275412
806.015561	0.275196
806.206891	0.275194
806.398204	0.275386
806.589499	0.275896
806.780775	0.276055
806.972033	0.276171
807.163273	0.276524
807.354495	0.276544
807.545698	0.276723
807.736883	0.277409
807.928050	0.277843
808.119199	0.278144
808.310329	0.278175
808.501441	0.278463
808.692535	0.279073
808.883611	0.279159
809.074669	0.279498
809.265708	0.279912
809.456729	0.280116
809.647732	0.280328
809.838717	0.280608
810.029683	0.281178
810.220632	0.281409
810.411562	0.281324
810.602474	0.281824
810.793367	0.281839
810.984242	0.282121
811.175100	0.282589
811.365938	0.282788
811.556759	0.283029
811.747562	0.283045
811.938346	0.283134
812.129112	0.283397
812.319860	0.283553
812.510589	0.284063
812.701300	0.284176
812.891994	0.284020
813.082668	0.284121
813.273325	0.284389
813.463964	0.284733
813.654584	0.285444
813.845186	0.285876
814.035769	0.286258
814.226335	0.286400
814.416882	0.286443
814.607411	0.286704
814.797922	0.287354
814.988415	0.287629
815.178889	0.287798
815.369345	0.288119
815.559783	0.288441
815.750203	0.288542
815.940605	0.288959
816.130988	0.289597
816.321353	0.290205
816.511700	0.290537
816.702028	0.290880
816.892339	0.291353
817.082631	0.291529
817.272905	0.291691
817.463161	0.291924
817.653398	0.292466
817.843617	0.292655
818.033819	0.292670
818.224001	0.292702
818.414166	0.292799
818.604312	0.292715
818.794440	0.292935
818.984550	0.293047
819.174642	0.293241
819.364716	0.292970
819.554771	0.293335
819.744808	0.293816
819.934827	0.293958
820.124827	0.294328
820.314810	0.294968
820.504774	0.295233
820.694720	0.295689
820.884647	0.296128
821.074557	0.296724
821.264448	0.296949
821.454321	0.297290
821.644176	0.297850
821.834012	0.298418
822.023831	0.298359
822.213631	0.299057
822.403413	0.299686
822.593176	0.300081
822.782922	0.300536
822.972649	0.300753
823.162358	0.301196
823.352049	0.301617
823.541721	0.301832
823.731376	0.302664
823.921012	0.302695
824.110629	0.303121
824.300229	0.303738
824.489811	0.303964
824.679374	0.304425
824.868919	0.304375
825.058445	0.304953
825.247954	0.305202
825.437444	0.305417
825.626916	0.305912
825.816370	0.306117
826.005806	0.306381
826.195223	0.306690
826.384622	0.307243
826.574003	0.307994
826.763366	0.307804
826.952711	0.308562
827.142037	0.309028
827.331345	0.309169
827.520635	0.309582
827.709906	0.309920
827.899160	0.310368
828.088395	0.310403
828.277612	0.310400
828.466810	0.311139
828.655991	0.311165
828.845153	0.311317
829.034297	0.311511
829.223423	0.311462
829.412531	0.311547
829.601620	0.311762
829.790691	0.311749
829.979744	0.312297
830.168779	0.312552
830.357795	0.312708
830.546793	0.313181
830.735773	0.313668
830.924735	0.313989
831.113679	0.314616
831.302604	0.315014
831.491511	0.315416
831.680400	0.315845
831.869271	0.315965
832.058123	0.316507
832.246957	0.316684
832.435773	0.317032
832.624571	0.317554
832.813351	0.318175
833.002112	0.318503
833.190855	0.319326
833.379580	0.319602
833.568287	0.320183
833.756975	0.320675
833.945645	0.321161
834.134297	0.322138
834.322931	0.322761
834.511547	0.322871
834.700144	0.323423
834.888723	0.323977
835.077284	0.324660
835.265826	0.325284
835.454351	0.325821
835.642857	0.326386
835.831345	0.326425
836.019815	0.326707
836.208266	0.327050
836.396699	0.327197
836.585114	0.327568
836.773511	0.327528
836.961890	0.328159
837.150250	0.328697
837.338592	0.329336
837.526916	0.329790
837.715222	0.330536
837.903510	0.331276
838.091779	0.332364
838.280030	0.332885
838.468263	0.333835
838.656477	0.334117
838.844674	0.334360
839.032852	0.334913
839.221012	0.335412
839.409153	0.335761
839.597277	0.336077
839.785382	0.336193
839.973469	0.336492
840.161538	0.336830
840.349589	0.337206
840.537621	0.337862
840.725635	0.338130
840.913631	0.338742
841.101609	0.339319
841.289568	0.339590
841.477509	0.340010
841.665432	0.340548
841.853337	0.341221
842.041224	0.341614
842.229092	0.341956
842.416942	0.342217
842.604774	0.342340
842.792588	0.342612
842.980383	0.343394
843.168160	0.343846
843.355919	0.344480
843.543660	0.344593
843.731382	0.345169
843.919087	0.345375
844.106773	0.346235
844.294441	0.346895
844.482090	0.347305
844.669722	0.347783
844.857335	0.348269
845.044930	0.348547
845.232507	0.348874
845.420065	0.349243
845.607605	0.350007
845.795127	0.350036
845.982631	0.350765
846.170117	0.351421
846.357584	0.352034
846.545033	0.352262
846.732464	0.352868
846.919877	0.353457
847.107272	0.354230
847.294648	0.354743
847.482006	0.355422
847.669346	0.355376
847.856667	0.355697
848.043971	0.355943
848.231256	0.356805
848.418523	0.357132
848.605771	0.357753
848.793002	0.357977
848.980214	0.358126
849.167408	0.358640
849.354584	0.359305
849.541742	0.360015
849.728881	0.360519
849.916002	0.361065
850.103105	0.361612
850.290190	0.361941
850.477256	0.362090
850.664304	0.362753
850.851334	0.363040
851.038346	0.363255
851.225340	0.363418
851.412315	0.363735
851.599272	0.363788
851.786211	0.364261
851.973132	0.364755
852.160034	0.365125
852.346918	0.365492
852.533784	0.365880
852.720632	0.366348
852.907462	0.366631
853.094273	0.367116
853.281066	0.367468
853.467841	0.367718
853.654598	0.367971
853.841336	0.368270
854.028056	0.368401
854.214758	0.368743
854.401442	0.369101
854.588107	0.369874
854.774755	0.369792
854.961384	0.370303
855.147995	0.370286
855.334587	0.371199
855.521162	0.371790
855.707718	0.372267
855.894256	0.372879
856.080775	0.373094
856.267277	0.373362
856.453760	0.374078
856.640225	0.374642
856.826672	0.375602
857.013101	0.375806
857.199511	0.375997
857.385903	0.376720
857.572277	0.377127
857.758633	0.377759
857.944970	0.378111
858.131290	0.378823
858.317591	0.378995
858.503873	0.379261
858.690138	0.379742
858.876384	0.380614
859.062612	0.381145
859.248822	0.381556
859.435014	0.382193
859.621188	0.382608
859.807343	0.382738
859.993480	0.383392
860.179599	0.384226
860.365699	0.384769
860.551781	0.385186
860.737846	0.385492
860.923891	0.385945
861.109919	0.386386
861.295929	0.386897
861.481920	0.387279
861.667893	0.387382
861.853848	0.387395
862.039784	0.387185
862.225702	0.387222
862.411603	0.387419
862.597484	0.387754
862.783348	0.387836
862.969193	0.388073
863.155021	0.388745
863.340830	0.389507
863.526620	0.389901
863.712393	0.390704
863.898147	0.391689
864.083883	0.391713
864.269601	0.392330
864.455301	0.392917
864.640982	0.393427
864.826645	0.393351
865.012290	0.393741
865.197917	0.393714
865.383526	0.393740
865.569116	0.394388
865.754688	0.395405
865.940242	0.395594
866.125777	0.395887
866.311295	0.396043
866.496794	0.396616
866.682275	0.396776
866.867737	0.397591
867.053182	0.397994
867.238608	0.397753
867.424016	0.397669
867.609406	0.397763
867.794778	0.397851
867.980131	0.398465
868.165466	0.398400
868.350783	0.398366
868.536082	0.398749
868.721362	0.399341
868.906625	0.399268
869.091869	0.399542
869.277094	0.399641
869.462302	0.400015
869.647491	0.400037
869.832662	0.400805
870.017815	0.401312
870.202950	0.401653
870.388066	0.401310
870.573165	0.401806
870.758245	0.402280
870.943306	0.402634
871.128350	0.402646
871.313375	0.402833
871.498382	0.402960
871.683371	0.403031
871.868342	0.402776
872.053294	0.403243
872.238229	0.403318
872.423144	0.403426
872.608042	0.403342
872.792922	0.403854
872.977783	0.404390
873.162626	0.404227
873.347451	0.404486
873.532258	0.404664
873.717046	0.404979
873.901816	0.405240
874.086568	0.405386
874.271302	0.405833
874.456017	0.405914
874.640715	0.405994
874.825394	0.406396
875.010055	0.406657
875.194697	0.406761
875.379322	0.407029
875.563928	0.407361
875.748516	0.407560
875.933085	0.407923
876.117637	0.408431
876.302170	0.408929
876.486685	0.409561
876.671182	0.410031
876.855661	0.410521
877.040121	0.410536
877.224563	0.410565
877.408987	0.410670
877.593393	0.410900
877.777780	0.410864
877.962150	0.410149
878.146501	0.409871
878.330833	0.409706
878.515148	0.409451
878.699444	0.409436
878.883722	0.409811
879.067982	0.410380
879.252224	0.410433
879.436447	0.410878
879.620653	0.411202
879.804840	0.411620
879.989008	0.411701
880.173159	0.412419
880.357291	0.412410
880.541405	0.412841
880.725501	0.412916
880.909579	0.412958
881.093638	0.413193
881.277680	0.413124
881.461703	0.412745
881.645707	0.413249
881.829694	0.413204
882.013662	0.413780
882.197612	0.413581
882.381544	0.413098
882.565458	0.413454
882.749353	0.413420
882.933230	0.414319
883.117089	0.415127
883.300930	0.415241
883.484753	0.415065
883.668557	0.415033
883.852343	0.415209
884.036111	0.416072
884.219861	0.416275
884.403592	0.416107
884.587305	0.416113
884.771000	0.416612
884.954677	0.416806
885.138335	0.417120
885.321976	0.417169
885.505598	0.417093
885.689201	0.416461
885.872787	0.416473
886.056354	0.416631
886.239904	0.416245
886.423434	0.415254
886.606947	0.415022
886.790442	0.415246
886.973918	0.415994
887.157376	0.415856
887.340816	0.416541
887.524237	0.416595
887.707641	0.416975
887.891026	0.416835
888.074393	0.416577
888.257741	0.416608
888.441072	0.416205
888.624384	0.415333
888.807678	0.415628
888.990954	0.415833
889.174211	0.415373
889.357451	0.414999
889.540672	0.415247
889.723875	0.415681
889.907059	0.416307
890.090226	0.416863
890.273374	0.416921
890.456504	0.416969
890.639616	0.417160
890.822709	0.417367
891.005785	0.417451
891.188842	0.417473
891.371881	0.417493
891.554901	0.416910
891.737904	0.416340
891.920888	0.416094
892.103854	0.415988
892.286802	0.414828
892.469731	0.415073
892.652643	0.414757
892.835536	0.414652
893.018410	0.414985
893.201267	0.414512
893.384106	0.414945
893.566926	0.415416
893.749728	0.415635
893.932511	0.416091
894.115277	0.416130
894.298024	0.416284
894.480753	0.416433
894.663464	0.415339
894.846157	0.415853
895.028831	0.415504
895.211487	0.415038
895.394125	0.414496
895.576745	0.414146
895.759346	0.413961
895.941930	0.413799
896.124495	0.413201
896.307041	0.413839
896.489570	0.412798
896.672080	0.412802
896.854573	0.412373
897.037046	0.412079
897.219502	0.411656
897.401940	0.410858
897.584359	0.410579
897.766760	0.410357
897.949143	0.410171
898.131507	0.410466
898.313854	0.409600
898.496182	0.410200
898.678492	0.410126
898.860783	0.409745
899.043057	0.409212
899.225312	0.409094
899.407549	0.409000
899.589768	0.408756
899.771968	0.408658
899.954151	0.408670
900.136315	0.408054
900.318461	0.408001
900.500588	0.408082
900.682698	0.408768
900.864789	0.408346
901.046862	0.408489
901.228917	0.407685
901.410953	0.407612
901.592971	0.407562
901.774972	0.407371
901.956953	0.406593
902.138917	0.406549
902.320862	0.405967
902.502790	0.405181
902.684699	0.404963
902.866589	0.405529
903.048462	0.405369
903.230316	0.405010
903.412152	0.404039
903.593970	0.404547
903.775770	0.404123
903.957551	0.404043
904.139314	0.404149
904.321059	0.403089
904.502786	0.402044
904.684494	0.400984
904.866185	0.400442
905.047857	0.400643
905.229510	0.398870
905.411146	0.398697
905.592763	0.397840
905.774363	0.397458
905.955943	0.397124
906.137506	0.396761
906.319051	0.396713
906.500577	0.396604
906.682085	0.396527
906.863575	0.396604
907.045046	0.395661
907.226500	0.395374
907.407935	0.395111
907.589352	0.395021
907.770750	0.394619
907.952131	0.393587
908.133493	0.392420
908.314837	0.390947
908.496163	0.390565
908.677470	0.389682
908.858760	0.389088
909.040031	0.388405
909.221284	0.387750
909.402518	0.387479
909.583735	0.386910
909.764933	0.387099
909.946113	0.386773
910.127275	0.386452
910.308418	0.386696
910.489544	0.386627
910.670651	0.386168
910.851740	0.385679
911.032810	0.384725
911.213863	0.384677
911.394897	0.383439
911.575913	0.383426
911.756911	0.382783
911.937890	0.382262
912.118851	0.381594
912.299794	0.381083
912.480719	0.380363
912.661626	0.379753
912.842514	0.379151
913.023384	0.379019
913.204236	0.378038
913.385070	0.377467
913.565886	0.376753
913.746683	0.376427
913.927462	0.375614
914.108223	0.374726
914.288965	0.374117
914.469690	0.373317
914.650396	0.372498
914.831084	0.371817
915.011754	0.371082
915.192405	0.370503
915.373038	0.369576
915.553653	0.369007
915.734250	0.368630
915.914829	0.368051
916.095389	0.368070
916.275931	0.367696
916.456455	0.367059
916.636961	0.366296
916.817448	0.365454
916.997917	0.365070
917.178368	0.365069
917.358801	0.365086
917.539216	0.364884
917.719612	0.363848
917.899990	0.363110
918.080350	0.363150
918.260692	0.362145
918.441015	0.361222
918.621320	0.359974
918.801607	0.358751
918.981876	0.357137
919.162127	0.356296
919.342359	0.355904
919.522573	0.355466
919.702769	0.354306
919.882947	0.354208
920.063106	0.354009
920.243247	0.352753
920.423370	0.352077
920.603475	0.351511
920.783562	0.350893
920.963630	0.348822
921.143680	0.347885
921.323712	0.347265
921.503725	0.346747
921.683721	0.346344
921.863698	0.346315
922.043657	0.345328
922.223598	0.344525
922.403520	0.343351
922.583424	0.343786
922.763311	0.342676
922.943178	0.341376
923.123028	0.339579
923.302859	0.338041
923.482673	0.336740
923.662467	0.335711
923.842244	0.334999
924.022003	0.334360
924.201743	0.333236
924.381465	0.332683
924.561169	0.332322
924.740854	0.332361
924.920522	0.331493
925.100171	0.330755
925.279802	0.329406
925.459414	0.328512
925.639009	0.327352
925.818585	0.326394
925.998143	0.325464
926.177683	0.324381
926.357205	0.322871
926.536708	0.321508
926.716193	0.320144
926.895660	0.319223
927.075109	0.317924
927.254539	0.316765
927.433951	0.315900
927.613345	0.314344
927.792721	0.313018
927.972079	0.312030
928.151418	0.311284
928.330739	0.309869
928.510042	0.309421
928.689327	0.308434
928.868593	0.307838
929.047841	0.306696
929.227071	0.306059
929.406283	0.305740
929.585476	0.305137
929.764652	0.304524
929.943809	0.304486
930.122948	0.302592
930.302068	0.301068
930.481171	0.299461
930.660255	0.298973
930.839321	0.298192
931.018369	0.297118
931.197398	0.295935
931.376409	0.294673
931.555402	0.293633
931.734377	0.293944
931.913334	0.294131
932.092272	0.293656
932.271192	0.291499
932.450094	0.290399
932.628978	0.289291
932.807844	0.286764
932.986691	0.285028
933.165520	0.283463
933.344331	0.282819
933.523123	0.281469
933.701898	0.280315
933.880654	0.279973
934.059392	0.278452
934.238111	0.276864
934.416813	0.277313
934.595496	0.277908
934.774161	0.277135
934.952808	0.275707
935.131437	0.274682
935.310047	0.274097
935.488639	0.272790
935.667213	0.273274
935.845769	0.273033
936.024306	0.272134
936.202825	0.270501
936.381326	0.270359
936.559809	0.268727
936.738274	0.267061
936.916720	0.266659
937.095148	0.265159
937.273558	0.263055
937.451950	0.260973
937.630323	0.260068
937.808678	0.258267
937.987015	0.256700
938.165334	0.255826
938.343635	0.255281
938.521917	0.252920
938.700181	0.251876
938.878427	0.249974
939.056655	0.249522
939.234864	0.247661
939.413055	0.247326
939.591228	0.245878
939.769383	0.244205
939.947519	0.242756
940.125638	0.242076
940.303738	0.241047
940.481820	0.239867
940.659883	0.238409
940.837929	0.238234
941.015956	0.237605
941.193965	0.236587
941.371955	0.236790
941.549928	0.236512
941.727882	0.234429
941.905818	0.233340
942.083736	0.233990
942.261636	0.233716
942.439517	0.232328
942.617380	0.230835
942.795225	0.229196
942.973052	0.226337
943.150860	0.224625
943.328651	0.225185
943.506423	0.223468
943.684176	0.221377
943.861912	0.219331
944.039629	0.218574
944.217328	0.216279
944.395009	0.215458
944.572672	0.215126
944.750317	0.213382
944.927943	0.211455
945.105551	0.210337
945.283141	0.209159
945.460712	0.206598
945.638265	0.204549
945.815801	0.204103
945.993317	0.204424
946.170816	0.202824
946.348297	0.201855
946.525759	0.199220
946.703203	0.199222
946.880629	0.198508
947.058036	0.198727
947.235425	0.197927
947.412797	0.196543
947.590149	0.194486
947.767484	0.193524
947.944800	0.194008
948.122099	0.194933
948.299379	0.196260
948.476640	0.195483
948.653884	0.193961
948.831109	0.193145
949.008316	0.191687
949.185505	0.191369
949.362676	0.191307
949.539828	0.190296
949.716962	0.188513
949.894078	0.186006
950.071176	0.184717
950.248256	0.185956
950.425317	0.185782
950.602360	0.185936
950.779385	0.183443
950.956391	0.181215
951.133380	0.179952
951.310350	0.179233
951.487302	0.177159
951.664235	0.175771
951.841151	0.173052
952.018048	0.172422
952.194927	0.172017
952.371788	0.171729
952.548631	0.172221
952.725455	0.171866
952.902261	0.172085
953.079049	0.171038
953.255819	0.170865
953.432570	0.172407
953.609303	0.170254
953.786018	0.169179
953.962715	0.169574
954.139394	0.168810
954.316054	0.166828
954.492696	0.165547
954.669320	0.165805
954.845926	0.167303
955.022513	0.166562
955.199083	0.166392
955.375634	0.166559
955.552166	0.165767
955.728681	0.165224
955.905177	0.163572
956.081655	0.162207
956.258115	0.160381
956.434557	0.156517
956.610980	0.153278
956.787385	0.153830
956.963772	0.152088
957.140141	0.150951
957.316492	0.150705
957.492824	0.150719
957.669138	0.151722
957.845434	0.151755
958.021712	0.153097
958.197971	0.153479
958.374212	0.154916
958.550435	0.155804
958.726640	0.156676
958.902826	0.157145
959.078995	0.157987
959.255145	0.156019
959.431277	0.155215
959.607390	0.153250
959.783486	0.154477
959.959563	0.151581
960.135622	0.152127
960.311662	0.150077
960.487685	0.148966
960.663689	0.150203
960.839675	0.150678
961.015643	0.149409
961.191593	0.152222
961.367524	0.151308
961.543437	0.151115
961.719332	0.148695
961.895209	0.148430
962.071067	0.147977
962.246907	0.144497
962.422730	0.145039
962.598533	0.144474
962.774319	0.140046
962.950086	0.139486
963.125835	0.138703
963.301566	0.137653
963.477279	0.136691
963.652973	0.136424
963.828650	0.138644
964.004308	0.139299
964.179947	0.142035
964.355569	0.144212
964.531172	0.142579
964.706757	0.144469
964.882324	0.147002
965.057873	0.150354
965.233403	0.151118
965.408916	0.150135
965.584410	0.148722
965.759885	0.147470
965.935343	0.147481
966.110782	0.147291
966.286203	0.145723
966.461606	0.143215
966.636991	0.144307
966.812357	0.144728
966.987705	0.144244
967.163035	0.145614
967.338347	0.146311
967.513641	0.146777
967.688916	0.147383
967.864173	0.145238
968.039412	0.144814
968.214632	0.141396
968.389835	0.140178
968.565019	0.140835
968.740185	0.138209
968.915333	0.137291
969.090462	0.136496
969.265573	0.136860
969.440667	0.138274
969.615741	0.139822
969.790798	0.140404
969.965836	0.139745
970.140856	0.139961
970.315858	0.141852
970.490842	0.145180
970.665808	0.142367
970.840755	0.144597
971.015684	0.145096
971.190595	0.143437
971.365487	0.142393
971.540362	0.144915
971.715218	0.144184
971.890056	0.144763
972.064875	0.141879
972.239677	0.144719
972.414460	0.142756
972.589225	0.142999
972.763972	0.148540
972.938700	0.148290
973.113411	0.148915
973.288103	0.149548
973.462777	0.146532
973.637432	0.147505
973.812070	0.145462
973.986689	0.146381
974.161290	0.143997
974.335873	0.139906
974.510437	0.139558
974.684984	0.138333
974.859512	0.139626
975.034022	0.142140
975.208513	0.142996
975.382987	0.143261
975.557442	0.141333
975.731879	0.143594
975.906298	0.144725
976.080698	0.145460
976.255080	0.143107
976.429445	0.142299
976.603790	0.141296
976.778118	0.137636
976.952427	0.139508
977.126719	0.139933
977.300992	0.137537
977.475246	0.135784
977.649483	0.135466
977.823701	0.135875
977.997901	0.133939
978.172083	0.133369
978.346247	0.134546
978.520392	0.132538
978.694519	0.134117
978.868628	0.136340
979.042719	0.136384
979.216791	0.139382
979.390845	0.141136
979.564882	0.141263
979.738899	0.140367
979.912899	0.140206
980.086880	0.139870
980.260843	0.140508
980.434788	0.138592
980.608715	0.138197
980.782623	0.137568
980.956514	0.135479
981.130386	0.137944
981.304240	0.138088
981.478075	0.136874
981.651892	0.138529
981.825692	0.136015
981.999472	0.136216
982.173235	0.137700
982.346980	0.137445
982.520706	0.136098
982.694414	0.134281
982.868104	0.134568
983.041775	0.135294
983.215428	0.135927
983.389064	0.137638
983.562680	0.140101
983.736279	0.138570
983.909860	0.136835
984.083422	0.137572
984.256966	0.137516
984.430491	0.138215
984.603999	0.138970
984.777488	0.139349
984.950959	0.139644
985.124412	0.140119
985.297847	0.139286
985.471263	0.138855
985.644661	0.140857
985.818041	0.139913
985.991403	0.140365
986.164747	0.141323
986.338072	0.139579
986.511379	0.136940
986.684668	0.134814
986.857938	0.135416
987.031191	0.136793
987.204425	0.136004
987.377641	0.136818
987.550839	0.136098
987.724018	0.135796
987.897179	0.135837
988.070322	0.138154
988.243447	0.138447
988.416554	0.139063
988.589642	0.137641
988.762712	0.138570
988.935764	0.138466
989.108798	0.139376
989.281813	0.137253
989.454811	0.136195
989.627790	0.134478
989.800751	0.135340
989.973693	0.135305
990.146617	0.135176
990.319524	0.132008
990.492412	0.133456
990.665281	0.133124
990.838133	0.134522
991.010966	0.135906
991.183781	0.137772
991.356578	0.136423
991.529356	0.136528
991.702117	0.136965
991.874859	0.138213
992.047583	0.135876
992.220288	0.135990
992.392976	0.137060
992.565645	0.138822
992.738296	0.137099
992.910929	0.136257
993.083543	0.133817
993.256139	0.135031
993.428718	0.134657
993.601277	0.133940
993.773819	0.134191
993.946342	0.133730
994.118848	0.130978
994.291335	0.132570
994.463803	0.134611
994.636254	0.136597
994.808686	0.134014
994.981100	0.133884
995.153496	0.136129
995.325874	0.134649
995.498233	0.135118
995.670574	0.134026
995.842897	0.132419
996.015202	0.132092
996.187488	0.131072
996.359757	0.131276
996.532007	0.132301
996.704239	0.130179
996.876452	0.130272
997.048648	0.128687
997.220825	0.131602
997.392984	0.131517
997.565124	0.130839
997.737247	0.132596
997.909351	0.133447
998.081437	0.132851
998.253505	0.130798
998.425554	0.131738
998.597586	0.131917
998.769599	0.131559
998.941594	0.131666
999.113571	0.133143
999.285529	0.133790
999.457469	0.134325
999.629391	0.136624
999.801295	0.139655
999.973181	0.138498
1000.145048	0.137676
1000.316897	0.135801
1000.488728	0.137312
1000.660541	0.135884
1000.832335	0.134221
1001.004111	0.135633
1001.175869	0.133744
1001.347609	0.133876
1001.519331	0.133240
1001.691034	0.133861
1001.862719	0.135260
1002.034386	0.135091
1002.206035	0.135130
1002.377665	0.134703
1002.549277	0.132357
1002.720871	0.131957
1002.892447	0.132807
1003.064004	0.133551
1003.235544	0.132641
1003.407065	0.129271
1003.578568	0.127597
1003.750052	0.128583
1003.921519	0.128346
1004.092967	0.130182
1004.264397	0.131532
1004.435809	0.129896
1004.607202	0.130367
1004.778577	0.130391
1004.949934	0.132020
1005.121273	0.132697
1005.292594	0.131113
1005.463896	0.132043
1005.635180	0.129988
1005.806446	0.127958
1005.977694	0.128721
1006.148923	0.128591
1006.320135	0.127534
1006.491328	0.127248
1006.662503	0.127429
1006.833659	0.128463
1007.004798	0.127259
1007.175918	0.127562
1007.347020	0.128333
1007.518103	0.127891
1007.689169	0.126237
1007.860216	0.127302
1008.031245	0.126039
1008.202256	0.127049
1008.373248	0.124761
1008.544223	0.126709
1008.715179	0.126038
1008.886117	0.125997
1009.057036	0.125494
1009.227938	0.126123
1009.398821	0.127621
1009.569686	0.129588
1009.740533	0.125633
1009.911361	0.128473
1010.082172	0.127443
1010.252964	0.127884
1010.423738	0.126595
1010.594493	0.125022
1010.765231	0.125391
1010.935950	0.124261
1011.106651	0.123901
1011.277334	0.125859
1011.447998	0.124830
1011.618645	0.123680
1011.789273	0.121614
1011.959882	0.123228
1012.130474	0.124809
1012.301048	0.124532
1012.471603	0.123734
1012.642140	0.123754
1012.812658	0.125435
1012.983159	0.125283
1013.153641	0.125976
1013.324105	0.128414
1013.494551	0.128081
1013.664979	0.128896
1013.835388	0.129411
1014.005779	0.129846
1014.176152	0.131893
1014.346507	0.130652
1014.516843	0.130334
1014.687162	0.129748
1014.857462	0.130816
1015.027744	0.130985
1015.198007	0.130346
1015.368252	0.127964
1015.538480	0.126081
1015.708689	0.123677
1015.878879	0.122306
1016.049052	0.122779
1016.219206	0.122242
1016.389342	0.121236
1016.559460	0.121645
1016.729559	0.121971
1016.899641	0.124282
1017.069704	0.125140
1017.239749	0.125710
1017.409775	0.126430
1017.579784	0.124719
1017.749774	0.125542
1017.919746	0.124336
1018.089700	0.122367
1018.259635	0.121672
1018.429553	0.120122
1018.599452	0.120434
1018.769333	0.122343
1018.939195	0.122371
1019.109040	0.123181
1019.278866	0.123827
1019.448674	0.124384
1019.618464	0.123652
1019.788235	0.123658
1019.957989	0.126355
1020.127724	0.126212
1020.297441	0.122373
1020.467139	0.121715
1020.636820	0.121324
1020.806482	0.119012
1020.976126	0.119617
1021.145752	0.120626
1021.315359	0.121177
1021.484948	0.118527
1021.654519	0.118203
1021.824072	0.119781
1021.993607	0.119506
1022.163123	0.118360
1022.332621	0.120515
1022.502101	0.118652
1022.671563	0.117662
1022.841007	0.117494
1023.010432	0.118707
1023.179839	0.120865
1023.349228	0.121645
1023.518598	0.122838
1023.687951	0.124872
1023.857285	0.121829
1024.026601	0.121707
1024.195899	0.122665
1024.365178	0.122646
1024.534439	0.120082
1024.703682	0.120147
1024.872907	0.118681
1025.042114	0.119040
1025.211302	0.116302
1025.380472	0.119982
1025.549624	0.120601
1025.718758	0.120322
1025.887873	0.118271
1026.056970	0.120186
1026.226049	0.118045
1026.395110	0.118823
1026.564153	0.117970
1026.733177	0.119853
1026.902183	0.119462
1027.071171	0.118886
1027.240141	0.119726
1027.409092	0.121290
1027.578026	0.122238
1027.746940	0.121137
1027.915837	0.120879
1028.084716	0.119247
1028.253576	0.117286
1028.422418	0.114080
1028.591242	0.114998
1028.760048	0.115687
1028.928835	0.115138
1029.097604	0.114804
1029.266355	0.115138
1029.435088	0.115769
1029.603803	0.115603
1029.772499	0.115922
1029.941177	0.118472
1030.109837	0.118170
1030.278478	0.116647
1030.447102	0.117984
1030.615707	0.116633
1030.784294	0.118625
1030.952863	0.118267
1031.121413	0.120199
1031.289945	0.121353
1031.458460	0.121715
1031.626955	0.122011
1031.795433	0.124625
1031.963892	0.122575
1032.132334	0.122444
1032.300756	0.121833
1032.469161	0.121056
1032.637548	0.120637
1032.805916	0.119212
1032.974266	0.118706
1033.142598	0.120303
1033.310911	0.116577
1033.479207	0.118155
1033.647484	0.119552
1033.815743	0.120365
1033.983983	0.121890
1034.152206	0.121459
1034.320410	0.122378
1034.488596	0.120938
1034.656764	0.118729
1034.824914	0.118062
1034.993045	0.116622
1035.161158	0.115482
1035.329253	0.112717
1035.497330	0.110968
1035.665388	0.112493
1035.833428	0.113936
1036.001450	0.113885
1036.169454	0.113378
1036.337440	0.115271
1036.505407	0.116827
1036.673356	0.117511
1036.841287	0.118593
1037.009200	0.117396
1037.177094	0.114801
1037.344970	0.112573
1037.512828	0.113710
1037.680668	0.115676
1037.848489	0.116061
1038.016293	0.114478
1038.184078	0.115979
1038.351845	0.115909
1038.519593	0.116730
1038.687324	0.118379
1038.855036	0.119966
1039.022730	0.119075
1039.190406	0.118398
1039.358063	0.117341
1039.525702	0.119593
1039.693323	0.119326
1039.860926	0.118723
1040.028511	0.118901
1040.196077	0.117714
1040.363625	0.117903
1040.531155	0.118760
1040.698667	0.117007
1040.866161	0.115776
1041.033636	0.114485
1041.201093	0.112638
1041.368532	0.114247
1041.535952	0.115844
1041.703355	0.117118
1041.870739	0.115859
1042.038105	0.115226
1042.205452	0.114920
1042.372782	0.117372
1042.540093	0.116471
1042.707386	0.117334
1042.874661	0.117371
1043.041918	0.116625
1043.209156	0.116930
1043.376376	0.116770
1043.543578	0.117345
1043.710762	0.119296
1043.877927	0.117692
1044.045074	0.117727
1044.212203	0.117344
1044.379314	0.117932
1044.546407	0.119060
1044.713481	0.118769
1044.880537	0.120490
1045.047575	0.122009
1045.214595	0.120279
1045.381596	0.119495
1045.548579	0.118635
1045.715544	0.118681
1045.882491	0.119437
1046.049420	0.117383
1046.216330	0.115435
1046.383222	0.113831
1046.550096	0.113692
1046.716951	0.115477
1046.883789	0.114918
1047.050608	0.116355
1047.217409	0.116593
1047.384192	0.115086
1047.550956	0.115245
1047.717703	0.116638
1047.884431	0.116521
1048.051140	0.112824
1048.217832	0.112061
1048.384505	0.114348
1048.551161	0.115356
1048.717798	0.114237
1048.884416	0.116490
1049.051017	0.115771
1049.217599	0.117277
1049.384163	0.118384
1049.550709	0.122173
1049.717237	0.122393
1049.883746	0.124280
1050.050237	0.122465
1050.216710	0.122853
1050.383165	0.121351
1050.549601	0.124045
1050.716019	0.121951
1050.882420	0.123034
1051.048801	0.121984
1051.215165	0.121918
1051.381510	0.119698
1051.547837	0.121194
1051.714146	0.122164
1051.880437	0.119443
1052.046709	0.116885
1052.212964	0.116733
1052.379200	0.114716
1052.545417	0.114625
1052.711617	0.115155
1052.877798	0.116439
1053.043961	0.115897
1053.210106	0.114648
1053.376233	0.115298
1053.542341	0.116487
1053.708432	0.115792
1053.874504	0.114322
1054.040557	0.113724
1054.206593	0.112567
1054.372610	0.109569
1054.538609	0.108492
1054.704590	0.109779
1054.870553	0.111340
1055.036497	0.112910
1055.202424	0.113910
1055.368331	0.116818
1055.534221	0.114379
1055.700093	0.114186
1055.865946	0.116792
1056.031781	0.118554
1056.197598	0.114843
1056.363397	0.112857
1056.529177	0.111380
1056.694939	0.113378
1056.860683	0.113815
1057.026409	0.114036
1057.192116	0.113891
1057.357806	0.114416
1057.523477	0.114002
1057.689130	0.117379
1057.854764	0.120135
1058.020381	0.117786
1058.185979	0.116703
1058.351559	0.113700
1058.517120	0.114536
1058.682664	0.114675
1058.848189	0.112983
1059.013696	0.114534
1059.179185	0.113661
1059.344656	0.110839
1059.510108	0.113106
1059.675542	0.114377
1059.840958	0.115512
1060.006356	0.116891
1060.171735	0.119136
1060.337096	0.117746
1060.502439	0.115999
1060.667764	0.116792
1060.833071	0.117683
1060.998359	0.116953
1061.163629	0.113381
1061.328881	0.113407
1061.494115	0.114082
1061.659330	0.111745
1061.824527	0.116329
1061.989706	0.113980
1062.154867	0.113447
1062.320010	0.113988
1062.485134	0.113652
1062.650240	0.113836
1062.815328	0.115272
1062.980398	0.114633
1063.145449	0.115506
1063.310482	0.111087
1063.475497	0.112100
1063.640494	0.111656
1063.805473	0.113835
1063.970433	0.115638
1064.135375	0.116675
1064.300299	0.116591
1064.465204	0.114863
1064.630092	0.114298
1064.794961	0.115891
1064.959812	0.116560
1065.124645	0.116175
1065.289459	0.114564
1065.454256	0.111915
1065.619034	0.111284
1065.783793	0.110387
1065.948535	0.112204
1066.113258	0.112265
1066.277964	0.113915
1066.442651	0.113947
1066.607319	0.115415
1066.771970	0.113569
1066.936602	0.114462
1067.101216	0.116274
1067.265812	0.115661
1067.430389	0.116077
1067.594949	0.118027
1067.759490	0.117475
1067.924013	0.119110
1068.088518	0.118048
1068.253004	0.119576
1068.417472	0.119658
1068.581922	0.120041
1068.746354	0.121403
1068.910768	0.121570
1069.075163	0.121512
1069.239540	0.120555
1069.403899	0.121462
1069.568240	0.121416
1069.732562	0.121178
1069.896866	0.121648
1070.061152	0.121475
1070.225420	0.120147
1070.389670	0.118359
1070.553901	0.114585
1070.718114	0.116179
1070.882309	0.113863
1071.046486	0.113310
1071.210644	0.113603
1071.374784	0.114769
1071.538906	0.112391
1071.703010	0.114774
1071.867096	0.118517
1072.031163	0.120964
1072.195212	0.118840
1072.359243	0.118506
1072.523256	0.120431
1072.687250	0.120544
1072.851226	0.120338
1073.015184	0.122209
1073.179124	0.121990
1073.343045	0.117818
1073.506949	0.120839
1073.670834	0.122550
1073.834701	0.123612
1073.998549	0.123501
1074.162380	0.123261
1074.326192	0.124254
1074.489986	0.125388
1074.653761	0.124076
1074.817519	0.124838
1074.981258	0.121006
1075.144979	0.118911
1075.308682	0.118338
1075.472367	0.118489
1075.636033	0.120799
1075.799681	0.122027
1075.963311	0.120741
1076.126923	0.119583
1076.290516	0.120783
1076.454092	0.124738
1076.617649	0.124022
1076.781187	0.125388
1076.944708	0.124321
1077.108210	0.122199
1077.271695	0.119045
1077.435160	0.119586
1077.598608	0.122623
1077.762038	0.125785
1077.925449	0.123478
1078.088842	0.125901
1078.252217	0.127010
1078.415573	0.128494
1078.578912	0.129824
1078.742232	0.129026
1078.905534	0.130846
1079.068817	0.131432
1079.232083	0.128215
1079.395330	0.126616
1079.558559	0.129311
1079.721770	0.128189
1079.884962	0.126063
1080.048136	0.125908
1080.211293	0.130100
1080.374430	0.127570
1080.537550	0.124783
1080.700651	0.125282
1080.863735	0.127702
1081.026800	0.125750
1081.189846	0.125280
1081.352875	0.128664
1081.515885	0.125410
1081.678877	0.123062
1081.841851	0.124017
1082.004807	0.125143
1082.167744	0.127288
1082.330663	0.128408
1082.493564	0.129797
1082.656447	0.127933
1082.819312	0.125992
1082.982158	0.126506
1083.144986	0.127689
1083.307796	0.129079
1083.470587	0.130409
1083.633361	0.130278
1083.796116	0.127645
1083.958853	0.126641
1084.121571	0.127918
1084.284272	0.129725
1084.446954	0.131900
1084.609618	0.132964
1084.772264	0.132859
1084.934892	0.132808
1085.097501	0.131822
1085.260092	0.132224
1085.422665	0.131585
1085.585220	0.132423
1085.747756	0.131194
1085.910274	0.128618
1086.072774	0.126955
1086.235256	0.128914
1086.397720	0.125156
1086.560165	0.121709
1086.722592	0.121280
1086.885001	0.119654
1087.047392	0.118846
1087.209764	0.120311
1087.372119	0.123579
1087.534455	0.126990
1087.696772	0.121285
1087.859072	0.121448
1088.021353	0.125827
1088.183616	0.128018
1088.345861	0.130100
1088.508088	0.130835
1088.670296	0.131396
1088.832486	0.128562
1088.994658	0.124120
1089.156812	0.128387
1089.318948	0.127696
1089.481065	0.128624
1089.643164	0.128532
1089.805245	0.126345
1089.967308	0.125348
1090.129352	0.123565
1090.291378	0.127630
1090.453386	0.126188
1090.615376	0.125970
1090.777347	0.129316
1090.939301	0.128143
1091.101236	0.127348
1091.263153	0.128507
1091.425051	0.128525
1091.586932	0.128592
1091.748794	0.127860
1091.910638	0.130377
1092.072463	0.127237
1092.234271	0.126596
1092.396060	0.124755
1092.557831	0.128574
1092.719584	0.128783
1092.881319	0.130952
1093.043035	0.130179
1093.204733	0.131243
1093.366413	0.130624
1093.528075	0.131858
1093.689718	0.131371
1093.851343	0.130245
1094.012950	0.126512
1094.174539	0.126563
1094.336110	0.125239
1094.497662	0.128415
1094.659196	0.122160
1094.820712	0.121726
1094.982210	0.124683
1095.143689	0.126528
1095.305151	0.126652
1095.466594	0.126164
1095.628018	0.132200
1095.789425	0.136462
1095.950813	0.133472
1096.112183	0.134976
1096.273535	0.135142
1096.434869	0.131982
1096.596184	0.130148
1096.757482	0.129037
1096.918761	0.129877
1097.080021	0.123166
1097.241264	0.116536
1097.402488	0.118352
1097.563694	0.123601
1097.724882	0.126234
1097.886052	0.127682
1098.047203	0.128430
1098.208336	0.130223
1098.369451	0.131486
1098.530548	0.128717
1098.691627	0.129525
1098.852687	0.128873
1099.013729	0.126684
1099.174753	0.126833
1099.335758	0.123067
1099.496746	0.123902
1099.657715	0.125885
1099.818666	0.123750
1099.979599	0.128612
1100.140513	0.133023
1100.301409	0.133009
1100.462287	0.130631
1100.623147	0.129524
1100.783989	0.129920
1100.944812	0.127007
1101.105617	0.126201
1101.266404	0.129473
1101.427173	0.130384
1101.587923	0.126147
1101.748656	0.123803
1101.909370	0.129019
1102.070066	0.131845
1102.230743	0.134427
1102.391403	0.141171
1102.552044	0.141260
1102.712667	0.136720
1102.873271	0.133654
1103.033858	0.137518
1103.194426	0.138269
1103.354976	0.134433
1103.515508	0.132895
1103.676021	0.133495
1103.836517	0.129968
1103.996994	0.129631
1104.157453	0.128519
1104.317893	0.128760
1104.478316	0.129018
1104.638720	0.130807
1104.799106	0.132442
1104.959474	0.130943
1105.119823	0.131888
1105.280155	0.131506
1105.440468	0.134879
1105.600763	0.139887
1105.761039	0.141956
1105.921298	0.142245
1106.081538	0.139009
1106.241760	0.136882
1106.401964	0.140105
1106.562149	0.142168
1106.722316	0.142619
1106.882465	0.140603
1107.042596	0.135953
1107.202709	0.136396
1107.362803	0.134814
1107.522879	0.140779
1107.682937	0.139178
1107.842977	0.137138
1108.002999	0.139485
1108.163002	0.139567
1108.322987	0.139060
1108.482954	0.144536
1108.642902	0.147619
1108.802833	0.147280
1108.962745	0.140844
1109.122639	0.147197
1109.282515	0.150569
1109.442372	0.146219
1109.602211	0.149639
1109.762032	0.152759
1109.921835	0.156005
1110.081620	0.151188
1110.241386	0.152363
1110.401134	0.154828
1110.560864	0.158104
1110.720576	0.151850
1110.880269	0.145195
1111.039945	0.147107
1111.199602	0.147200
1111.359240	0.142872
1111.518861	0.142634
1111.678463	0.140940
1111.838047	0.143300
1111.997613	0.138049
1112.157161	0.140232
1112.316690	0.148016
1112.476202	0.145564
1112.635695	0.142558
1112.795169	0.146232
1112.954626	0.147582
1113.114064	0.147933
1113.273484	0.145674
1113.432886	0.148321
1113.592270	0.147389
1113.751635	0.146647
1113.910983	0.140928
1114.070312	0.144864
1114.229622	0.140779
1114.388915	0.143697
1114.548189	0.141158
1114.707445	0.148221
1114.866683	0.143582
1115.025903	0.144534
1115.185104	0.143543
1115.344287	0.148688
1115.503452	0.142270
1115.662599	0.136317
1115.821727	0.140349
1115.980838	0.142643
1116.139930	0.137526
1116.299004	0.139881
1116.458059	0.141127
1116.617097	0.142408
1116.776116	0.137653
1116.935117	0.138192
1117.094099	0.141143
1117.253064	0.135557
1117.412010	0.137591
1117.570938	0.136813
1117.729848	0.132453
1117.888740	0.130673
1118.047613	0.128132
1118.206468	0.137360
1118.365305	0.137285
1118.524124	0.141806
1118.682924	0.144463
1118.841707	0.145075
1119.000471	0.140425
1119.159216	0.141598
1119.317944	0.142595
1119.476653	0.144468
1119.635344	0.135178
1119.794017	0.143026
1119.952672	0.136066
1120.111308	0.128904
1120.269927	0.130255
1120.428527	0.128187
1120.587108	0.138473
1120.745672	0.139501
1120.904217	0.143038
1121.062744	0.144356
1121.221253	0.137762
1121.379744	0.145468
1121.538216	0.148323
1121.696671	0.144136
1121.855107	0.150713
1122.013524	0.145006
1122.171924	0.146787
1122.330305	0.142448
1122.488668	0.143935
1122.647013	0.148633
1122.805340	0.151691
1122.963648	0.154192
1123.121938	0.154864
1123.280210	0.159666
1123.438464	0.157431
1123.596700	0.155852
1123.754917	0.156435
1123.913116	0.158139
1124.071297	0.160155
1124.229459	0.153976
1124.387604	0.154950
1124.545730	0.155128
1124.703838	0.144618
1124.861928	0.150006
1125.019999	0.151780
1125.178052	0.157695
1125.336088	0.156149
1125.494104	0.145898
1125.652103	0.146584
1125.810083	0.149364
1125.968045	0.152737
1126.125989	0.164918
1126.283915	0.161093
1126.441823	0.160898
1126.599712	0.149760
1126.757583	0.149290
1126.915436	0.156169
1127.073270	0.162567
1127.231087	0.160086
1127.388885	0.161487
1127.546665	0.153281
1127.704426	0.155071
1127.862170	0.137053
1128.019895	0.151016
1128.177602	0.154543
1128.335291	0.154897
1128.492961	0.154697
1128.650614	0.156414
1128.808248	0.151427
1128.965864	0.153271
1129.123461	0.149790
1129.281041	0.161912
1129.438602	0.151828
1129.596145	0.145678
1129.753670	0.142792
1129.911176	0.143545
1130.068665	0.135824
1130.226135	0.143775
1130.383587	0.134421
1130.541020	0.136466
1130.698436	0.142472
1130.855833	0.140295
1131.013212	0.141146
1131.170573	0.142292
1131.327915	0.136192
1131.485239	0.139536
1131.642545	0.132126
1131.799833	0.144211
1131.957103	0.140187
1132.114354	0.129356
1132.271588	0.130983
1132.428803	0.132538
1132.585999	0.134385
1132.743178	0.133150
1132.900338	0.132170
1133.057480	0.139157
1133.214604	0.137683
1133.371710	0.145301
1133.528797	0.158086
1133.685866	0.162296
1133.842917	0.159142
1133.999950	0.162319
1134.156964	0.166237
1134.313960	0.176105
1134.470938	0.170465
1134.627898	0.175581
1134.784840	0.166078
1134.941763	0.161705
1135.098668	0.161267
1135.255555	0.175472
1135.412424	0.166794
1135.569274	0.165139
1135.726107	0.153668
1135.882921	0.161887
1136.039716	0.158659
1136.196494	0.171530
1136.353253	0.178502
1136.509995	0.178179
1136.666717	0.167350
1136.823422	0.170002
1136.980109	0.180607
1137.136777	0.182677
1137.293427	0.171530
1137.450059	0.172065
1137.606672	0.159664
1137.763267	0.157369
1137.919844	0.155408
1138.076403	0.154886
1138.232944	0.162387
1138.389466	0.155278
1138.545971	0.159940
1138.702457	0.164032
1138.858924	0.172248
1139.015374	0.164830
1139.171805	0.162900
1139.328218	0.165740
1139.484613	0.176838
1139.640990	0.166141
1139.797348	0.167333
1139.953688	0.167448
1140.110010	0.161902
1140.266314	0.144561
1140.422600	0.158970
1140.578867	0.157273
1140.735116	0.159271
1140.891347	0.148785
1141.047559	0.152745
1141.203754	0.151126
1141.359930	0.144962
1141.516088	0.149082
1141.672228	0.149164
1141.828349	0.140558
1141.984452	0.137111
1142.140537	0.128784
1142.296604	0.124083
1142.452653	0.126359
1142.608683	0.113628
1142.764695	0.116725
1142.920689	0.118799
1143.076665	0.123711
1143.232622	0.132544
1143.388562	0.133740
1143.544483	0.139282
1143.700385	0.139423
1143.856270	0.133792
1144.012136	0.152851
1144.167985	0.149419
1144.323814	0.149884
1144.479626	0.155490
1144.635420	0.156916
1144.791195	0.157472
1144.946952	0.154465
1145.102691	0.178522
1145.258411	0.177484
1145.414113	0.172124
1145.569798	0.183240
1145.725463	0.196059
1145.881111	0.195122
1146.036741	0.181368
1146.192352	0.197534
1146.347945	0.205125
1146.503519	0.191305
1146.659076	0.201794
1146.814614	0.195304
1146.970134	0.190872
1147.125636	0.177257
1147.281120	0.186723
1147.436585	0.191399
1147.592032	0.168611
1147.747461	0.168872
1147.902872	0.175555
1148.058265	0.176740
1148.213639	0.184206
1148.368995	0.182523
1148.524333	0.181927
1148.679653	0.169345
1148.834954	0.166517
1148.990237	0.169642
1149.145502	0.173446
1149.300749	0.161488
1149.455977	0.157167
1149.611188	0.151985
1149.766380	0.162337
1149.921553	0.159416
1150.076709	0.152783
1150.231846	0.162807
1150.386966	0.168690
1150.542066	0.164715
1150.697149	0.166518
1150.852214	0.171654
1151.007260	0.180653
1151.162288	0.160607
1151.317298	0.164663
1151.472289	0.178121
1151.627263	0.175359
1151.782218	0.185469
1151.937155	0.179167
1152.092073	0.182413
1152.246974	0.178621
1152.401856	0.170607
1152.556720	0.183259
1152.711566	0.183672
1152.866393	0.191022
1153.021203	0.186424
1153.175994	0.176245
1153.330767	0.175271
1153.485521	0.173931
1153.640258	0.178434
1153.794976	0.167426
1153.949676	0.164802
1154.104358	0.162323
1154.259021	0.157606
1154.413667	0.170699
1154.568294	0.173306
1154.722903	0.178308
1154.877493	0.174997
1155.032066	0.171757
1155.186620	0.188158
1155.341156	0.174924
1155.495674	0.166377
1155.650173	0.148710
1155.804654	0.145502
1155.959118	0.156020
1156.113562	0.155719
1156.267989	0.144983
1156.422397	0.137861
1156.576788	0.134395
1156.731160	0.159397
1156.885513	0.168303
1157.039849	0.174013
1157.194166	0.167857
1157.348465	0.151658
1157.502746	0.162414
1157.657009	0.180066
1157.811253	0.186415
1157.965479	0.186330
1158.119687	0.179795
1158.273877	0.180041
1158.428048	0.183799
1158.582201	0.182621
1158.736337	0.185021
1158.890453	0.186601
1159.044552	0.176730
1159.198632	0.189690
1159.352694	0.189951
1159.506738	0.186770
1159.660764	0.190319
1159.814771	0.185161
1159.968761	0.197916
1160.122732	0.199781
1160.276685	0.186580
1160.430619	0.180101
1160.584535	0.149403
1160.738434	0.143388
1160.892313	0.134326
1161.046175	0.126196
1161.200019	0.137860
1161.353844	0.143428
1161.507651	0.141193
1161.661440	0.137119
1161.815210	0.147048
1161.968962	0.179366
1162.122697	0.188795
1162.276412	0.191922
1162.430110	0.185777
1162.583789	0.175903
1162.737451	0.151980
1162.891094	0.160134
1163.044718	0.155613
1163.198325	0.150465
1163.351913	0.126882
1163.505483	0.124113
1163.659035	0.132136
1163.812569	0.163127
1163.966084	0.145151
1164.119581	0.149809
1164.273060	0.161284
1164.426521	0.187836
1164.579964	0.199463
1164.733388	0.208943
1164.886794	0.209340
1165.040182	0.186353
1165.193551	0.161911
1165.346903	0.190148
1165.500236	0.211173
1165.653551	0.181011
1165.806848	0.162707
1165.960126	0.175164
1166.113386	0.176316
1166.266628	0.153587
1166.419852	0.156576
1166.573058	0.163842
1166.726245	0.163940
1166.879414	0.150754
1167.032565	0.151824
1167.185698	0.142297
1167.338812	0.120832
1167.491909	0.118422
1167.644987	0.154262
1167.798046	0.166054
1167.951088	0.164597
1168.104111	0.164552
1168.257117	0.156293
1168.410103	0.141929
1168.563072	0.155861
1168.716023	0.140063
1168.868955	0.162784
1169.021869	0.140510
1169.174765	0.134872
1169.327642	0.146032
1169.480501	0.155554
1169.633343	0.143770
1169.786165	0.182958
1169.938970	0.172392
1170.091757	0.206041
1170.244525	0.176629
1170.397275	0.193169
1170.550007	0.197386
1170.702720	0.172181
1170.855415	0.143828
1171.008092	0.165498
1171.160751	0.154002
1171.313392	0.159271
1171.466014	0.053063
1171.618619	0.176348
1171.771205	0.176348
1171.923772	0.176348
