sample name	sample
index	44
start time	 02-11-2021  02:03:39 PM
880	0.112984
Peak Time (s)	82.538
Peak Height 	0.113
calc peak height	80,83
Baseline Time (s)	11.035
Baseline Value 	-0.002744
subtract baseline	10,4
Abs	0.056226
Peak Time (s)	80.035
Peak Height 	0.05623
calc peak height	80,83
Baseline Time (s)	9.04
Baseline Value 	0.004825
subtract baseline	10,3
PK_550	0.031003
Peak Time (s)	81.534
Peak Height 	0.031
calc peak height	80,83
Baseline Time (s)	10.037
Baseline Value 	6.0628E-4
subtract baseline	10,2
PK_880	0.036741
Peak Time (s)	80.035
Peak Height 	0.03674
calc peak height	80,83
Baseline Time (s)	11.536
Baseline Value 	0.002694
subtract baseline	10,1


Time (s)	A880-A510	A880-A775	A880-A975	A880	I510	I775	I975	I880	
0.037000	-0.001732	-0.000112	-0.000283	0.000329	4622.137366	20216.141686	3309.573047	10963.483174
0.537000	-0.007020	-0.001756	-0.010823	0.003102	4591.600225	20041.975329	3297.520654	10912.431989
1.034500	0.000154	-0.000209	-0.002839	0.000440	4628.937649	20207.885548	3307.128227	10961.430079
1.534000	0.002589	-0.001082	-0.003882	-0.002129	4648.258231	20275.184505	3308.524642	11008.996426
2.035500	-0.000529	-0.001667	-0.004624	-0.001763	4634.783855	20237.436877	3307.511182	11002.213728
2.535500	-0.005514	0.000702	-0.005706	0.003910	4594.224703	20106.834333	3301.381118	10897.630121
3.038500	-0.003077	-0.001259	-0.011194	0.000667	4615.716639	20157.399473	3299.365764	10957.252241
3.536000	0.000634	0.000051	-0.003939	0.002275	4623.742054	20145.630925	3304.455996	10927.621139
4.036500	0.000115	-0.000358	0.008602	0.001557	4624.504624	20157.834773	3316.673899	10940.842025
4.540000	-0.006510	-0.001464	-0.009335	0.000473	4603.424705	20156.978327	3301.208240	10960.825370
5.037000	-0.000505	-0.001084	-0.015983	0.002010	4620.402586	20111.321914	3293.911133	10932.497301
5.534500	-0.002305	-0.001450	-0.009097	0.001316	4616.183252	20124.264012	3300.663975	10945.277595
6.034500	-0.001015	-0.000427	0.000077	-0.000606	4628.468269	20240.737944	3310.764946	10980.772947
6.540500	-0.001409	-0.001892	-0.007515	-0.002121	4632.772535	20242.669830	3305.200405	11008.842505
7.035500	-0.003481	0.000675	-0.003035	0.002339	4607.828925	20167.751342	3305.219186	10926.454101
7.535500	-0.000101	0.000160	0.006061	0.000583	4627.407963	20216.821232	3315.209937	10958.788069
8.063000	-0.000451	-0.000215	0.002639	-0.001299	4633.297055	20276.674335	3313.777011	10993.604139
8.539000	-0.000157	-0.000848	0.007166	-0.000376	4630.875597	20214.885683	3317.138826	10976.510072
9.039500	0.000398	0.000456	0.000000	0.000005	4631.543846	20251.473476	3310.130532	10969.459262
9.537000	0.000398	0.000310	-0.005495	-0.000099	4631.943906	20249.832272	3305.198753	10971.383037
10.037500	0.001857	0.000000	-0.006466	0.000131	4636.677335	20228.407442	3304.108657	10967.135322
10.537500	-0.001977	-0.001594	0.004554	-0.002136	4630.647330	20255.116166	3316.341364	11009.135790
11.035000	-0.004986	-0.000779	0.008491	0.000000	4610.993092	20202.737976	3318.028468	10969.560033
11.535500	0.000000	0.001207	-0.001221	0.001454	4624.458822	20223.826110	3307.680978	10942.731331
12.035000	-0.004737	-0.000673	-0.003506	0.000491	4610.071822	20187.488184	3306.473450	10960.490421
12.538500	-0.002084	-0.001106	-0.009652	0.000163	4621.425588	20183.354805	3301.201475	10966.543306
13.036500	-0.000700	-0.000110	0.011667	0.000819	4624.213015	20196.801306	3320.246979	10954.443013
13.536500	-0.001996	-0.001011	0.000706	-0.000417	4623.980449	20210.053861	3311.170433	10977.262417
14.037000	0.003184	-0.000279	-0.001489	0.000965	4638.583760	20184.340524	3307.883017	10951.745142
14.536000	-0.001607	0.000490	0.001897	0.001025	4619.952524	20212.387411	3310.938805	10950.633843
15.034000	-0.001201	-0.000113	-0.008423	0.000650	4622.942279	20203.379161	3301.871056	10957.566163
15.534500	-0.003274	-0.001342	-0.001412	-0.000694	4620.154852	20207.932496	3309.475979	10982.404460
16.035500	-0.001041	0.000073	0.008661	0.000819	4622.908978	20204.047226	3317.419892	10954.447435
16.535500	-0.000047	-0.000076	0.010743	0.001549	4623.914094	20169.257285	3318.688582	10940.982832
17.035500	-0.002718	-0.000406	0.004504	0.000503	4617.708886	20197.599451	3313.835693	10960.268487
17.539000	-0.002533	-0.000265	0.000126	0.000434	4618.677144	20205.927367	3309.852392	10961.552930
18.036500	-0.003967	-0.000292	-0.010006	-0.000103	4615.256597	20226.110184	3301.122205	10971.456556
18.536500	-0.004042	-0.001422	0.000288	-0.000258	4615.561941	20187.509827	3310.638425	10974.322096
19.037000	0.002294	0.000730	-0.001801	0.001389	4633.516874	20207.494083	3307.209528	10943.935189
19.537000	-0.002342	-0.000622	-0.000934	0.000205	4620.279658	20200.840551	3309.088445	10965.765963
20.034500	-0.002220	0.000184	-0.000685	0.001179	4617.028730	20194.188666	3308.423374	10947.803046
20.534000	0.003246	0.000427	0.009211	-0.001450	4648.171420	20308.217500	3320.070348	10996.393486
21.035000	-0.002265	-0.000822	-0.000091	-0.000653	4623.853519	20226.906479	3310.652626	10981.633281
21.535500	-0.004775	-0.000047	0.000314	0.000825	4608.661063	20199.077544	3309.665158	10954.327593
22.038500	0.004678	0.000245	-0.004854	0.000589	4645.816811	20219.971731	3305.155856	10958.677461
22.540500	-0.003765	-0.001203	-0.016807	0.005098	4596.332221	19985.477474	3290.471272	10875.892236
23.036500	-0.004574	0.000515	-0.001623	0.000297	4611.426454	20242.246579	3308.371750	10964.064451
23.539000	-0.003712	-0.000591	-0.006746	-0.000146	4616.395511	20215.971598	3304.105954	10972.262807
24.051000	-0.001046	0.000971	0.006693	0.000745	4623.172671	20242.597412	3315.649163	10955.810478
24.540000	-0.003022	-0.000419	0.006399	0.005294	4598.391466	20008.500772	3311.153839	10872.318687
25.062000	-0.000811	0.000092	-0.013299	0.000663	4624.382585	20210.953044	3297.487225	10957.312914
25.535000	-0.002607	-0.000379	0.005220	0.000940	4616.466214	20181.386407	3314.094898	10952.204202
26.035000	0.000395	0.000991	0.003678	0.001712	4624.986060	20205.038695	3311.950010	10937.992370
26.535500	-0.006503	-0.001426	0.011052	0.005273	4585.401935	19969.947766	3315.490263	10872.697613
27.035500	-0.000101	-0.000525	0.004121	-0.001419	4635.109061	20269.107814	3315.268395	10995.826979
27.536500	-0.001378	-0.000947	0.006462	-0.000309	4625.935542	20208.335203	3316.417328	10975.275173
28.037000	-0.003306	0.001002	0.002399	0.003159	4605.385430	20148.276104	3309.437059	10911.395738
28.536500	-0.001433	-0.000724	-0.000776	0.004035	4609.164090	20045.920401	3305.731519	10895.345681
29.037000	-0.003073	-0.000930	-0.005377	0.001982	4610.729103	20118.502319	3303.418264	10933.013483
29.535000	0.000670	0.000361	-0.006752	0.002745	4622.082473	20139.316360	3301.488703	10918.996030
30.035000	-0.006402	-0.000568	-0.009216	0.002999	4594.306722	20092.731980	3299.047722	10914.327787
30.535000	-0.001927	0.000170	-0.000946	0.003370	4609.810797	20107.179783	3306.182245	10907.527010
31.035500	-0.002405	-0.000039	-0.001170	0.003198	4608.649847	20105.709435	3306.134528	10910.676662
31.541000	-0.002317	0.001033	0.002934	0.003670	4607.194867	20129.359745	3309.458696	10902.031367
32.036000	-0.000174	0.000485	0.006785	0.003337	4616.602829	20120.882908	3313.322465	10908.133888
32.542000	-0.001390	0.000654	-0.003263	0.003644	4610.809490	20115.446724	3303.827659	10902.505107
33.036500	-0.003120	-0.000769	0.003792	0.001836	4611.102976	20130.568928	3311.939493	10935.696285
33.535500	-0.000812	0.000595	0.003719	0.002927	4615.734969	20141.364903	3310.865250	10915.650220
34.037500	-0.001176	0.000386	0.000457	0.003407	4612.520406	20114.183287	3307.428607	10906.839547
34.537000	0.000868	-0.000571	-0.012011	0.002873	4622.350761	20097.540767	3296.666473	10916.641409
35.035500	0.000278	-0.001536	0.010736	0.002242	4622.510647	20084.438195	3318.031618	10928.240199
35.535000	-0.003412	-0.000998	-0.002106	0.001978	4609.454760	20115.969824	3306.393664	10933.081465
36.035000	0.001339	-0.000669	-0.003724	0.002337	4626.206646	20114.817020	3304.595445	10926.489959
36.536000	-0.001137	-0.000323	-0.009646	0.002731	4615.242762	20112.891231	3298.902713	10919.245459
37.036500	0.001448	-0.001055	-0.000070	0.002122	4627.448528	20108.070615	3308.122684	10930.442312
37.541500	0.002065	0.000048	0.002951	-0.000659	4640.533566	20261.670108	3313.472207	10981.748884
38.037000	-0.000374	0.001613	-0.000819	0.002345	4619.623217	20204.602809	3307.233265	10926.333839
38.538500	-0.000636	0.000185	-0.006784	0.001541	4621.692393	20179.895204	3302.545216	10941.125686
39.037500	0.000533	0.000529	0.006635	0.002153	4623.823380	20169.307676	3314.282890	10929.867619
39.540500	-0.001263	-0.001207	-0.005479	0.001424	4619.745453	20129.589270	3303.831343	10943.286258
40.035500	0.000260	-0.000603	-0.007730	0.000867	4627.703376	20175.413061	3302.299610	10953.549799
40.535000	0.001824	0.000389	-0.004452	0.006122	4613.604427	20007.735843	3300.518897	10857.215774
41.036000	0.000532	0.000286	0.010444	0.003484	4618.735989	20107.258189	3316.594561	10905.438691
41.536000	-0.004748	-0.001212	-0.007572	0.002672	4601.771993	20080.256860	3300.816196	10920.332211
42.036500	-0.001216	0.000308	-0.005114	0.003921	4610.418521	20090.929458	3301.905019	10897.430267
42.562500	-0.000156	-0.001439	0.015136	0.003008	4617.926333	20058.162060	3321.457365	10914.168901
43.037000	0.000334	-0.000778	0.001393	0.001505	4625.543338	20143.303107	3310.032862	10941.803763
43.537000	-0.002278	-0.000476	0.003525	0.001722	4614.742798	20146.671430	3311.799149	10937.807043
44.037500	0.004603	0.001207	0.008401	-0.000027	4647.916967	20282.596594	3317.969339	10970.051308
44.535000	-0.003487	-0.001355	-0.001291	0.002257	4608.118360	20090.955935	3306.882776	10927.966795
45.035000	-0.020539	-0.016530	0.015789	0.111398	4192.934049	15838.820402	3231.140124	9153.770786
45.538000	-0.068037	-0.044302	-0.008175	0.218369	3824.405941	12416.524796	3147.645508	7798.029912
46.035500	-0.060469	-0.031077	-0.015731	-0.013807	4460.074234	19562.097839	3308.369047	11228.817893
46.535500	-0.045722	-0.019309	-0.008985	-0.149705	5081.377465	26265.599983	3463.119770	14272.745478
47.036500	-0.032873	-0.014396	-0.011223	-0.175923	5280.903172	27993.893612	3494.499335	14977.744219
47.536500	-0.031153	-0.012617	0.007380	-0.107014	4948.470063	24415.582566	3430.608622	13212.124377
48.037000	-0.010532	-0.004026	0.004762	-0.077170	4906.719526	23393.211037	3393.138583	12530.198113
48.537500	-0.024920	-0.005157	-0.004002	-0.046230	4713.944001	21942.127804	3350.959752	11871.006452
49.034000	-0.016879	0.000309	0.006108	-0.018018	4634.416404	20976.042311	3332.972637	11309.534687
49.535000	-0.004865	0.005885	0.013313	-0.020404	4690.811557	21308.437521	3342.409294	11355.610268
50.035000	0.000375	0.011369	0.029896	0.008105	4600.604372	20363.556252	3330.706409	10821.169618
50.538500	-0.002524	0.009462	0.024201	0.021314	4540.928102	19769.891849	3312.801645	10585.191665
51.036000	0.014815	0.015374	0.030016	0.034969	4554.380937	19473.730780	3305.601985	10348.670424
51.536000	0.012237	0.017915	0.037021	0.049177	4493.991209	19037.278090	3299.100241	10110.335414
52.039500	0.018238	0.021354	0.028084	0.059274	4479.609299	18793.449397	3282.430806	9945.649631
52.539000	0.024181	0.021547	0.038834	0.057602	4506.462348	18861.398055	3293.227574	9972.665164
53.037500	0.025480	0.022540	0.046220	0.057961	4509.808041	18884.518161	3299.472524	9966.853347
53.534500	0.029389	0.023042	0.033661	0.058740	4521.004836	18874.414255	3287.703831	9954.263130
54.040000	0.033659	0.026282	0.040828	0.061136	4527.749386	18905.290454	3291.872042	9915.701360
54.538000	0.036710	0.026668	0.045263	0.063167	4531.432144	18845.158094	3293.989198	9883.161099
55.038500	0.038031	0.027314	0.043313	0.064357	4531.908441	18825.354802	3291.226491	9864.186571
55.536000	0.039974	0.027508	0.045644	0.065339	4535.383338	18796.669550	3292.410592	9848.542447
56.036000	0.036887	0.027895	0.040888	0.065182	4524.802567	18816.460335	3288.386563	9851.049546
56.539000	0.037941	0.030404	0.036622	0.067177	4521.419669	18835.186996	3282.976034	9819.389927
57.036500	0.036793	0.029675	0.045175	0.065874	4521.977837	18856.120294	3291.528679	9840.055709
57.537000	0.035673	0.027598	0.038333	0.066199	4516.792667	18768.710041	3285.289445	9834.886415
58.037000	0.032358	0.028904	0.036737	0.068116	4498.166817	18746.514276	3282.268669	9804.532746
58.534500	0.035469	0.029558	0.038212	0.070545	4500.585953	18682.343057	3281.453477	9766.272770
59.035000	0.035298	0.028552	0.041366	0.069986	4501.959113	18666.224149	3284.639401	9775.062783
59.535000	0.033905	0.027037	0.053461	0.070910	4493.763931	18578.523378	3294.391380	9760.536969
60.035500	0.033999	0.027372	0.045062	0.070361	4496.037510	18610.277592	3287.512844	9769.174200
60.535500	0.029005	0.028729	0.040249	0.073119	4468.890827	18560.039243	3280.994420	9725.961333
61.036500	0.030958	0.027835	0.028589	0.073039	4475.959793	18530.913234	3271.242354	9727.205557
61.536500	0.029258	0.027718	0.046908	0.076852	4456.861104	18391.097581	3283.500762	9667.920279
62.036500	0.034282	0.028959	0.051574	0.077755	4471.117665	18403.076244	3286.747468	9653.953181
62.537500	0.034924	0.027861	0.044011	0.079182	4468.388837	18313.797899	3279.036388	9631.934010
63.037500	0.035835	0.028766	0.042536	0.080598	4466.641062	18295.827231	3276.590518	9610.170769
63.535000	0.033807	0.028373	0.048314	0.083401	4449.990216	18183.718821	3279.107308	9567.273176
64.035000	0.038698	0.029381	0.043912	0.084692	4462.379534	18173.856781	3274.305665	9547.626284
64.541000	0.035907	0.027931	0.048011	0.085279	4450.751008	18102.869485	3277.260633	9538.697754
65.036000	0.037452	0.029400	0.048360	0.085766	4454.384703	18137.060575	3277.143872	9531.312356
65.535000	0.038759	0.028658	0.049253	0.087904	4451.528944	18037.038257	3276.093522	9498.953481
66.036500	0.036183	0.028800	0.036222	0.087312	4444.737900	18062.492315	3265.766775	9507.900363
66.536500	0.033572	0.026939	0.045058	0.087486	4435.257357	17992.095868	3272.926911	9505.265602
67.037000	0.031599	0.027545	0.047017	0.086689	4431.272565	18040.580860	3275.235501	9517.324835
67.537000	0.036542	0.029575	0.044244	0.089061	4440.001853	18028.759743	3270.938445	9481.523022
68.034500	0.035954	0.028926	0.039951	0.089025	4438.123887	18007.567293	3267.421190	9482.064744
68.534500	0.030765	0.027618	0.041138	0.088842	4421.199121	17968.772147	3268.549088	9484.813092
69.038000	0.033443	0.027828	0.047161	0.088896	4430.043728	17974.131463	3273.505500	9483.998027
69.535500	0.036414	0.029649	0.048201	0.090766	4433.774856	17972.456439	3272.812337	9455.904495
70.036000	0.034678	0.028555	0.060091	0.090662	4428.252572	17938.391857	3282.961919	9457.465558
70.541500	0.035532	0.030458	0.048582	0.093945	4420.072361	17891.004664	3270.485104	9408.409919
71.036000	0.032605	0.029005	0.059374	0.091760	4417.580841	17916.120927	3281.408015	9441.014794
71.542500	0.034930	0.030411	0.055775	0.094158	4417.334787	17882.107267	3276.319590	9405.234970
72.037000	0.038329	0.029097	0.044030	0.095163	4425.381843	17802.895455	3265.731315	9390.301261
72.543000	0.038196	0.030369	0.050600	0.097358	4417.557866	17771.486856	3269.329629	9357.798753
73.034500	0.033457	0.028841	0.053250	0.095758	4407.074875	17773.940175	3272.860191	9381.482736
73.535000	0.036498	0.029932	0.042322	0.098080	4409.469900	17732.157697	3261.967317	9347.152406
74.035500	0.035940	0.029619	0.044199	0.097846	4408.387114	17729.451544	3263.680569	9350.595404
74.541000	0.035017	0.030987	0.048951	0.101674	4392.649830	17646.328187	3264.433396	9294.383494
75.036000	0.037959	0.030270	0.049580	0.101214	4403.901716	17637.644695	3265.322212	9301.105313
75.536000	0.032398	0.029958	0.038956	0.102352	4381.825278	17588.917435	3255.838303	9284.479869
76.036500	0.035273	0.031112	0.035629	0.103266	4388.254454	17596.963568	3252.480327	9271.146480
76.536500	0.037466	0.030919	0.055930	0.104403	4391.726139	17552.369357	3267.915415	9254.600902
77.037000	0.034665	0.028513	0.051907	0.103637	4385.037766	17497.514556	3265.243545	9265.734042
77.537000	0.038439	0.030887	0.049103	0.105838	4390.207867	17503.323289	3261.177446	9233.788928
78.038000	0.035598	0.030571	0.048591	0.107262	4376.247360	17445.372172	3259.617397	9213.198437
78.538000	0.037023	0.030851	0.048560	0.107972	4378.574943	17431.072447	3259.021749	9202.953065
79.035500	0.033605	0.030775	0.056407	0.108883	4364.521845	17398.345863	3264.634969	9189.842092
79.536000	0.034489	0.029373	0.041687	0.110371	4362.570508	17302.892370	3251.656803	9168.472785
80.035500	0.036741	0.030459	0.056226	0.110063	4370.854428	17348.852722	3263.526695	9172.895058
80.536000	0.033468	0.028964	0.047380	0.109914	4360.753364	17304.470036	3256.523962	9175.030150
81.037000	0.034099	0.030292	0.037386	0.110455	4361.043046	17330.411397	3248.228043	9167.266161
81.534000	0.034397	0.031003	0.052118	0.112396	4355.759948	17289.918851	3258.327138	9139.520782
82.034500	0.033265	0.029633	0.055662	0.112662	4351.280775	17236.217587	3260.963393	9135.724696
82.537500	0.034826	0.030803	0.037320	0.112984	4355.250942	17264.018854	3246.215168	9131.137191
83.035500	0.036065	0.031112	0.063488	0.114215	4355.274708	17233.796732	3266.064521	9113.621152
83.535000	0.030891	0.028827	0.053170	0.113928	4339.683228	17168.517955	3257.943288	9117.706552
84.036000	0.032117	0.029366	0.056514	0.114597	4341.447456	17164.252391	3260.090431	9108.195600
84.536000	0.031727	0.029002	0.042664	0.115382	4337.721219	17126.855174	3248.500710	9097.060681
85.061000	0.035114	0.029911	0.048780	0.116539	4344.805897	17118.793311	3252.384153	9080.694534
85.536000	0.030149	0.030651	0.049946	0.117859	4324.933817	17099.961328	3252.263571	9062.074476
86.034000	0.032584	0.031027	0.057732	0.118129	4331.743340	17103.379785	3258.231120	9058.260793
86.534500	0.034369	0.029752	0.033827	0.117482	4339.438409	17083.027613	3240.091938	9067.380339
87.061500	0.033540	0.029099	0.049089	0.116814	4338.927180	17083.515519	3252.410680	9076.805681
87.537500	0.031936	0.030003	0.041204	0.120637	4321.823358	16989.217613	3243.312875	9023.052501
