sample name	sample
index	1148
start time	 04-22-2021  03:24:03 PM
880	0.544093
Peak Time (s)	100.539
Peak Height 	0.5441
calc peak height	100,103
Baseline Time (s)	9.036
Baseline Value 	-0.00636
subtract baseline	10,4
Abs	0.357399
Peak Time (s)	101.037
Peak Height 	0.3574
calc peak height	100,103
Baseline Time (s)	11.537
Baseline Value 	0.00495
subtract baseline	10,3
PK_550	0.212686
Peak Time (s)	102.535
Peak Height 	0.2127
calc peak height	100,103
Baseline Time (s)	8.536
Baseline Value 	4.3663E-4
subtract baseline	10,2
PK_880	0.339290
Peak Time (s)	100.539
Peak Height 	0.3393
calc peak height	100,103
Baseline Time (s)	11.537
Baseline Value 	0.001857
subtract baseline	10,1


Time (s)	A880-A510	A880-A775	A880-A975	A880	I510	I775	I975	I880	
0.036500	0.000161	-0.000093	-0.002147	0.002268	6269.577908	43125.091236	3918.031813	22689.743629
0.537000	0.000988	0.000303	-0.006288	0.004629	6257.874083	42943.973669	3903.249712	22582.722411
1.037000	-0.000437	-0.000184	-0.008761	0.006158	6235.459099	42759.059475	3894.261594	22513.730566
1.540500	0.002437	0.000022	-0.007633	0.002490	6285.310004	43115.147842	3905.043645	22679.638042
2.037500	-0.000579	0.000412	-0.005812	0.001318	6271.181114	43259.663773	3911.833152	22732.948675
2.535500	0.000267	0.000276	-0.004117	0.001656	6275.069213	43215.799902	3914.927189	22717.575008
3.035000	-0.001504	-0.000391	-0.007637	0.004318	6241.304267	42908.751669	3900.911428	22596.776112
3.536000	0.001249	0.000881	0.000581	0.001532	6283.539155	43283.255873	3925.997606	22723.205768
4.035500	-0.000355	-0.000691	-0.006972	0.000208	6281.391568	43260.303109	3911.717303	22783.566249
4.536000	0.002324	0.000413	-0.003415	0.000988	6295.987071	43290.369096	3918.059321	22747.982552
5.036500	0.001354	0.000962	-0.003379	0.001468	6284.843884	43296.826155	3917.044724	22726.139955
5.535500	0.002051	0.000316	-0.000020	0.000855	6294.908287	43293.682926	3926.173702	22754.045334
6.039500	0.001345	-0.000797	-0.001784	0.000309	6293.680784	43241.083268	3923.364054	22778.961390
6.537500	-0.000142	0.000150	-0.008856	0.000332	6282.076912	43326.818113	3907.159837	22777.919396
7.037000	0.003406	0.000517	-0.007635	0.000645	6306.981934	43331.872409	3909.218243	22763.629800
7.535000	0.000799	0.000185	-0.002483	0.000227	6290.108157	43339.756365	3921.943522	22782.697132
8.035500	0.000512	-0.000093	-0.004258	-0.000249	6291.564521	43358.270749	3918.963991	22804.474152
8.536000	0.000014	0.000000	-0.002372	0.000266	6283.779182	43319.042776	3922.110840	22780.940003
9.036000	-0.000293	-0.000408	-0.002020	0.000000	6283.466130	43305.870770	3923.531974	22793.078377
9.536000	-0.000452	0.000118	0.001714	0.000354	6279.527634	43321.787784	3931.347714	22776.908021
10.037000	-0.000906	-0.000430	-0.003194	-0.000703	6284.153846	43369.001741	3922.447885	22825.205358
10.536500	0.002676	0.000654	0.000694	0.001248	6296.698059	43288.626047	3926.915943	22736.155419
11.037000	0.001275	0.000151	0.000843	-0.000069	6296.048980	43364.154794	3930.308553	22796.215695
11.537500	0.000000	-0.000036	0.000000	-0.000712	6291.186349	43406.535647	3929.845141	22825.634791
12.035000	0.000978	-0.000278	-0.002165	-0.000628	6298.069391	43376.196226	3924.644982	22821.792712
12.535500	0.002940	0.000152	-0.001795	-0.000079	6308.978826	43365.196141	3924.234692	22796.707574
13.035500	0.000426	0.000146	-0.000891	-0.000573	6293.396290	43410.506098	3927.460053	22819.272949
13.538500	0.002948	-0.000322	-0.003485	-0.000302	6310.760297	43341.865059	3920.856128	22806.864929
14.039000	0.001009	0.000564	-0.000832	0.001882	6279.017343	43221.459952	3921.935930	22707.264541
14.536500	0.000081	0.000625	-0.002395	0.002044	6270.675714	43212.211778	3917.978175	22699.925020
15.037000	0.001685	0.000093	0.003413	-0.000328	6301.210928	43382.851920	3936.890169	22808.066229
15.540000	0.002109	0.000324	0.000093	0.000071	6301.401003	43367.273011	3928.247290	22789.845009
16.034500	-0.000009	0.000600	0.000362	-0.000436	6288.992762	43440.008080	3930.045664	22813.011634
16.537500	0.003068	0.000312	0.000135	0.000478	6305.662531	43328.319973	3927.403179	22771.247932
17.035000	0.002909	0.000576	0.007867	-0.003057	6331.844267	43682.525728	3953.794780	22933.252119
17.535000	0.000790	0.000478	-0.004342	0.000410	6288.634698	43350.086297	3917.260585	22774.374122
18.035500	0.002063	0.000350	-0.002638	0.000822	6295.252516	43299.826378	3920.221783	22755.538110
18.536000	-0.000843	0.000031	-0.003123	0.000567	6274.905275	43294.008325	3919.694130	22767.193097
19.036000	0.001343	0.000316	0.003992	0.001288	6286.140560	43253.560073	3934.473683	22734.326671
19.537000	-0.001034	0.000001	0.000401	0.000928	6270.679815	43257.692921	3926.977551	22750.735231
20.037000	0.001349	0.000339	0.000526	0.001431	6285.083565	43242.467098	3926.105037	22727.820410
20.537000	0.000683	0.000022	0.002018	0.000978	6283.456446	43255.037708	3930.607591	22748.466853
21.037500	-0.001000	0.000464	-0.000695	0.001355	6267.681760	43261.093672	3923.464135	22731.283832
21.537500	0.000119	0.000126	-0.001063	0.001131	6277.953184	43250.540459	3923.132942	22741.485524
22.035500	0.000862	0.001662	-0.001845	0.001818	6278.385706	43329.268796	3919.756409	22710.197552
22.535500	0.003485	0.000690	-0.002701	0.001166	6303.569540	43299.519656	3919.286835	22739.855004
23.036000	0.002411	0.000083	0.002198	0.000696	6298.915263	43286.814389	3931.679647	22761.320904
23.539000	-0.000940	-0.000506	0.001560	0.001047	6270.491915	43199.748670	3929.384948	22745.307601
24.036500	0.001256	0.000303	0.001343	0.001306	6285.331595	43250.688208	3928.283508	22733.513440
24.536500	0.001168	-0.000132	-0.001756	0.000956	6287.347954	43242.811833	3921.940888	22749.457615
25.040000	0.000531	0.000526	-0.002633	0.001428	6278.828949	43260.033759	3918.842495	22727.935257
25.539500	0.003561	0.000322	-0.001349	0.001123	6304.483892	43269.362774	3922.491763	22741.816355
26.034500	-0.000064	-0.000269	-0.004593	0.000952	6277.920130	43230.466590	3915.446959	22749.615630
26.535000	0.001754	-0.000067	0.000498	0.001006	6291.468273	43244.177370	3927.021205	22747.184694
27.036000	0.003873	0.000587	0.005981	-0.001360	6326.143767	43524.949284	3945.327481	22855.317869
27.538500	0.001045	0.000003	-0.000776	-0.001035	6301.720181	43440.165808	3928.794413	22840.404803
28.036000	0.000835	0.000454	-0.001342	0.000149	6290.991333	43372.058800	3924.753033	22786.289813
28.536000	0.004159	0.000485	-0.000816	-0.000012	6317.897793	43389.851341	3926.337578	22793.612217
29.039000	-0.000718	-0.000121	-0.002738	0.004750	6243.982798	42893.806036	3911.017219	22577.227585
29.537500	0.004002	0.000219	0.002913	-0.000208	6318.203187	43383.431196	3935.445744	22802.595798
30.037000	0.002427	0.000157	-0.001356	-0.000110	6305.257382	43368.566533	3925.318402	22798.106925
30.537000	0.002384	-0.000119	-0.003386	0.002605	6284.019702	43091.527708	3914.428094	22674.411923
31.035000	-0.000997	-0.000568	-0.001710	0.003385	6252.228525	42978.181313	3916.475671	22639.005251
31.535000	0.002013	-0.000096	0.004745	-0.000172	6302.529590	43350.757988	3939.638296	22800.918681
32.035500	0.002289	0.000033	-0.003629	-0.000314	6305.760162	43375.898348	3920.554474	22807.418504
32.536000	0.001315	0.000664	-0.000571	0.000594	6291.255224	43350.232417	3925.504052	22765.956749
33.036000	-0.003578	0.000147	0.000663	0.005205	6218.943188	42876.664384	3917.740229	22556.689581
33.536500	-0.000581	0.000220	-0.001667	0.001869	6266.950811	43190.880881	3920.046874	22707.863056
34.037000	0.002201	0.000134	-0.000148	0.001558	6290.655455	43211.667841	3924.256622	22722.021286
34.539500	-0.000896	0.000133	0.001381	0.001613	6266.505542	43206.561249	3927.660128	22719.535573
35.034500	-0.000949	-0.000237	-0.003358	0.002811	6256.964128	43061.605642	3914.021693	22665.070717
35.534500	-0.001515	0.000761	-0.001115	0.001745	6260.774606	43252.439642	3921.600916	22713.514002
36.035000	-0.001109	0.000047	-0.002019	0.000963	6269.836018	43258.719711	3921.318645	22749.113433
36.535000	-0.001035	0.001039	-0.000844	0.001855	6263.593408	43267.945436	3921.970117	22708.488494
37.036000	0.001036	0.000180	-0.004173	0.002020	6278.166826	43173.157701	3913.966093	22700.981207
37.535500	0.000753	0.000373	0.001360	0.001762	6277.972700	43214.902971	3927.265314	22712.719933
38.038500	0.001194	0.000690	-0.004514	0.002111	6278.679785	43211.881252	3912.982309	22696.847803
38.536500	-0.001843	0.000205	-0.004456	0.001363	6261.188649	43236.321631	3914.821927	22730.910145
39.039500	0.003357	0.000106	-0.002174	0.001454	6300.359472	43218.706997	3919.836952	22726.763949
39.537000	0.000513	0.000233	-0.001382	0.001504	6278.112625	43225.829502	3921.540874	22724.482482
40.035000	0.000281	0.000038	-0.001562	0.001763	6274.353630	43183.802138	3920.530874	22712.693041
40.535000	-0.000253	-0.000419	0.001804	0.001121	6275.181271	43200.886660	3929.777973	22741.919440
41.035000	0.003337	0.000547	0.000535	0.002194	6294.502743	43191.040111	3924.364518	22693.078609
41.535500	0.000784	0.000496	0.002038	0.001995	6276.427056	43204.723022	3928.295902	22702.129387
42.036000	-0.000154	0.000344	0.002178	0.001808	6270.680655	43207.923783	3929.051363	22710.626473
42.536000	0.002226	0.000879	0.003900	0.001831	6288.746609	43255.357412	3932.995451	22709.591971
43.036500	-0.000343	-0.000582	-0.001456	0.001311	6273.038871	43168.307330	3921.812714	22733.263529
43.537000	0.002651	-0.000442	0.003849	-0.003275	6331.533883	43607.667042	3944.815458	22943.261657
44.037000	0.001452	0.000928	-0.005239	0.000273	6294.777898	43404.542786	3915.521116	22780.604811
44.537500	-0.000385	-0.000037	-0.001269	0.002686	6262.218964	43091.611497	3919.088033	22670.758752
45.037000	-0.000168	-0.000153	0.000689	0.001822	6270.466618	43160.693036	3925.578209	22710.022696
45.535500	0.002066	0.000738	0.003151	0.000065	6301.115471	43406.233081	3935.360691	22790.086136
46.035000	0.002823	-0.000538	-0.002746	-0.000477	6311.152551	43338.050561	3922.960666	22814.887375
46.536000	0.001349	0.000451	-0.005370	0.003817	6266.814147	43032.333606	3907.160887	22619.461414
47.036000	-0.001366	0.000199	-0.002116	0.002622	6255.232115	43119.347304	3917.293343	22673.656179
47.536000	0.000496	0.000143	0.000174	0.001017	6281.714600	43262.604834	3926.246069	22746.652176
48.036500	0.003609	0.000442	0.003030	-0.000106	6314.362569	43394.641635	3935.479552	22797.912242
48.539500	0.002725	0.001100	-0.000887	0.001529	6294.911301	43303.847385	3922.620384	22723.330544
49.034500	0.002071	0.000379	-0.001005	0.001151	6292.784613	43272.132045	3923.220026	22740.567740
49.534500	0.005468	0.000412	-0.001198	-0.002091	6344.268961	43576.883020	3930.265880	22888.856749
50.035000	-0.000018	-0.000076	0.004241	0.007086	6231.601682	42684.030298	3921.634121	22471.951611
50.535500	0.011461	-0.002579	0.006971	0.177812	5224.466763	29634.107824	3601.365137	16126.693381
51.035500	0.002461	-0.006444	-0.028422	0.324373	4539.924123	21839.816192	3369.269109	12352.800858
51.536000	-0.016339	-0.022691	-0.046402	-0.082842	6837.582660	49335.461467	4016.156463	26963.086625
52.035500	-0.008166	-0.035693	-0.019783	-0.174771	7845.144518	58568.198193	4359.169811	32623.855356
52.536000	-0.011872	-0.030779	-0.014343	-0.189285	7968.466928	61109.924192	4426.679892	33632.228631
53.039000	0.004566	-0.020868	0.004593	-0.168974	7923.916512	59735.146756	4421.928961	32230.394578
53.537000	0.016121	-0.014699	0.013345	-0.151677	7858.602145	58300.113217	4392.731464	31087.185372
54.039500	0.018418	-0.002906	0.019035	-0.090335	7234.708528	52338.438949	4215.989135	27380.927213
54.537500	0.030329	0.003713	0.026676	-0.072203	7173.785140	51047.999839	4185.140528	26382.004698
55.037500	0.043145	0.009191	0.038775	-0.071804	7296.271262	51613.092753	4219.596556	26360.465949
55.535000	0.054879	0.017628	0.050914	-0.027982	6986.768863	47810.104538	4128.391687	24113.608431
56.039000	0.070329	0.027317	0.068333	0.012536	6760.396035	44740.098310	4065.968688	22228.509270
56.535500	0.079944	0.036379	0.081625	0.076668	6310.968406	39770.259640	3939.731233	19582.008686
57.036500	0.091907	0.044188	0.088885	0.112904	6128.306199	37441.135156	3874.124565	18250.667143
57.536000	0.111103	0.054095	0.105578	0.117811	6234.598157	37839.785963	3900.284985	18078.776568
58.039500	0.127347	0.062130	0.120330	0.176322	5930.056366	34018.053235	3806.638687	16171.988853
58.537000	0.139771	0.070088	0.133805	0.211444	5778.348999	32138.017805	3763.686888	15144.882056
59.037000	0.149813	0.078901	0.150515	0.246991	5617.067163	30399.006807	3728.013038	14186.545529
59.535000	0.169527	0.088623	0.167330	0.279812	5537.798713	28980.329574	3698.894431	13368.728698
60.035000	0.180537	0.099749	0.182219	0.309107	5431.136883	27916.219073	3673.587074	12689.183825
60.535500	0.194357	0.107097	0.193739	0.333479	5371.595943	26958.787867	3651.709372	12157.739838
61.035500	0.206565	0.111449	0.206402	0.345731	5371.352507	26527.102343	3652.397664	11901.628200
61.536000	0.218016	0.117812	0.225109	0.360284	5354.119581	26087.724340	3659.405871	11606.656147
62.038500	0.229416	0.124118	0.238037	0.382166	5296.805282	25274.697313	3644.383036	11181.341250
62.537000	0.240341	0.130176	0.249343	0.402260	5247.796841	24566.627096	3629.938273	10809.209981
63.037000	0.246352	0.134221	0.254481	0.437796	5096.818100	23058.808409	3582.166431	10191.806538
63.537000	0.255795	0.137958	0.264170	0.429879	5184.338750	23604.103726	3609.425812	10325.009575
64.040000	0.265964	0.142787	0.276542	0.456580	5100.915543	22592.637414	3587.157563	9885.308824
64.534500	0.273305	0.146811	0.270266	0.500366	4927.833684	20879.315035	3514.873571	9220.248705
65.035000	0.277994	0.147497	0.285787	0.531690	4810.225856	19662.133031	3493.734338	8783.998956
65.535500	0.272488	0.145552	0.286683	0.550223	4710.089994	18895.138757	3471.029875	8540.304299
66.036500	0.277065	0.146908	0.294395	0.564530	4671.113346	18428.412931	3462.775580	8359.181590
66.536500	0.278438	0.150612	0.296612	0.568705	4660.050052	18411.708594	3460.349024	8307.433945
67.044500	0.282919	0.152083	0.298563	0.567905	4680.961093	18492.447223	3463.760793	8317.305867
67.539500	0.284931	0.155636	0.300444	0.569816	4681.363327	18551.096417	3463.723680	8293.749004
68.037000	0.286592	0.159608	0.305050	0.570453	4685.449406	18670.910822	3468.686117	8285.915467
68.537500	0.286772	0.164730	0.310836	0.571194	4683.208782	18829.689343	3475.059309	8276.822904
69.037500	0.291380	0.169000	0.313525	0.570954	4702.657579	18994.824965	3478.792804	8279.762927
69.535000	0.295831	0.171166	0.302691	0.567615	4734.363724	19198.720430	3469.287549	8320.888979
70.035500	0.298383	0.172616	0.310492	0.564116	4759.389204	19384.257225	3483.681376	8364.327453
70.536000	0.296529	0.175144	0.313952	0.560970	4764.779518	19599.630281	3492.270755	8403.689097
71.036000	0.299592	0.176146	0.306462	0.556033	4798.504838	19828.032501	3488.935621	8466.025303
71.536000	0.300998	0.178540	0.306223	0.550367	4828.842615	20143.100518	3496.048799	8538.456656
72.039000	0.307528	0.181252	0.320384	0.546985	4872.203621	20385.185356	3519.659584	8582.138451
72.539500	0.305821	0.182286	0.322142	0.541733	4887.948019	20638.511047	3529.364535	8650.648674
73.037500	0.306925	0.183709	0.315662	0.537264	4912.967620	20879.324392	3526.565094	8709.602524
73.537500	0.309836	0.184809	0.326086	0.531218	4953.858450	21175.787423	3549.884071	8790.335709
74.035500	0.315143	0.187180	0.324722	0.528628	4990.620710	21384.527362	3551.655472	8825.269757
74.537500	0.312198	0.187723	0.327262	0.521609	5009.843661	21707.269219	3565.640730	8920.981804
75.036000	0.310339	0.189371	0.322530	0.518009	5018.118094	21934.564871	3563.967448	8970.671871
75.535500	0.313478	0.192010	0.326976	0.513326	5055.685613	22256.313868	3577.577412	9035.925989
76.036000	0.314006	0.192614	0.324557	0.509200	5078.364883	22467.085945	3580.154761	9094.015801
76.536500	0.315420	0.193658	0.323393	0.504719	5107.443190	22716.194375	3585.191424	9157.729760
77.037000	0.311771	0.193484	0.320775	0.501022	5107.686774	22876.734091	3586.838179	9210.797433
77.537000	0.312452	0.194292	0.323077	0.498287	5124.713223	23039.452520	3594.577731	9250.335200
78.040000	0.315352	0.195952	0.325759	0.497816	5141.657456	23137.991235	3599.470969	9257.179985
78.535000	0.314117	0.196879	0.329143	0.497417	5137.440049	23199.513833	3605.385258	9262.965904
79.035000	0.311357	0.196392	0.315951	0.496665	5127.357366	23211.856145	3586.125099	9273.913357
79.538000	0.314739	0.196888	0.326878	0.498590	5134.670113	23145.457469	3600.006661	9245.940240
80.035500	0.319715	0.198400	0.321208	0.500766	5148.797570	23114.724442	3587.891455	9214.483904
80.536000	0.313084	0.198101	0.333534	0.501486	5111.903884	23067.623334	3605.892101	9204.107020
81.036000	0.319710	0.199470	0.337020	0.503973	5132.600195	23016.027779	3607.464475	9168.400021
81.539500	0.317874	0.200473	0.329748	0.505627	5115.134406	22986.080720	3593.544887	9144.768019
82.037000	0.318694	0.199840	0.337303	0.506859	5113.083560	22900.470314	3603.374931	9127.215159
82.537000	0.323160	0.200614	0.331959	0.509342	5122.980765	22822.367636	3591.229222	9092.015139
83.035000	0.321228	0.200563	0.342219	0.510709	5106.539806	22757.765420	3605.047008	9072.708580
83.535000	0.323848	0.201330	0.337855	0.512181	5112.248508	22725.762565	3595.946501	9051.999721
84.035000	0.324737	0.200369	0.331342	0.514413	5105.574464	22581.312242	3582.537284	9020.720953
84.535500	0.325073	0.201731	0.339832	0.517070	5094.088975	22523.053925	3591.451022	8983.705566
85.036000	0.322338	0.201298	0.334829	0.518714	5072.583749	22429.935977	3581.303315	8960.910076
85.536000	0.324561	0.202133	0.341382	0.521243	5071.091366	22354.346695	3587.427217	8926.010803
86.036500	0.329676	0.202970	0.346183	0.524334	5080.996871	22254.197483	3590.048289	8883.639260
86.536500	0.329521	0.204891	0.344219	0.527619	5064.186288	22193.853178	3582.038102	8838.928378
87.043000	0.329217	0.204645	0.339605	0.529393	5054.100343	22104.842168	3572.419117	8814.928067
87.534500	0.330023	0.204582	0.347776	0.529515	5057.413032	22096.676668	3584.561813	8813.280011
88.035000	0.330024	0.206265	0.339824	0.532401	5043.462654	22043.863087	3568.262249	8774.447364
88.535000	0.331791	0.206663	0.341217	0.533886	5044.821485	21996.294306	3568.124987	8754.566326
89.035500	0.328307	0.205505	0.343291	0.532290	5035.741595	22015.439750	3573.598914	8775.934129
89.535500	0.331956	0.207077	0.340194	0.533647	5046.773366	22024.889873	3566.963126	8757.765401
90.036000	0.335204	0.210454	0.343098	0.536463	5048.861763	22049.435539	3567.093641	8720.233077
90.536500	0.331489	0.207059	0.350518	0.534982	5038.095414	21965.728126	3580.425981	8739.948104
91.039500	0.333748	0.210088	0.346695	0.537262	5037.996498	21998.464543	3571.254329	8709.630799
91.537000	0.333143	0.211689	0.344392	0.538358	5029.835605	22020.559489	3566.203844	8695.118611
92.035000	0.332418	0.209873	0.336969	0.536604	5034.767804	22017.800308	3557.864427	8718.359597
92.534500	0.335967	0.209760	0.348418	0.537469	5047.689992	21975.085377	3573.521452	8706.893372
93.038000	0.331286	0.210648	0.344910	0.537616	5024.507793	22007.484584	3568.071262	8704.943997
93.535500	0.335339	0.209319	0.339068	0.536456	5049.545576	22000.067734	3561.157335	8720.324102
94.035500	0.331972	0.209428	0.345418	0.536895	5031.230702	21985.643735	3569.898866	8714.497666
94.536000	0.336611	0.210604	0.355044	0.540037	5038.415185	21899.954686	3579.625300	8672.952438
95.035500	0.333875	0.209221	0.343455	0.537615	5036.910698	21945.185211	3565.916236	8704.955399
95.536500	0.334539	0.210655	0.342155	0.538218	5037.202257	21981.431931	3563.106501	8696.966796
96.036500	0.333254	0.209483	0.345226	0.538697	5028.740566	21909.440789	3566.935704	8690.631693
96.536500	0.334785	0.209796	0.343062	0.538912	5035.047999	21913.710821	3563.420704	8687.791845
97.037000	0.336058	0.211776	0.338682	0.540869	5031.766389	21914.728364	3554.145891	8661.995416
97.534500	0.333106	0.211734	0.353938	0.540895	5017.547822	21911.760752	3576.664101	8661.658214
98.035000	0.333996	0.208935	0.345189	0.538893	5031.356941	21877.112810	3566.590620	8688.040038
98.535500	0.331377	0.210040	0.339203	0.541919	5004.491540	21793.874041	3553.379912	8648.214821
99.035500	0.335311	0.210959	0.343993	0.540845	5028.309131	21880.237766	3561.944951	8662.319717
99.535500	0.341507	0.213635	0.358063	0.542811	5048.642340	21911.138372	3579.995327	8636.521308
100.036000	0.336552	0.208944	0.351884	0.540009	5038.267800	21829.097634	3574.909294	8673.324475
100.539000	0.339290	0.210815	0.347796	0.544093	5031.806261	21733.412767	3562.760591	8619.755178
101.036500	0.337586	0.211215	0.357399	0.541418	5036.462613	21866.435945	3581.098798	8654.779617
101.539500	0.337417	0.210775	0.347745	0.540596	5039.603557	21883.064623	3567.855333	8665.590685
102.037500	0.338881	0.211523	0.352224	0.542366	5038.135731	21838.739323	3571.890550	8642.354512
102.534500	0.338641	0.212686	0.350611	0.542488	5036.393688	21883.899663	3569.303820	8640.752869
103.035500	0.339184	0.211644	0.347997	0.541728	5042.658828	21871.631289	3566.551407	8650.711753
103.535500	0.339129	0.213972	0.356254	0.541595	5043.038779	21978.855051	3579.099746	8652.468011
104.035500	0.340767	0.212665	0.351368	0.542172	5048.156605	21896.720635	3570.901430	8644.889678
104.536000	0.341087	0.212117	0.343759	0.540332	5058.614250	21952.992097	3562.355258	8669.070864
105.038500	0.344436	0.214447	0.352811	0.541920	5067.178266	21985.380904	3573.433851	8648.195841
105.536000	0.342036	0.214719	0.352384	0.541900	5055.606560	21998.118837	3572.824225	8648.453030
106.037000	0.341051	0.214351	0.355202	0.541878	5050.948924	21983.024026	3577.087852	8648.752212
106.536500	0.341564	0.215273	0.353445	0.541929	5053.181840	22021.077242	3574.370452	8648.073081
107.064000	0.342843	0.215062	0.359010	0.541574	5061.111650	22027.415428	3583.307325	8652.738315
107.534500	0.344579	0.216334	0.357905	0.541836	5068.281409	22071.678307	3581.232532	8649.293392
108.035000	0.340296	0.214728	0.357089	0.541371	5049.749830	22021.646997	3580.700300	8655.397983
108.535500	0.343125	0.214221	0.363635	0.539527	5072.459980	22080.335779	3593.526555	8679.680933
109.036000	0.338987	0.215695	0.357581	0.540854	5045.927493	22086.782182	3582.230449	8662.204778
109.536500	0.339737	0.213320	0.350570	0.537351	5066.541589	22136.377570	3576.929021	8708.448363
110.036000	0.341520	0.214067	0.353177	0.537480	5074.615819	22163.612360	3580.668213	8706.739871
