sample name	sample
index	1358
start time	 05-03-2021  01:45:30 PM
880	0.388806
Peak Time (s)	91.038
Peak Height 	0.3888
calc peak height	90,93
Baseline Time (s)	10.538
Baseline Value 	-0.004376
subtract baseline	10,4
Abs	0.275131
Peak Time (s)	90.037
Peak Height 	0.2751
calc peak height	90,93
Baseline Time (s)	9.535
Baseline Value 	0.002762
subtract baseline	10,3
PK_550	0.157773
Peak Time (s)	92.536
Peak Height 	0.1578
calc peak height	90,93
Baseline Time (s)	11.036
Baseline Value 	4.0617E-4
subtract baseline	10,2
PK_880	0.270453
Peak Time (s)	92.536
Peak Height 	0.2705
calc peak height	90,93
Baseline Time (s)	11.036
Baseline Value 	6.8364E-4
subtract baseline	10,1


Time (s)	A880-A510	A880-A775	A880-A975	A880	I510	I775	I975	I880	
0.035000	-0.002772	-0.000064	-0.008797	0.008437	6069.710838	41917.023298	3880.976282	21797.216537
0.535500	-0.002110	0.000408	-0.000751	0.005436	6096.139468	42229.697230	3905.602559	21927.971223
1.035500	-0.000541	0.000579	-0.002061	0.005189	6109.331377	42267.588176	3903.206282	21938.804066
1.541000	-0.002296	0.000645	-0.004200	0.005212	6096.414080	42271.356111	3898.347230	21937.758887
2.036500	-0.001659	0.000263	-0.003031	0.003600	6112.759137	42382.810007	3904.599840	22008.411902
2.536500	-0.002745	-0.000577	0.000143	0.001621	6119.270875	42486.347316	3916.291518	22095.507806
3.036500	-0.000097	0.000934	0.002510	0.000286	6148.482189	42746.047266	3924.778423	22154.465987
3.539500	-0.002740	-0.000128	-0.007244	0.003342	6106.771327	42370.818691	3895.720375	22019.745865
4.037000	-0.001464	-0.000080	-0.000170	0.001375	6130.435604	42553.940270	3916.139228	22106.348921
4.535000	0.000598	0.000292	0.002759	0.001234	6146.623691	42600.830805	3923.170588	22112.588850
5.035500	-0.001850	-0.000078	-0.002726	0.003392	6112.883004	42370.748103	3905.757483	22017.542790
5.535500	-0.002038	-0.000008	-0.000008	0.000538	6132.363225	42636.876730	3918.421912	22143.313654
6.038500	-0.002603	-0.000795	-0.001742	0.000067	6131.671408	42608.008426	3915.536436	22164.140881
6.536500	-0.001068	0.000801	0.001893	0.000923	6136.655980	42675.617328	3921.894531	22126.313286
7.036500	-0.002068	0.000157	-0.001836	0.000710	6130.892781	42636.282164	3913.859402	22135.743264
7.537000	-0.000441	0.000327	0.000807	0.000414	6145.002352	42678.819170	3920.571378	22148.803942
8.037000	0.000381	-0.000112	0.004631	0.000328	6151.699520	42646.595031	3929.574506	22152.616511
8.537500	0.000494	-0.000007	0.002062	-0.000047	6155.297147	42690.488931	3924.513056	22169.202515
9.037500	-0.001446	0.000452	-0.006619	0.000715	6135.406835	42662.780096	3903.017774	22135.501326
9.535000	-0.003277	0.001016	0.000000	0.000885	6120.764591	42698.854403	3917.647516	22128.006282
10.035500	0.000455	0.000162	0.001704	0.000937	6147.753168	42616.002026	3921.429691	22125.700664
10.538000	-0.001222	-0.000213	-0.002032	0.000000	6142.303317	42667.323598	3915.028991	22167.126860
11.035500	0.000000	0.000000	0.000328	-0.000164	6152.514710	42701.800683	3920.799254	22174.390010
11.536500	0.000057	-0.000439	-0.005525	-0.000519	6155.552440	42694.173425	3908.272845	22190.122661
12.036500	0.000295	0.000067	-0.000594	-0.000100	6154.220882	42702.158272	3918.540842	22171.576299
12.537000	-0.001131	0.000599	0.002496	0.000197	6141.527406	42723.522494	3924.948443	22158.386453
13.037000	-0.001603	0.000057	-0.000082	0.002202	6123.370986	42491.131402	3914.455807	22069.900797
13.537500	0.000282	0.000289	-0.000927	0.000609	6148.889118	42657.560619	3916.158542	22140.168844
14.035000	-0.002860	-0.000135	0.001815	0.000322	6127.929262	42645.044776	3923.096655	22152.889251
14.535500	-0.003328	0.000043	-0.004838	0.002135	6111.269769	42495.926639	3903.827854	22072.824154
15.038000	-0.002882	0.000275	-0.004109	0.002605	6111.102126	42474.321723	3904.414568	22052.166765
15.553000	-0.000476	-0.000055	0.004320	0.000161	6146.614105	42667.087720	3929.241523	22160.019324
16.036000	-0.000505	-0.000341	0.001673	-0.000432	6150.767726	42695.146491	3924.503520	22186.259646
16.536000	-0.000163	0.000617	0.002643	0.000672	6145.149342	42681.693306	3924.195616	22137.385302
17.036500	-0.003217	-0.000006	-0.000796	0.003195	6104.372349	42395.194177	3910.573414	22026.226074
17.537000	-0.000496	0.000123	-0.002146	-0.000218	6149.255827	42717.948778	3915.263856	22176.764848
18.037000	0.000547	-0.000373	-0.003255	-0.000035	6155.599032	42655.872942	3912.323848	22168.680833
18.540500	-0.000748	-0.000467	-0.000167	0.001035	6138.187840	42549.767303	3916.923763	22121.372303
19.035000	-0.001746	0.000276	-0.001219	0.001961	6124.081134	42533.021437	3912.413480	22080.495796
19.538500	-0.000831	0.000597	0.003632	0.001913	6131.139724	42566.651140	3923.616872	22082.644246
20.036000	-0.001361	-0.000326	-0.002632	0.001056	6133.533712	42560.642253	3911.261104	22120.450662
20.536000	-0.001619	0.000349	-0.003758	0.001223	6130.413024	42606.967464	3908.328067	22113.053715
21.038500	-0.000844	-0.000035	-0.002099	0.001191	6136.335319	42574.858353	3912.167048	22114.487749
21.536500	-0.001090	-0.000131	-0.002932	0.001130	6134.973474	42571.634227	3910.411949	22117.149464
22.037000	-0.001076	-0.000713	-0.006582	0.001190	6134.636657	42513.184637	3902.030530	22114.516054
22.537000	-0.000932	-0.000180	-0.001670	0.001094	6136.395844	42570.464138	3913.360822	22118.737572
23.037000	-0.003766	0.000702	-0.000728	0.001918	6109.665081	42575.760263	3913.629805	22082.405525
23.534500	-0.002982	0.000371	-0.000626	0.001405	6119.123835	42592.382825	3915.032520	22105.039876
24.038000	0.001007	-0.000041	0.002475	0.001188	6149.966469	42574.550916	3922.622794	22114.599198
24.535000	-0.000750	0.000109	0.002343	0.001033	6138.188927	42602.431927	3922.676742	22121.472471
25.036000	0.000592	0.000176	-0.002435	0.001311	6146.012459	42583.179000	3911.130968	22109.199423
25.536000	-0.000124	-0.000298	0.001775	0.000772	6144.699133	42589.075184	3921.970564	22132.963540
26.036500	0.000428	0.000918	-0.001533	0.001388	6144.234051	42643.860276	3913.004773	22105.798483
26.536500	-0.002586	0.000674	0.000215	0.000772	6126.640294	42677.839640	3918.396969	22132.995878
27.037000	-0.002471	0.000674	-0.001333	0.001659	6120.996663	42596.847152	3912.842860	22093.820943
27.536500	-0.004365	-0.000343	0.001243	0.000347	6116.745955	42623.770844	3921.725182	22151.776601
28.037000	0.001963	0.000190	-0.000425	-0.002639	6185.423950	42946.372551	3924.755804	22284.317470
28.543500	-0.000361	0.000749	0.002444	-0.000506	6152.368065	42801.676113	3926.448916	22189.518731
29.035500	0.000353	0.000256	-0.002394	-0.000422	6157.026294	42748.888771	3915.165806	22185.824683
29.536000	-0.005256	0.000350	0.000493	0.005170	6075.347601	42248.606997	3909.019149	21939.630650
30.035500	-0.000010	-0.000282	0.002182	-0.000892	6157.811543	42742.551958	3926.735474	22206.640988
30.536500	-0.000284	0.000542	-0.002025	-0.000548	6153.254305	42786.574986	3916.296028	22191.415979
31.039500	-0.002902	-0.000236	-0.002825	0.003130	6107.134084	42380.253396	3906.128560	22029.076752
31.553000	-0.002225	0.000362	-0.003479	0.006174	6089.968155	42158.948358	3897.807786	21895.739560
32.037000	-0.000893	0.000825	-0.000092	0.002257	6128.162222	42556.037264	3914.305996	22067.453256
32.537500	-0.000650	0.000718	-0.002695	0.000131	6145.550835	42740.459835	3913.219205	22161.325031
33.053500	-0.002214	0.000847	-0.001400	0.001067	6127.203995	42666.677469	3914.036721	22119.943592
33.535500	-0.005114	0.000438	0.001370	0.005288	6075.519790	42245.832472	3910.738701	21934.466831
34.035500	0.001204	0.000429	0.000116	-0.000110	6161.005997	42736.116066	3920.189404	22172.001249
34.536000	-0.000473	0.000089	0.003554	-0.000245	6149.625501	42717.319990	3928.408308	22177.963017
35.040500	-0.001981	0.000007	-0.000678	0.001440	6126.173483	42555.943934	3914.831239	22103.472856
35.536000	-0.003204	0.000764	0.002382	0.003397	6103.000870	42446.787645	3917.350372	22017.340225
36.036500	-0.001027	0.000101	-0.002391	0.001464	6132.991157	42562.347508	3910.882952	22102.431702
36.536500	-0.001708	0.000136	0.002641	0.001114	6130.563671	42597.513496	3923.173893	22117.885296
37.037000	-0.001046	0.000031	-0.000808	0.000835	6137.468008	42613.374791	3915.916533	22130.195281
37.537000	-0.000727	-0.000089	-0.001663	0.002022	6131.098369	42494.202140	3911.267559	22077.804394
38.035000	-0.000054	0.000658	0.001328	0.001474	6140.061705	42612.270090	3919.338149	22102.002214
38.535500	-0.001054	-0.000264	-0.001872	0.000748	6138.043863	42594.323556	3913.688934	22134.026141
39.035500	-0.000607	0.000315	-0.000499	0.001422	6136.375389	42585.709169	3915.280244	22104.262923
39.535500	-0.001290	0.000882	-0.002304	0.001142	6133.419430	42663.047542	3911.811669	22116.640591
40.035500	-0.001538	-0.000110	-0.001952	0.000772	6134.321826	42606.316043	3913.453088	22133.002767
40.536500	-0.002537	-0.000239	-0.005391	0.000789	6126.877998	42592.944194	3905.620668	22132.252316
41.036500	-0.003474	-0.000298	0.002128	0.001101	6117.748947	42559.023479	3922.026165	22118.437787
41.537000	-0.001837	0.000270	-0.002026	0.000816	6131.799673	42636.919760	3913.184192	22131.036635
42.040000	-0.001934	0.000096	-0.002028	0.000568	6132.910770	42643.661185	3913.744156	22142.015043
42.535000	-0.002525	0.000316	0.001016	0.001330	6123.004622	42594.180568	3918.952268	22108.318123
43.035000	-0.001957	0.000056	-0.001097	0.000980	6129.726593	42602.421637	3914.926966	22123.801765
43.535500	-0.001041	0.000732	-0.002901	0.001525	6132.442971	42614.371277	3909.587599	22099.737832
44.035500	-0.000206	-0.000119	-0.001144	0.000985	6142.537266	42586.062034	3914.807657	22123.587560
44.536500	0.001079	0.001043	0.001573	0.001585	6147.573766	42637.230163	3919.642437	22097.077293
45.036500	-0.002611	0.000075	0.003845	0.000690	6127.056165	42630.592194	3926.923155	22136.606698
45.536500	-0.001499	-0.000222	0.000495	0.002354	6123.018457	42451.942137	3915.422619	22063.192367
46.037000	0.000544	0.000582	0.005346	0.000086	6154.687891	42732.256304	3931.792346	22163.341999
46.545000	-0.000412	-0.000266	0.000787	-0.000637	6152.965858	42720.719129	3922.935947	22195.334642
47.035000	-0.001763	0.000460	0.005754	0.002595	6119.332883	42492.057904	3926.932847	22052.601881
47.535000	0.000366	0.001101	0.000588	0.000203	6152.506063	42768.971301	3920.553045	22158.125383
48.034500	-0.001141	0.000847	0.003371	0.000081	6142.311370	42756.946825	3927.233606	22163.549797
48.535500	-0.001945	0.000017	0.003343	-0.000480	6140.517547	42732.291002	3928.464872	22188.379127
49.035500	-0.001112	0.000109	-0.003126	0.002641	6123.751975	42455.939414	3906.552846	22050.575892
49.536000	-0.002346	0.000660	-0.004714	0.002491	6115.839063	42519.802702	3903.307413	22057.185957
50.036500	0.000100	-0.000301	0.003500	-0.000516	6155.856549	42706.453225	3928.911845	22189.998367
50.537000	-0.000121	0.001009	0.004952	0.000232	6148.698994	42757.853277	3930.539442	22156.846568
51.039500	-0.001408	0.000343	-0.005742	0.003498	6115.333911	42399.429053	3898.735453	22012.904326
51.537500	0.000761	0.001043	0.003394	-0.002201	6173.221446	42984.495072	3932.568170	22264.807536
52.037500	0.000280	0.000306	0.004718	-0.001490	6164.385634	42851.385852	3933.991181	22233.206391
52.534500	0.000415	0.000585	-0.000564	0.001275	6144.969397	42623.772766	3915.467994	22110.765061
53.035000	0.025941	-0.032141	0.030003	0.607065	3789.081170	12091.249015	3188.471578	7692.743413
53.535500	0.008630	-0.024033	-0.024696	0.005422	6175.048768	40082.966183	3853.036199	21928.591514
54.035500	0.007878	-0.062247	-0.022406	-0.243803	8665.715297	63295.546644	4580.998067	36645.742531
54.536500	0.017446	-0.098382	-0.014962	-0.295654	9534.153626	65518.182356	4823.242093	40919.796727
55.036500	0.012583	-0.069996	-0.014712	-0.257623	8914.844422	64144.673502	4665.095611	37735.556877
55.539500	0.012022	-0.049932	-0.009965	-0.226126	8490.322012	62555.318938	4561.152174	35301.409407
56.037000	0.010257	-0.030506	-0.009586	-0.188213	8006.490536	60072.527048	4425.696779	32596.273468
56.537500	0.011408	-0.025763	-0.009887	-0.184361	7975.134450	60189.819102	4411.412569	32334.406983
57.035000	0.011584	-0.025914	-0.006399	-0.190102	8044.076237	60930.964026	4443.336555	32725.520235
57.535000	0.019071	-0.024901	-0.001757	-0.186715	8092.405856	60614.973755	4447.728804	32494.125969
58.035000	0.035317	-0.010313	0.016759	-0.140600	7750.563352	56579.260242	4353.980032	29517.015703
58.536000	0.043030	0.000182	0.029290	-0.070892	7111.801694	49747.292484	4177.717503	25576.103498
59.036000	0.057768	0.010962	0.047170	-0.028686	6856.665588	46482.540087	4109.482774	23479.906855
59.536500	0.076059	0.025425	0.066604	0.022476	6571.812522	42957.340171	4026.039404	21197.433814
60.039000	0.098777	0.038775	0.090515	0.068566	6382.004370	40054.255296	3971.230486	19359.281489
60.536500	0.121051	0.052303	0.109467	0.104998	6271.890619	38149.514916	3929.958958	18038.191123
61.037000	0.143236	0.067140	0.132406	0.144382	6142.864893	36216.724389	3892.619572	16729.367275
61.535000	0.153473	0.077250	0.149790	0.183081	5940.261336	34099.121822	3846.280432	15553.919425
62.035000	0.172305	0.088558	0.167806	0.220637	5814.035340	32273.972523	3805.752934	14509.073540
62.535000	0.189476	0.098322	0.182002	0.252769	5717.019621	30803.220398	3770.122669	13684.100531
63.035500	0.198135	0.105768	0.192515	0.275235	5630.402998	29857.363682	3747.183944	13142.519131
63.536000	0.201081	0.109344	0.197817	0.307309	5456.454614	28150.140114	3698.036497	12416.271070
64.036000	0.206793	0.118114	0.207381	0.309132	5479.011153	28556.057093	3711.936926	12376.588889
64.539500	0.213542	0.122695	0.211936	0.307830	5526.350675	28904.902983	3722.620617	12404.916897
65.039000	0.213444	0.125233	0.209428	0.308443	5522.133961	29020.091560	3716.909502	12391.568951
65.563500	0.216228	0.127902	0.216838	0.309213	5534.095549	29134.196421	3729.108849	12374.827758
66.036500	0.218162	0.129537	0.222783	0.305375	5568.680378	29465.928125	3747.426469	12458.570964
66.534000	0.222887	0.133761	0.221427	0.308535	5578.135575	29530.868026	3738.918305	12389.553609
67.035000	0.223185	0.135824	0.223598	0.311606	5561.403699	29469.336548	3737.233163	12322.982205
67.535500	0.225660	0.136469	0.228733	0.317526	5540.766481	29149.539121	3735.768598	12195.983898
68.036000	0.226457	0.136564	0.231089	0.320037	5530.549257	29004.313725	3735.477015	12142.613493
68.535500	0.228990	0.138901	0.229136	0.322486	5531.051198	28997.620091	3727.305741	12090.875715
69.039000	0.226828	0.140183	0.227243	0.326347	5495.490650	28843.541354	3716.745490	12009.890153
69.536500	0.235207	0.142941	0.237164	0.323614	5561.489472	29172.711486	3740.153118	12067.156751
70.037000	0.237943	0.146353	0.233869	0.326057	5563.250686	29231.160673	3729.452952	12015.948422
70.537000	0.238427	0.147068	0.242248	0.327116	5559.792934	29210.417458	3743.126934	11993.858625
71.037000	0.238627	0.148852	0.238641	0.334609	5516.313645	28867.789618	3722.483287	11839.001474
71.535000	0.240315	0.150243	0.241871	0.335196	5522.830373	28915.773703	3727.351048	11826.995965
72.035000	0.242633	0.151037	0.239383	0.335605	5534.166055	28938.745419	3722.016415	11818.621247
72.535000	0.244583	0.153359	0.250341	0.338811	5526.704786	28886.014401	3736.369359	11753.336419
73.036000	0.245813	0.154269	0.241146	0.343443	5506.588233	28664.867842	3710.947651	11659.846220
73.538000	0.248852	0.155685	0.254067	0.344310	5519.411209	28697.391836	3733.063747	11642.457149
74.036500	0.247720	0.156285	0.248152	0.344227	5513.210942	28737.841260	3722.287187	11644.122382
74.537000	0.250405	0.157499	0.250643	0.346610	5514.998194	28668.596426	3722.485989	11596.499394
75.037000	0.250276	0.158913	0.249106	0.351848	5483.483211	28443.416794	3710.144181	11492.749022
75.534500	0.252682	0.158944	0.256328	0.349847	5509.331539	28562.854365	3726.993191	11532.231654
76.037500	0.255748	0.159316	0.255446	0.351208	5519.402612	28504.629721	3722.863452	11505.359333
76.535500	0.256399	0.160443	0.249824	0.353069	5512.248268	28461.532647	3709.233435	11468.731236
77.035500	0.254025	0.160350	0.255918	0.354489	5489.957250	28372.930771	3717.719272	11440.901843
77.535500	0.255053	0.161175	0.256050	0.356538	5483.992908	28301.450936	3714.227941	11400.898279
78.038500	0.255230	0.161082	0.255166	0.357190	5481.219316	28258.068947	3711.442099	11388.210691
78.536500	0.252807	0.159576	0.256327	0.357637	5464.539467	28144.569987	3712.735128	11379.507372
79.039500	0.253188	0.159529	0.255247	0.360203	5451.915459	27993.648798	3706.150518	11329.800548
79.536500	0.253782	0.160584	0.258332	0.365374	5425.670331	27757.674929	3702.407866	11230.511584
80.037000	0.258694	0.162031	0.263342	0.367053	5444.178590	27744.409612	3708.392318	11198.531666
80.537500	0.255449	0.158181	0.257381	0.365187	5436.267407	27631.546801	3701.041798	11234.086729
81.034000	0.256911	0.159554	0.265748	0.369274	5421.285134	27477.962013	3708.726885	11156.418366
81.535000	0.257556	0.160973	0.268639	0.370796	5416.296066	27472.181844	3711.201519	11127.675214
82.035500	0.256294	0.158289	0.264741	0.369084	5418.852262	27417.422057	3707.255039	11160.012971
82.538500	0.258535	0.158444	0.265187	0.370128	5425.668454	27367.467872	3706.178387	11140.285342
83.036000	0.257745	0.159406	0.272189	0.374200	5398.092411	27193.340205	3711.464632	11063.753849
83.536500	0.257724	0.160288	0.266632	0.374054	5398.801521	27250.813194	3701.729867	11066.497622
84.036500	0.259117	0.159182	0.266670	0.373064	5412.276343	27244.263483	3703.568504	11085.030359
84.537000	0.259371	0.157928	0.269733	0.373407	5411.771042	27155.220393	3708.458660	11078.599870
85.036500	0.258596	0.158407	0.270337	0.374382	5401.869342	27127.618840	3707.789526	11060.349924
85.535000	0.260903	0.159331	0.263560	0.377264	5398.622663	27018.995886	3690.575378	11006.653720
86.035000	0.263507	0.158403	0.270796	0.375899	5421.115021	27043.195846	3705.887250	11032.052146
86.535500	0.262182	0.158372	0.263416	0.377217	5406.121384	26968.604880	3690.404979	11007.540075
87.038000	0.264898	0.158153	0.264847	0.378437	5414.592660	26889.165668	3690.775988	10984.896459
87.536000	0.263017	0.158395	0.269587	0.380772	5390.774377	26774.204033	3695.027358	10941.769952
88.036000	0.267013	0.157957	0.264593	0.379933	5418.114396	26796.247893	3687.697804	10957.245596
88.539000	0.267906	0.157954	0.270279	0.381745	5412.890984	26696.875841	3694.531412	10923.872551
89.037000	0.262752	0.156881	0.269104	0.381826	5383.370372	26633.932499	3692.309218	10922.381724
89.537000	0.269937	0.158285	0.270807	0.383871	5412.353519	26599.082884	3691.704929	10884.894255
90.037000	0.266200	0.155676	0.275131	0.382970	5396.321415	26506.343546	3700.983271	10901.382351
90.534500	0.267717	0.157687	0.270470	0.384574	5395.833210	26528.418845	3689.870716	10872.045283
91.038000	0.266535	0.156988	0.268961	0.388806	5365.515640	26262.482407	3679.827669	10795.127104
91.538000	0.269118	0.157007	0.271336	0.385173	5400.350575	26459.146545	3690.341116	10861.104299
92.035500	0.268180	0.155789	0.266699	0.384144	5400.865263	26448.897106	3684.009616	10879.894584
92.536000	0.270453	0.157773	0.273710	0.386630	5399.662661	26421.827350	3691.958418	10834.585157
93.036500	0.268724	0.157585	0.273291	0.389569	5373.459235	26253.602661	3686.050670	10781.341453
93.536500	0.271227	0.158018	0.276585	0.387518	5399.016794	26387.088642	3695.473952	10818.453638
94.037000	0.271652	0.157460	0.277936	0.387072	5403.939901	26381.077722	3698.670687	10826.558502
94.537500	0.273414	0.157617	0.275605	0.387588	5410.993304	26361.740236	3693.615089	10817.193169
95.034500	0.268803	0.155812	0.273269	0.388252	5381.271353	26229.204396	3688.325384	10805.160469
95.535000	0.268263	0.156497	0.273029	0.387324	5383.448487	26315.731489	3689.535993	10821.988984
96.040000	0.271483	0.157408	0.280881	0.388287	5396.130501	26312.934625	3701.756841	10804.529166
96.543500	0.273060	0.157013	0.274924	0.387683	5408.450202	26324.183918	3692.243547	10815.472556
97.035500	0.269336	0.157004	0.275636	0.388266	5384.177954	26292.358677	3692.470976	10804.908359
97.536000	0.270221	0.156775	0.279079	0.388235	5389.320435	26281.750587	3698.634245	10805.473337
98.036000	0.272763	0.157664	0.282894	0.388322	5403.154406	26324.810473	3705.301586	10803.889621
98.542500	0.271502	0.158061	0.280067	0.389401	5389.966154	26288.167345	3698.318166	10784.386875
99.036500	0.272562	0.156919	0.274538	0.388703	5399.867657	26264.322373	3689.763043	10796.997246
