sample name	sample
index	1292
start time	 04-29-2021  03:09:12 PM
880	0.413256
Peak Time (s)	90.037
Peak Height 	0.4133
calc peak height	90,93
Baseline Time (s)	9.037
Baseline Value 	-0.003083
subtract baseline	10,4
Abs	0.301407
Peak Time (s)	92.535
Peak Height 	0.3014
calc peak height	90,93
Baseline Time (s)	8.54
Baseline Value 	-9.2697E-4
subtract baseline	10,3
PK_550	0.152102
Peak Time (s)	90.537
Peak Height 	0.1521
calc peak height	90,93
Baseline Time (s)	11.035
Baseline Value 	7.125E-4
subtract baseline	10,2
PK_880	0.279595
Peak Time (s)	91.037
Peak Height 	0.2796
calc peak height	90,93
Baseline Time (s)	9.037
Baseline Value 	8.5682E-5
subtract baseline	10,1


Time (s)	A880-A510	A880-A775	A880-A975	A880	I510	I775	I975	I880	
0.034000	-0.002122	-0.001554	0.002411	0.001641	6303.603137	41073.842009	3867.666096	20991.094669
0.537500	-0.003383	-0.001340	-0.005615	0.006970	6253.348763	40627.964428	3839.660498	20771.234365
1.037500	0.000200	-0.000208	-0.002005	0.003731	6305.386733	41008.686865	3853.914652	20904.547437
1.539500	0.001441	-0.000339	-0.000328	0.003685	6315.297723	41001.238686	3857.535896	20906.448413
2.035500	-0.000578	-0.000340	0.002179	0.001304	6318.084013	41210.093836	3867.888188	21005.079449
2.535500	-0.004480	-0.001158	-0.009324	0.006450	6248.986096	40688.883598	3833.099624	20792.572779
3.036000	0.002649	-0.000996	-0.001709	-0.001845	6367.657094	41430.166767	3866.317311	21136.413427
3.536500	-0.000306	-0.000557	-0.004425	0.000176	6328.907676	41290.367649	3856.298691	21052.028904
4.039500	-0.000898	-0.001528	0.002409	-0.000315	6328.125293	41247.974821	3871.834979	21072.465114
4.536500	0.000590	-0.000260	0.003072	0.003904	6307.053725	40989.044031	3864.262434	20897.416493
5.037500	0.000952	0.000268	0.002476	0.000442	6336.595384	41339.685136	3870.361101	21040.936191
5.534500	-0.000382	0.000169	-0.000079	0.000584	6325.170520	41318.394761	3864.619465	21035.048692
6.037500	0.001133	-0.000307	0.003754	0.000067	6340.910620	41322.040014	3873.897515	21056.548007
6.535000	-0.002174	-0.000925	-0.004006	0.001260	6306.129589	41162.494459	3854.901294	21006.917711
7.035500	0.000692	-0.000130	-0.001382	0.000107	6337.182801	41334.135535	3862.867156	21054.893994
7.536000	0.001721	-0.000360	-0.003005	-0.000304	6348.375051	41350.064654	3860.304679	21072.021812
8.036000	0.002065	-0.000269	-0.000427	0.000101	6347.897913	41322.339650	3864.905868	21055.141797
8.539500	-0.000151	0.000473	0.000000	-0.000086	6332.136864	41404.440685	3866.210775	21062.939208
9.036500	0.000000	0.000154	0.004378	0.000000	6332.643202	41368.611778	3875.380550	21059.351912
9.536500	-0.000035	-0.000143	-0.002931	0.001279	6322.476623	41229.716621	3857.122215	21006.150833
10.037500	0.000470	-0.000382	0.004471	-0.000264	6338.335846	41344.644254	3876.147957	21070.360008
10.536500	0.001772	0.000659	0.000746	0.000260	6344.382996	41390.305190	3867.061497	21048.535941
11.035000	0.001405	0.000000	-0.002091	-0.000299	6345.873452	41381.420665	3862.225891	21071.795004
11.535000	-0.001839	-0.000954	-0.000572	0.001082	6310.077127	41175.580167	3862.517630	21014.309152
12.035500	-0.000455	0.000747	0.004247	0.000361	6326.323219	41389.144256	3874.323969	21044.303959
12.535500	0.003773	-0.000414	-0.004265	-0.000537	6366.212787	41365.858365	3858.135383	21081.728409
13.039000	0.000651	-0.000417	0.005633	-0.000414	6340.910570	41354.811313	3878.971670	21076.614343
13.536500	-0.001521	-0.000591	-0.001519	0.001506	6309.264012	41170.310262	3859.620449	20996.710933
14.036500	-0.000089	-0.000538	-0.002370	0.002032	6316.237521	41128.683718	3856.716193	20974.855100
14.537500	-0.002383	-0.000213	0.004179	0.002183	6297.436419	41143.979305	3870.282055	20968.626903
15.040000	0.000435	-0.000003	-0.002713	0.000293	6333.742441	41328.923364	3859.660867	21047.154338
15.557000	-0.002467	-0.000552	0.001833	0.002024	6298.011682	41128.207237	3865.621806	20975.218713
16.035000	0.000767	-0.000342	0.002579	0.000361	6335.794325	41293.030772	3870.753592	21044.312170
16.536000	0.000093	-0.000418	-0.003212	0.000250	6331.426272	41296.075857	3858.697292	21048.924375
17.046500	0.001061	0.000598	0.000638	-0.002539	6360.663723	41633.141370	3872.807643	21165.480039
17.536000	-0.001899	-0.001031	0.003935	0.001122	6309.306849	41165.354660	3872.026258	21012.654085
18.036500	-0.001024	-0.000558	0.001870	0.001155	6315.796106	41204.021850	3867.548061	21011.272873
18.536000	-0.000706	0.000309	0.003618	0.001390	6316.437526	41259.732364	3870.776814	21001.537184
19.036500	-0.002503	-0.001048	-0.002399	0.000296	6311.020483	41236.470405	3860.315799	21047.017052
19.534500	-0.000647	-0.000450	-0.000609	0.001527	6315.828863	41180.760807	3861.498162	20995.821867
20.034000	0.002181	-0.000888	0.005358	0.000727	6343.932984	41212.666523	3875.923834	21029.076155
20.534500	-0.000262	-0.000995	0.001831	0.000721	6325.033164	41203.781504	3868.391278	21029.344473
21.035500	-0.001399	0.000097	0.001928	0.001165	6312.826756	41260.834301	3867.652050	21010.884110
21.535000	0.000443	-0.000870	0.000859	0.001454	6324.811122	41150.299437	3864.763269	20998.851258
22.035500	-0.002294	-0.000921	-0.002676	0.000424	6311.642189	41236.482563	3859.463339	21041.712151
22.536000	0.000018	0.000225	0.002624	0.001592	6320.467971	41234.527349	3868.224184	20993.133772
23.036500	-0.000091	-0.000090	0.003129	0.001171	6322.879548	41243.871691	3870.201065	21010.640759
23.536500	-0.001815	-0.000412	0.007121	0.002394	6300.173202	41107.963793	3876.131208	20959.853287
24.037000	-0.000134	-0.000072	-0.003867	0.001971	6316.371121	41175.038610	3853.700978	20977.409576
24.537000	0.000767	0.000445	0.004453	0.002254	6321.139136	41195.620582	3870.714293	20965.670191
25.034500	-0.000535	-0.000273	-0.003757	0.001826	6314.389447	41170.060596	3854.235844	20983.411502
25.538500	0.000635	-0.000025	0.003537	0.001812	6323.527590	41193.088123	3869.700006	20983.985111
26.035000	-0.000359	-0.000009	0.002985	0.001910	6315.105178	41185.928099	3868.315158	20979.944078
26.536500	0.000406	0.000430	0.002899	0.002412	6317.131270	41180.429768	3867.064802	20959.134510
27.038500	0.000775	-0.000092	0.005662	-0.000879	6345.484557	41424.640129	3880.035842	21096.005939
27.536000	0.000612	0.000388	0.001352	0.002081	6321.277282	41205.855354	3864.479500	20972.861595
28.037000	0.000486	-0.000854	-0.004013	0.000232	6334.608818	41259.178100	3857.047679	21049.669922
28.537500	0.002525	-0.000673	0.000996	0.001683	6339.180879	41147.475894	3864.568151	20989.363317
29.037000	0.000286	0.000179	0.000471	0.000745	6329.082038	41305.014672	3865.444573	21028.315684
29.534500	-0.000319	0.000327	0.002679	0.000970	6322.665313	41298.249774	3869.668298	21018.968070
30.035000	0.000381	0.000088	0.002230	0.000552	6331.319006	41314.102701	3869.602180	21036.363938
30.535000	-0.001034	-0.000991	0.000808	0.002209	6307.598453	41073.479842	3863.054527	20967.548155
31.036000	0.000253	-0.000383	0.001727	0.001910	6319.826254	41153.011798	3865.638417	20979.939839
31.541000	0.000945	0.001103	0.005101	0.000901	6332.985108	41372.899059	3875.000763	21021.857913
32.044000	0.001231	-0.000668	-0.000174	-0.000020	6342.347862	41297.834524	3865.700404	21060.169054
32.536000	0.001326	0.000023	0.003151	0.001861	6328.498871	41193.041486	3868.774146	20981.979843
33.035500	0.000585	-0.000821	0.004105	-0.000192	6338.665993	41299.449013	3875.206020	21067.337568
33.537000	-0.002141	-0.000372	0.001871	0.001299	6306.088827	41207.728847	3867.243997	21005.311525
34.034500	-0.001019	0.000303	0.000823	0.002497	6305.499928	41161.738576	3862.477659	20955.617754
34.536500	0.000833	0.000503	-0.001093	0.002152	6322.441394	41209.709660	3859.157330	20969.915110
35.034500	-0.001514	0.000586	0.001389	0.002281	6303.353575	41205.625445	3864.133211	20964.558801
35.538000	-0.002592	0.000010	0.001022	0.002699	6291.878166	41118.244983	3862.469173	20947.221079
36.038500	-0.000509	-0.000094	0.003227	0.001722	6315.393723	41194.970168	3869.233134	20987.740856
36.536000	0.000526	0.000159	0.001295	0.002098	6320.475580	41184.118894	3864.321564	20972.132049
37.042000	0.000117	-0.000937	-0.001943	0.000966	6326.068913	41187.316579	3859.863955	21019.132699
37.536000	-0.001344	0.000305	-0.001405	0.003318	6296.708040	41089.849552	3856.043686	20921.634944
38.033500	0.000470	0.000562	0.005806	0.002136	6319.760640	41216.276894	3873.864000	20970.578928
38.534000	-0.001905	-0.000262	0.003240	0.001654	6305.171510	41186.154785	3869.405341	20990.550419
39.043500	0.000663	0.000969	0.002987	0.002666	6317.157506	41205.488975	3866.711007	20948.602590
39.534500	0.001553	0.000175	0.004229	0.002750	6323.378772	41128.280773	3869.177689	20945.131408
40.040500	-0.000319	-0.000157	0.001006	0.001842	6315.931930	41178.843825	3864.250936	20982.742239
40.534500	-0.001333	-0.000006	0.004670	0.001849	6308.063584	41191.461787	3872.043540	20982.448984
41.035500	-0.001251	-0.000151	-0.001374	0.001590	6310.691916	41201.535956	3859.747641	20993.218542
41.535500	0.000162	0.000086	0.002541	0.002782	6312.397101	41117.644210	3865.515649	20943.781838
42.041500	0.000071	-0.000939	0.000670	0.001560	6321.119866	41134.923447	3864.138168	20994.469594
42.536500	-0.001632	0.000538	-0.000630	0.002350	6301.916135	41195.304539	3859.713094	20961.676657
43.034000	-0.000472	0.000036	-0.002026	0.001803	6315.054584	41199.318002	3857.925908	20984.391112
43.536500	-0.000480	0.000131	0.005262	0.002661	6308.385925	41132.166116	3871.572761	20948.797906
44.034000	0.000059	0.000325	0.000081	-0.000769	6339.070056	41451.822807	3867.837545	21091.444601
44.535000	0.000250	-0.000430	0.003276	0.000753	6328.741565	41250.690588	3871.406338	21027.988587
45.040500	0.000116	-0.000118	0.003299	-0.000037	6333.828066	41347.880556	3873.146409	21060.880072
45.535000	-0.000610	0.000261	-0.005602	0.002792	6306.381029	41132.167562	3848.355517	20943.390280
46.035500	-0.000048	-0.000316	0.000474	0.000092	6331.560564	41318.997200	3866.839181	21055.515010
46.536500	0.000082	-0.000615	-0.003085	0.000762	6327.380757	41233.662133	3857.887746	21027.643741
47.039000	-0.000544	-0.000686	-0.006692	0.001719	6315.149201	41143.148641	3848.320659	20987.850708
47.536000	-0.000554	0.000124	-0.001717	0.003428	6301.922558	41064.350943	3855.154939	20917.073039
48.037000	0.000912	0.000504	-0.000272	0.000662	6334.577395	41341.055397	3864.043200	21031.777272
48.537500	0.000627	-0.000003	0.001864	0.000806	6331.257097	41283.646001	3868.279251	21025.782411
49.043000	0.003494	-0.000050	0.001882	0.000025	6359.636620	41348.384484	3869.982656	21058.305197
49.534500	-0.001949	-0.000134	0.006634	0.001038	6309.572123	41251.685920	3878.001037	21016.153152
50.035500	0.000289	-0.000974	0.001844	0.000974	6327.339748	41183.365446	3867.879392	21018.817998
50.536000	0.003518	0.001737	0.004210	0.018855	6215.837422	39872.453422	3835.415737	20290.475935
51.036000	-0.012382	-0.038204	0.035964	0.665346	3673.380855	10585.265625	3159.566802	6872.955584
51.536500	-0.029156	-0.035091	-0.012871	-0.011209	6196.370245	39302.517864	3862.501707	21532.526326
52.036000	-0.019918	-0.090171	-0.011401	-0.296831	9335.239497	64732.133075	4724.066647	38808.300984
52.537000	-0.017486	-0.108104	-0.005982	-0.320128	9723.943200	65499.325983	4845.824924	40783.722078
53.036500	-0.011718	-0.070593	0.001075	-0.269308	9058.080908	63612.933488	4663.410022	36607.087208
53.534500	-0.009590	-0.044135	0.003893	-0.221492	8449.778375	60703.759964	4494.063745	33099.376838
54.095500	-0.008486	-0.026509	0.002080	-0.163862	7780.586002	55625.419887	4295.635079	29354.235379
54.535000	-0.004407	-0.023289	0.002498	-0.174624	7947.930996	57347.373517	4330.909673	30016.359387
55.035000	-0.003431	-0.023905	0.002491	-0.191902	8161.778633	59473.308870	4387.225072	31114.418838
55.535000	-0.000275	-0.024235	0.018908	-0.177521	8029.224600	57592.227150	4394.012771	30197.468111
56.036000	0.009130	-0.015061	0.023796	-0.124919	7549.873779	52396.602819	4243.024462	27090.649904
56.536000	0.019701	-0.003586	0.036397	-0.059708	7008.016078	46646.939053	4094.687280	23726.553504
57.036500	0.036011	0.008152	0.047943	-0.014067	6744.069210	43368.766522	4007.718548	21655.119501
57.537500	0.047891	0.016728	0.057294	0.018913	6564.915546	41162.483326	3951.326446	20288.136773
58.038000	0.066693	0.026546	0.074746	0.057822	6402.106495	38689.561532	3902.712660	18803.401265
58.535000	0.082204	0.034938	0.082028	0.097634	6215.146642	36198.256971	3833.443659	17415.805516
59.037500	0.098417	0.042456	0.101990	0.128612	6106.544789	34452.085528	3811.136645	16420.728182
59.535500	0.115777	0.053345	0.121098	0.164672	5974.206770	32680.648918	3777.895736	15348.385715
60.035500	0.130897	0.063004	0.138493	0.189051	5910.758166	31691.317525	3764.574654	14672.243651
60.536000	0.147394	0.071168	0.150257	0.215886	5841.500313	30483.670806	3736.549157	13970.577331
61.036000	0.159269	0.078869	0.166293	0.244201	5734.694358	29209.312445	3714.422233	13275.753871
61.536500	0.163460	0.085427	0.170861	0.271948	5588.546084	27960.965080	3674.320742	12637.433024
62.039500	0.168292	0.091634	0.177809	0.276823	5588.288815	28037.665600	3677.821249	12529.440230
62.537500	0.169910	0.093242	0.180352	0.280160	5577.931469	27938.146166	3676.479831	12456.206536
63.037500	0.175783	0.096033	0.189813	0.287096	5571.547205	27701.262677	3680.756678	12305.787453
63.537500	0.181188	0.098144	0.195914	0.291781	5575.866294	27555.253565	3683.167226	12205.534077
64.034500	0.190103	0.101991	0.194068	0.301291	5572.299152	27237.054606	3664.059890	12005.331342
64.535500	0.191578	0.104287	0.205014	0.307039	5546.784430	27045.116453	3672.743789	11886.425540
65.038500	0.198561	0.106243	0.207304	0.312726	5554.488344	26839.355111	3667.056928	11770.318258
65.536500	0.201533	0.107572	0.207376	0.321766	5518.579467	26419.650046	3652.254084	11588.864451
66.036000	0.205751	0.110516	0.216718	0.324879	5525.089772	26410.603747	3662.504351	11527.266452
66.536500	0.207201	0.112932	0.221877	0.330290	5501.854311	26249.647958	3662.086228	11421.203214
67.037000	0.211368	0.115291	0.224529	0.334921	5499.146234	26128.268722	3658.816541	11331.480430
67.534500	0.217377	0.118783	0.232301	0.340637	5500.853493	26010.121121	3662.213506	11222.043887
68.037500	0.216215	0.119241	0.236217	0.342068	5485.765684	25958.615197	3666.341145	11194.876570
68.535000	0.225130	0.122644	0.240032	0.348646	5499.360370	25791.331750	3661.751971	11071.115602
69.035500	0.226424	0.125500	0.245307	0.352739	5483.087004	25726.474320	3663.712774	10995.055892
69.536000	0.228185	0.126392	0.243744	0.358144	5462.063906	25491.516602	3652.239883	10895.708240
70.035500	0.232023	0.128170	0.248481	0.359952	5473.753056	25489.924067	3657.038376	10862.738278
70.535500	0.233212	0.129848	0.255344	0.362079	5468.346931	25466.696019	3664.871399	10824.149464
71.036500	0.234735	0.130716	0.254279	0.364286	5464.407991	25397.492880	3659.451333	10784.297476
71.536000	0.235859	0.132447	0.257809	0.371816	5427.831951	25100.324906	3652.882042	10649.844106
72.036000	0.240430	0.133760	0.253136	0.373946	5441.700212	25058.744981	3641.843868	10612.219679
72.536500	0.244103	0.134261	0.260032	0.374210	5461.213438	25070.875018	3652.602474	10607.585790
73.034500	0.245083	0.137513	0.259016	0.378267	5443.597398	25029.911119	3644.359006	10536.482736
73.535000	0.244788	0.136875	0.257200	0.383717	5411.043799	24723.168675	3632.718866	10442.030646
74.035500	0.248342	0.139060	0.263249	0.386149	5417.366451	24710.862013	3638.489041	10400.267937
74.538500	0.251913	0.141034	0.267456	0.386687	5434.545819	24782.777184	3644.392435	10391.063085
75.036000	0.253701	0.141916	0.263949	0.388175	5436.252090	24752.398761	3636.369631	10365.651271
75.536000	0.256560	0.143106	0.265233	0.390741	5437.919280	24683.551508	3634.325719	10322.039055
76.036500	0.257405	0.143643	0.267442	0.391791	5436.749930	24657.979583	3636.172705	10304.263597
76.537000	0.262438	0.146931	0.276622	0.396418	5439.057354	24591.214163	3643.479193	10226.444803
77.037000	0.262436	0.145016	0.271741	0.396144	5440.612337	24509.814810	3636.087359	10231.041482
77.537500	0.263265	0.147445	0.276603	0.398316	5432.965440	24522.526120	3640.392833	10194.766174
78.035000	0.260912	0.146390	0.278868	0.401677	5400.729439	24304.694764	3638.635479	10139.011880
78.535000	0.265964	0.147442	0.275982	0.400223	5437.473121	24428.061349	3636.344241	10163.077616
79.038000	0.265273	0.147964	0.273710	0.401055	5428.824468	24412.788631	3631.405248	10149.303544
79.536000	0.268314	0.148044	0.276240	0.402361	5438.678984	24352.368501	3633.348700	10127.720245
80.036000	0.268292	0.148799	0.283998	0.402751	5436.331144	24370.320254	3645.163302	10121.285846
80.536500	0.264876	0.148662	0.278848	0.402265	5419.725507	24387.511271	3637.661008	10129.300440
81.036500	0.271440	0.149544	0.283638	0.403981	5447.268594	24346.499068	3642.598726	10101.051902
81.537000	0.270093	0.149709	0.282756	0.404118	5438.807347	24347.897729	3640.958133	10098.797327
82.037500	0.266420	0.149668	0.284690	0.408570	5392.981206	24128.075929	3636.920953	10026.004767
82.535000	0.271933	0.151660	0.286875	0.406882	5433.549250	24307.898364	3643.138705	10053.508896
83.035000	0.272992	0.150677	0.288673	0.405323	5448.465563	24336.225368	3648.573109	10079.017479
83.535500	0.272232	0.149574	0.287194	0.405438	5443.473432	24276.451055	3645.989081	10077.141142
84.035500	0.272064	0.148876	0.298309	0.404808	5446.110213	24273.137811	3665.262306	10087.465716
84.535500	0.274180	0.149522	0.281445	0.405645	5453.421923	24263.747546	3636.410806	10073.746001
85.036000	0.274734	0.150450	0.297414	0.406280	5452.955705	24278.094054	3661.336551	10063.349595
85.536500	0.270444	0.149664	0.289451	0.409708	5409.155507	24072.573535	3642.734938	10007.515496
86.037000	0.271806	0.150730	0.294201	0.412236	5402.610616	24001.726755	3646.326574	9966.630961
86.537000	0.275914	0.150761	0.290077	0.407575	5452.300647	24229.896833	3647.196455	10042.205620
87.034500	0.275791	0.150168	0.296830	0.406676	5456.748693	24244.926201	3659.716856	10056.886050
87.535000	0.273525	0.148390	0.287802	0.409831	5425.855119	24004.890456	3639.885681	10005.526748
88.035000	0.272126	0.150873	0.294237	0.412701	5401.794685	23986.164253	3645.630174	9959.127767
88.538000	0.276247	0.151132	0.293741	0.408328	5449.896086	24211.255189	3651.933271	10029.942111
89.035500	0.276768	0.150149	0.297917	0.408420	5452.352724	24158.777242	3658.632388	10028.445266
89.536500	0.275564	0.150437	0.293757	0.407412	5451.229225	24222.085735	3653.456810	10044.868718
90.037000	0.271722	0.150358	0.292113	0.413256	5396.422850	23934.495474	3641.309896	9950.195327
90.537000	0.279300	0.152102	0.291096	0.409348	5461.550058	24208.840981	3645.974277	10013.367533
91.036500	0.279595	0.150823	0.298437	0.408287	5469.352295	24198.175450	3659.709488	10030.604997
91.536000	0.278087	0.150005	0.296559	0.408407	5459.985984	24152.403973	3656.419885	10028.659532
92.038000	0.276415	0.151316	0.292152	0.408651	5449.014047	24204.461964	3648.818491	10024.691537
92.535000	0.279345	0.151395	0.301407	0.409756	5459.463045	24154.410109	3662.191421	10006.741582
93.035500	0.279028	0.151127	0.301259	0.409922	5456.698741	24133.301266	3661.673304	10004.056886
93.535500	0.275846	0.150280	0.288929	0.408970	5443.940194	24138.399673	3643.083328	10019.501484
94.036000	0.278997	0.152282	0.298773	0.410462	5453.422763	24163.234757	3656.681793	9995.301379
94.536500	0.277475	0.151840	0.296594	0.411076	5441.219419	24111.840308	3652.104652	9985.366860
95.036500	0.278440	0.151290	0.299767	0.409951	5453.163517	24139.845246	3659.158992	10003.588080
95.536500	0.277251	0.150227	0.296868	0.409807	5447.183315	24095.112570	3654.629774	10005.922698
96.037000	0.276338	0.151937	0.288743	0.412005	5429.476166	24071.402146	3637.909919	9970.358401
