sample name	sample
index	129
start time	 02-15-2021  01:12:23 PM
880	0.404933
Peak Time (s)	92.035
Peak Height 	0.4049
calc peak height	90,93
Baseline Time (s)	10.536
Baseline Value 	-1.9138E-4
subtract baseline	10,4
Abs	0.285031
Peak Time (s)	90.034
Peak Height 	0.285
calc peak height	90,93
Baseline Time (s)	8.537
Baseline Value 	0.004688
subtract baseline	10,3
PK_550	0.134029
Peak Time (s)	90.538
Peak Height 	0.134
calc peak height	90,93
Baseline Time (s)	11.035
Baseline Value 	0.002494
subtract baseline	10,2
PK_880	0.262189
Peak Time (s)	91.038
Peak Height 	0.2622
calc peak height	90,93
Baseline Time (s)	11.536
Baseline Value 	0.003239
subtract baseline	10,1


Time (s)	A880-A510	A880-A775	A880-A975	A880	I510	I775	I975	I880	
0.037500	-0.004338	-0.002569	-0.015749	0.001171	4272.694607	15768.425200	3254.423331	8919.659126
0.535000	-0.004600	-0.002146	0.000400	0.002600	4267.839930	15739.046028	3264.009800	8900.221987
1.038000	-0.003946	-0.003236	-0.004174	0.000615	4275.425758	15765.166028	3262.299405	8927.236406
1.536500	-0.002244	-0.000649	-0.010912	0.000201	4281.543265	15853.326652	3258.166741	8932.894394
2.036000	-0.006195	-0.003959	-0.009283	0.001502	4266.412619	15718.173649	3258.379589	8915.153771
2.539000	-0.002961	-0.001419	0.003650	-0.001274	4283.745845	15874.157155	3268.766894	8953.082465
3.036000	0.000723	-0.001545	-0.004958	-0.003527	4301.099921	15937.062886	3264.519121	8984.033687
3.537000	-0.001949	-0.001104	-0.017379	-0.000491	4284.407671	15860.308148	3254.443695	8942.350989
4.037000	-0.001116	-0.002299	-0.000388	0.001993	4279.623302	15752.306402	3263.889734	8908.470789
4.534500	-0.001986	-0.001145	0.003132	-0.000066	4283.067318	15846.614287	3267.607443	8936.548558
5.034500	-0.002618	-0.000523	-0.015091	-0.000752	4283.225376	15885.171083	3256.080827	8945.928059
5.534500	-0.003771	-0.001947	-0.003541	-0.001235	4281.281895	15857.408872	3263.939172	8952.544715
6.038500	-0.002348	-0.002311	0.000778	-0.001319	4285.653703	15849.152825	3266.869644	8953.687748
6.535500	-0.001089	-0.001113	-0.001383	-0.000096	4285.761067	15848.419555	3264.614692	8936.954284
7.036000	0.000214	-0.000520	0.013505	0.000044	4289.146139	15861.770951	3274.571188	8935.035352
7.535500	-0.003208	-0.000298	-0.010519	0.000290	4278.497827	15861.049986	3258.364114	8931.680278
8.036000	0.001718	-0.000584	-0.011191	0.000007	4293.650807	15860.985222	3258.111588	8935.551626
8.537000	-0.002131	-0.001889	0.000000	-0.000900	4285.069695	15849.238976	3266.070081	8947.952726
9.037500	0.001777	0.000557	-0.000446	0.000734	4291.697147	15873.193464	3264.686370	8925.624415
9.534500	0.001383	0.000058	0.019201	0.000854	4290.195673	15854.925797	3277.945534	8923.985715
10.035000	0.003069	-0.001792	-0.003990	-0.000054	4297.786788	15827.206872	3262.862295	8936.380737
10.535500	-0.003010	0.000015	0.003785	0.000000	4279.908241	15878.858494	3268.001139	8935.641597
11.035000	-0.000289	0.000000	0.010813	0.000964	4285.005711	15849.985136	3272.101649	8922.485172
11.536000	0.000000	-0.000754	-0.017880	-0.000529	4290.195229	15871.782260	3254.148049	8942.877161
12.036500	-0.004293	-0.001944	-0.005230	0.003682	4265.619514	15713.355249	3259.598461	8885.542252
12.536500	0.000270	-0.000860	-0.005712	0.000611	4287.659735	15835.063691	3261.291573	8927.298042
13.036500	-0.001058	0.000818	-0.004886	-0.000775	4287.826538	15925.525328	3262.746516	8946.238551
13.537000	-0.000378	-0.000285	0.000574	0.000560	4285.919668	15853.476324	3265.479615	8927.993265
14.034500	-0.000773	-0.000054	0.002749	0.006091	4268.802011	15698.234932	3263.254563	8852.990229
14.534500	-0.004562	-0.000811	-0.002636	0.002421	4268.457832	15783.316323	3262.123067	8902.642757
15.035000	0.003349	0.000097	-0.008099	0.001826	4293.099062	15827.446687	3258.938279	8910.736852
15.543000	0.004011	-0.000068	0.010970	0.000184	4299.858336	15870.971078	3272.740503	8933.131367
16.036000	-0.001440	-0.001066	0.004245	0.004247	4272.181895	15722.461680	3265.469252	8877.888535
16.536000	-0.002597	-0.000025	-0.004965	0.000965	4278.312595	15849.235369	3261.550107	8922.473082
17.036500	0.001145	-0.000412	0.012845	0.000154	4291.541955	15861.702542	3274.043379	8933.535382
17.536500	-0.000600	-0.000300	0.004757	-0.001970	4292.653596	15927.854739	3269.983288	8962.630659
18.037000	-0.002433	0.000470	-0.000887	0.003434	4271.663848	15791.169516	3262.608272	8888.893805
18.537000	-0.000971	0.000372	-0.007694	0.002615	4278.241002	15812.347738	3258.688834	8900.010852
19.037500	-0.000709	-0.000189	0.013126	0.002512	4279.297404	15798.916325	3272.623295	8901.417032
19.534500	0.003325	0.000689	0.003307	0.003191	4289.042628	15804.733243	3265.547764	8892.195874
20.038000	0.000181	-0.000783	0.008882	0.004527	4276.045587	15722.554369	3268.384163	8874.096932
20.535500	-0.000704	-0.001555	-0.005738	0.001218	4283.060945	15796.796900	3260.876773	8919.019673
21.035500	0.003068	-0.000375	0.003010	0.002801	4289.429299	15784.941560	3265.609149	8897.482575
21.536000	0.000820	-0.000178	-0.008309	0.002443	4283.930533	15801.237313	3258.400624	8902.347066
22.036500	0.000385	-0.000507	-0.011084	0.002453	4282.638058	15791.296574	3256.597740	8902.209566
22.536500	0.002550	0.000349	0.006486	0.002807	4287.903220	15806.049799	3267.929840	8897.411766
23.037000	0.000721	-0.000241	-0.011183	0.002484	4283.521728	15798.180400	3256.513823	8901.787083
23.537000	-0.000846	0.001100	0.001452	0.004273	4273.817859	15785.054629	3263.598374	8877.535569
24.035000	0.001198	0.000174	0.007484	0.002989	4283.440846	15795.529161	3268.477858	8894.930055
24.535000	0.000616	-0.000573	0.022202	0.002258	4283.872725	15795.076997	3279.055771	8904.859068
25.035500	-0.002529	-0.000831	-0.013733	0.002185	4274.982910	15789.659764	3255.065491	8905.852541
25.535500	0.000440	0.000252	-0.000745	0.003491	4279.789463	15783.101136	3262.663649	8888.119769
26.035500	-0.000819	-0.000338	-0.004243	0.003454	4276.259377	15766.921472	3260.391638	8888.630780
26.536500	-0.003180	0.000300	0.003171	0.003755	4268.599190	15776.799149	3265.082390	8884.552178
27.036000	-0.000322	-0.000123	0.016694	0.003445	4277.720780	15773.477098	3274.426179	8888.754983
27.536500	0.005037	0.001694	0.010564	0.004153	4291.229891	15805.985474	3269.769682	8879.154900
28.037000	0.005392	-0.000399	-0.003188	-0.000332	4305.448062	15876.423833	3263.575531	8940.180313
28.537500	0.003626	0.003076	-0.008573	0.004346	4286.554419	15840.949568	3256.996996	8876.541104
29.051000	0.000282	-0.001034	-0.001314	0.001198	4285.986567	15812.666326	3263.803407	8919.295514
29.538000	0.000937	-0.000942	0.000265	0.000628	4289.553215	15832.140337	3265.228672	8927.062031
30.035500	-0.009649	-0.001285	0.010369	0.007118	4240.707031	15632.647528	3267.642680	8839.158706
30.535500	0.004210	0.000835	0.001133	0.002659	4293.181426	15824.652313	3264.456687	8899.417240
31.036000	0.002078	0.000835	0.005101	0.002107	4288.565293	15840.901081	3267.469957	8906.914989
31.536500	-0.002553	-0.000692	0.012828	0.003773	4270.344642	15747.244616	3271.561222	8884.303772
32.036500	0.001063	0.000288	-0.001606	0.007822	4269.103354	15657.843204	3259.262018	8829.707672
32.537500	0.001121	0.001190	0.001802	0.003247	4282.470020	15817.812670	3264.510032	8891.440490
33.045000	0.000895	-0.000395	0.000951	0.002420	4284.213496	15795.534672	3264.493954	8902.658490
33.537000	0.001048	0.000908	-0.001725	0.002836	4283.450728	15821.618417	3262.450490	8897.014853
34.035000	-0.000366	-0.000283	0.000595	0.008130	4264.126242	15632.349576	3260.497502	8825.574384
34.538000	0.001722	0.000882	-0.003470	0.003437	4283.661307	15803.175920	3260.908997	8888.853768
35.035500	0.003606	0.001800	0.002585	0.001889	4293.667111	15875.800593	3265.934316	8909.884278
35.536000	-0.004722	0.000276	0.012200	0.004725	4261.414459	15747.727304	3270.489527	8871.427999
36.036500	0.000444	0.000161	-0.011853	0.006172	4272.065291	15702.127232	3253.717084	8851.895985
36.536500	0.003188	0.000624	0.025443	0.005574	4281.715256	15733.057484	3279.003630	8859.951037
37.037000	-0.000333	0.000401	0.008171	0.005220	4272.569603	15736.894761	3267.441330	8864.734157
37.534000	0.006098	0.000882	0.012065	0.006155	4288.484461	15723.643561	3269.431586	8852.121020
38.034500	0.004857	0.001401	-0.002038	0.007273	4281.629730	15706.169790	3259.338430	8837.080285
38.535000	0.002490	0.001122	0.011767	0.006027	4278.383496	15734.361827	3269.316185	8853.843016
39.037000	-0.000792	0.000998	0.009121	0.006283	4268.195572	15723.281614	3267.365745	8850.398872
39.535500	0.000234	-0.000378	-0.004199	0.004520	4276.219949	15734.581939	3259.724088	8874.197283
40.035500	0.003930	-0.000600	0.004785	0.007485	4278.331716	15641.844048	3263.678314	8834.224850
40.536000	-0.002681	-0.000962	-0.006361	0.004354	4268.312176	15722.381754	3258.425188	8876.440814
41.036500	0.003178	0.001463	0.016201	0.005872	4280.824619	15748.869102	3272.428779	8855.942311
41.536500	0.005791	0.001190	0.019628	0.006153	4287.595504	15732.669773	3274.580948	8852.148722
42.036500	-0.001847	0.000571	0.000091	0.006775	4263.765907	15696.503016	3261.054764	8843.775662
42.537000	0.003334	0.001723	0.000637	0.006074	4280.690475	15750.565202	3261.873399	8853.214210
43.034500	0.005475	0.000680	0.009927	0.005843	4287.577174	15726.821489	3268.201594	8856.322169
43.535000	0.001636	0.002232	0.006330	0.007045	4272.981423	15737.064849	3264.994858	8840.140386
44.035500	0.002224	-0.000848	-0.004387	0.004826	4281.090980	15711.943660	3259.402070	8870.056052
44.536000	0.001618	-0.000954	-0.008224	0.004166	4281.248050	15728.091426	3257.338999	8878.983985
45.036000	0.004178	0.002454	0.010722	0.006059	4283.179871	15772.394186	3268.591003	8853.418547
45.536000	0.003469	-0.000470	0.015006	0.003133	4289.633899	15772.469058	3273.483191	8892.985521
46.036500	0.000371	0.000421	0.005531	0.010088	4260.644231	15596.103552	3262.453124	8799.377917
46.566500	0.000320	0.000237	-0.011520	0.004040	4277.854628	15766.606785	3255.295398	8880.686215
47.037000	0.006230	0.001219	0.011504	0.003846	4295.618547	15801.053474	3270.613570	8883.313277
47.537500	0.002983	0.001711	0.003321	0.004548	4284.099016	15794.905920	3264.654283	8873.812010
48.036500	-0.002005	-0.000230	0.012086	0.010096	4253.865293	15577.078171	3266.798413	8799.264605
48.540000	0.005844	0.002428	0.001334	0.005877	4288.554325	15776.959221	3262.461989	8855.868463
49.035500	0.000589	-0.000321	-0.002123	0.004993	4275.879229	15722.454777	3260.771890	8867.802110
49.535500	0.002431	0.001828	0.007123	0.007378	4274.313079	15715.571335	3265.300419	8835.668782
50.036500	-0.002511	0.000492	0.009761	0.010431	4251.484843	15588.245304	3265.025137	8794.797178
50.536000	0.001807	0.001136	0.008792	0.004317	4281.356057	15784.821112	3268.464482	8876.940216
51.039000	0.004597	0.000951	0.012934	0.004480	4288.993368	15774.624610	3271.153101	8874.729710
51.537000	-0.001509	0.000804	0.003615	0.002730	4276.354192	15821.636270	3266.059788	8898.444763
52.037000	-0.000051	0.001024	-0.009255	0.008377	4264.323827	15663.110454	3253.968406	8822.266327
52.534500	0.002584	-0.000117	0.003335	0.006110	4278.414920	15695.837880	3263.628876	8852.725669
53.037500	-0.048194	-0.035377	-0.014594	0.313280	3573.448407	8799.664352	3112.255513	5885.665672
53.534500	-0.003135	-0.008139	-0.001819	0.062095	4112.102019	13963.331184	3225.906690	8144.948862
54.036000	0.019672	-0.009822	0.032679	-0.019761	4408.974778	16175.305796	3302.573619	9211.922326
54.536000	0.009316	-0.008705	0.016838	-0.044544	4455.800996	16981.696520	3309.359597	9576.675147
55.036000	0.009153	-0.003950	0.011714	0.040423	4200.706295	14632.744428	3246.977395	8408.166598
55.536500	0.023655	0.001104	0.026130	0.030609	4268.541233	15036.021135	3262.503544	8531.745576
56.036500	0.045526	0.007758	0.052262	-0.010006	4461.328912	16413.905508	3310.039695	9073.970584
56.536500	0.072176	0.017380	0.079317	0.039473	4387.660219	15242.303323	3293.248541	8420.011900
57.037500	0.090155	0.023530	0.083577	0.099122	4262.782580	13829.557377	3255.305847	7724.546039
57.534500	0.107648	0.033587	0.108079	0.129314	4227.046385	13341.322107	3251.675136	7407.303314
58.038000	0.120133	0.043504	0.134960	0.164026	4166.962051	12770.396472	3246.754924	7068.807993
58.535000	0.139854	0.054260	0.165339	0.194626	4138.653083	12336.374140	3246.617351	6792.036951
59.035500	0.158879	0.063929	0.161778	0.224343	4111.515590	11917.583711	3226.683186	6541.294913
59.536000	0.172208	0.074824	0.173810	0.255788	4067.033556	11507.888086	3215.740496	6293.999875
60.036000	0.176123	0.081615	0.192007	0.284702	4008.616708	11087.979845	3209.905252	6081.881365
60.536500	0.190139	0.088815	0.199799	0.294197	4018.935613	11045.650683	3208.992165	6015.255964
61.036500	0.201768	0.096672	0.198200	0.305916	4018.725677	10974.872202	3201.966365	5934.995404
61.537000	0.207061	0.098499	0.222899	0.317547	4004.297618	10798.060538	3208.858276	5857.459248
62.034500	0.214779	0.106592	0.232167	0.345219	3960.216978	10456.629173	3199.211336	5681.110633
62.537500	0.222991	0.112340	0.236280	0.352336	3962.583100	10433.330538	3197.675471	5637.543747
63.035500	0.239275	0.118032	0.249212	0.363061	3974.693359	10348.306788	3198.802990	5573.227033
63.535000	0.238983	0.118351	0.260375	0.375283	3947.653249	10151.062604	3198.261428	5501.840921
64.036000	0.247787	0.121946	0.251535	0.363878	3991.710222	10400.505076	3199.575492	5568.391993
64.535000	0.249610	0.126390	0.237743	0.350741	4025.672308	10704.054138	3199.239652	5647.250826
65.035500	0.250147	0.130596	0.232334	0.353846	4019.758215	10723.478691	3194.912919	5628.397491
65.640000	0.245570	0.127056	0.248509	0.351619	4014.377091	10700.307498	3204.371438	5641.902100
66.037000	0.250125	0.131001	0.238191	0.362059	4001.029595	10586.797185	3193.730178	5579.167056
66.536500	0.242055	0.128963	0.244448	0.356183	3996.099076	10653.663444	3199.888353	5614.290640
67.037500	0.245232	0.128906	0.254513	0.358691	3997.599759	10608.907769	3203.811922	5599.243076
67.538000	0.241329	0.126208	0.262180	0.357196	3992.211076	10588.008840	3208.660679	5608.203554
68.035000	0.239302	0.127902	0.242881	0.362131	3976.792279	10531.993838	3196.053951	5578.740602
68.535500	0.249107	0.128371	0.245261	0.361671	3999.611770	10548.005189	3197.494847	5581.471834
69.036000	0.248905	0.128153	0.248551	0.363009	3996.154463	10521.217125	3198.491559	5573.537465
69.536000	0.246334	0.131889	0.252617	0.366829	3981.932833	10519.763971	3198.617116	5551.004939
70.036500	0.245017	0.132484	0.248583	0.376437	3958.105212	10366.403671	3191.744277	5495.203750
70.537000	0.248038	0.132754	0.262996	0.370447	3977.717650	10472.587826	3202.104161	5529.850225
71.037000	0.245125	0.129268	0.249553	0.368515	3975.560180	10446.085298	3196.199717	5541.123844
71.537500	0.256846	0.133666	0.255517	0.374563	3988.090460	10418.050899	3196.157268	5505.991806
72.038000	0.247709	0.130728	0.254299	0.374845	3967.378240	10363.642879	3195.399329	5504.366670
72.535000	0.255745	0.134184	0.256485	0.376668	3980.988489	10391.168809	3195.582500	5493.876833
73.035500	0.253108	0.133123	0.236485	0.376328	3975.934054	10378.996950	3185.879959	5495.829608
73.535500	0.254308	0.132764	0.252841	0.375136	3981.199513	10393.080718	3194.518999	5502.691210
74.036000	0.250372	0.130384	0.269143	0.376231	3970.157959	10334.560174	3202.292738	5496.385979
74.536500	0.253419	0.134613	0.277529	0.379337	3970.031819	10353.431508	3205.056650	5478.603906
75.036500	0.251363	0.135502	0.257860	0.381288	3961.331040	10335.596303	3193.950997	5467.499492
75.536500	0.255764	0.134853	0.256715	0.381965	3969.413967	10313.393635	3193.039717	5463.656030
76.037500	0.254085	0.133022	0.257270	0.381835	3966.044014	10285.017869	3193.381944	5464.392374
76.535000	0.253109	0.131089	0.243614	0.381259	3965.173387	10262.449427	3186.943305	5467.660004
77.035000	0.252930	0.134911	0.268186	0.384532	3957.712761	10271.572741	3197.527605	5449.140473
77.535500	0.254863	0.135212	0.261428	0.385586	3959.605845	10259.062720	3193.584877	5443.203368
78.035500	0.249101	0.132853	0.266812	0.385984	3946.413048	10213.478818	3196.093629	5440.970605
78.535500	0.257963	0.134737	0.297928	0.388375	3960.279727	10205.119187	3211.117670	5427.572633
79.036000	0.256126	0.133956	0.260182	0.386657	3960.023693	10220.568914	3192.429557	5437.192177
79.536000	0.256744	0.132770	0.252791	0.387487	3959.562712	10187.359257	3188.378039	5432.535635
80.036500	0.259500	0.134020	0.257252	0.396041	3947.141279	10068.378685	3186.389057	5385.108682
80.536000	0.254522	0.135014	0.259498	0.389448	3950.586431	10192.031740	3190.707682	5421.584661
81.037000	0.260157	0.134069	0.269746	0.390368	3960.713089	10161.413392	3195.361011	5416.457900
81.537500	0.254554	0.132855	0.265760	0.391011	3947.318210	10131.088638	3193.039114	5412.883870
82.037500	0.251316	0.129828	0.274961	0.394427	3933.260814	10026.871178	3195.944489	5393.987070
82.535500	0.258355	0.132551	0.266329	0.391561	3954.267855	10117.193433	3193.048806	5409.833545
83.036000	0.258145	0.133334	0.290766	0.392886	3950.979525	10108.370763	3204.892103	5402.492307
83.536000	0.262309	0.130030	0.257443	0.390935	3964.143814	10086.442590	3188.966629	5413.309302
84.036500	0.255437	0.133580	0.286957	0.399904	3930.422546	9999.217769	3199.265128	5363.991752
84.536500	0.259333	0.132656	0.251473	0.394235	3950.636877	10075.528492	3184.477002	5395.047021
85.036500	0.260557	0.132844	0.255685	0.394779	3952.088794	10069.767934	3186.241793	5392.047562
85.537000	0.258575	0.130749	0.261574	0.393965	3949.593371	10049.105432	3189.506229	5396.533907
86.040000	0.255300	0.132996	0.254252	0.402387	3924.962961	9950.349333	3181.917986	5350.523842
86.535000	0.258526	0.131348	0.266036	0.395102	3947.066326	10040.449334	3191.144343	5390.271813
87.035000	0.263835	0.133108	0.257768	0.397555	3953.164219	10029.302635	3185.906778	5376.808776
87.535500	0.256918	0.134707	0.266297	0.399666	3934.023433	10021.079584	3189.026740	5365.290723
88.035500	0.263847	0.135335	0.275625	0.399951	3948.070553	10026.593094	3193.501097	5363.738381
88.536000	0.256038	0.132038	0.270802	0.396871	3938.050074	10023.106411	3192.631751	5380.557333
89.036000	0.260284	0.134656	0.245368	0.399796	3940.837996	10018.177012	3178.961074	5364.582806
89.536500	0.261336	0.132028	0.269734	0.398430	3945.964122	9997.962389	3191.327291	5372.027099
90.034000	0.261570	0.130961	0.285031	0.400303	3942.487101	9951.122941	3198.075622	5361.825345
90.537500	0.259967	0.134029	0.272512	0.401427	3936.728645	9982.050226	3191.218879	5355.719639
91.037500	0.262189	0.132755	0.262212	0.401762	3940.709336	9956.427105	3186.021508	5353.904693
91.535000	0.258229	0.132179	0.264429	0.401451	3933.029780	9952.240387	3187.245493	5355.593481
92.035000	0.257190	0.128386	0.252177	0.404933	3923.602153	9837.622754	3179.742751	5336.788004
92.535500	0.256781	0.131577	0.254579	0.401781	3929.308089	9937.437851	3182.359847	5353.801998
93.035500	0.257482	0.129922	0.294933	0.400895	3932.629127	9925.264986	3202.879676	5358.609123
93.536000	0.259161	0.131623	0.272354	0.403044	3931.644268	9918.163995	3190.342681	5346.968822
94.036500	0.257139	0.130033	0.241265	0.402145	3929.295835	9907.252808	3175.973417	5351.829702
94.536500	0.265830	0.133166	0.272837	0.405285	3940.957762	9907.139044	3189.477826	5334.891481
95.037000	0.257056	0.129929	0.267636	0.402600	3928.176042	9898.445481	3188.247610	5349.371453
95.537000	0.255394	0.127457	0.279721	0.401880	3926.212847	9870.881666	3194.587149	5353.266203
96.034500	0.260299	0.130082	0.256714	0.405121	3929.679838	9861.220421	3181.789210	5335.774979
96.552500	0.258296	0.126284	0.262549	0.400949	3934.221957	9867.079857	3186.577186	5358.312921
97.035500	0.261136	0.130280	0.246162	0.404120	3933.528707	9880.048633	3177.321308	5341.165337
97.535500	0.257797	0.128659	0.268031	0.403468	3927.909434	9864.822022	3188.016498	5344.680679
98.035500	0.252528	0.126395	0.262273	0.408447	3906.798586	9752.158945	3182.847909	5317.959668
98.536000	0.257654	0.126327	0.258867	0.404630	3925.194390	9810.250964	3183.043629	5338.418073
99.036000	0.252936	0.124974	0.273603	0.402238	3920.374447	9826.437146	3191.357725	5351.330093
