sample name	sample
index	1157
start time	 04-22-2021  03:51:23 PM


Wavelength (nm)	Absorbance
494.344910	0.824413
494.563924	0.824413
494.782919	0.824413
495.001897	0.136605
495.220856	0.405227
495.439797	0.368831
495.658719	0.390580
495.877624	0.244874
496.096510	0.249798
496.315378	0.338033
496.534227	0.084047
496.753059	-0.050697
496.971872	0.087522
497.190667	0.160777
497.409444	0.158980
497.628203	0.160238
497.846943	0.158932
498.065665	0.160205
498.284369	0.159698
498.503055	0.161239
498.721723	0.161096
498.940372	0.160511
499.159003	0.160515
499.377616	0.162773
499.596210	0.162144
499.814787	0.162332
500.033345	0.161538
500.251885	0.161296
500.470406	0.159174
500.688910	0.159287
500.907395	0.159957
501.125862	0.161092
501.344311	0.159943
501.562742	0.160192
501.781154	0.161464
501.999548	0.162757
502.217924	0.163244
502.436282	0.163828
502.654621	0.164742
502.872942	0.164329
503.091245	0.162514
503.309530	0.162431
503.527797	0.162364
503.746045	0.162200
503.964275	0.160725
504.182487	0.161321
504.400681	0.163073
504.618856	0.162815
504.837013	0.163363
505.055152	0.164561
505.273273	0.164990
505.491376	0.165626
505.709460	0.164797
505.927526	0.165521
506.145574	0.165137
506.363604	0.164831
506.581615	0.164715
506.799608	0.164591
507.017583	0.165297
507.235540	0.165427
507.453478	0.166051
507.671399	0.166063
507.889301	0.168007
508.107185	0.167492
508.325050	0.167850
508.542898	0.168692
508.760727	0.168991
508.978538	0.168645
509.196330	0.168546
509.414105	0.168430
509.631861	0.169410
509.849599	0.167845
510.067319	0.168831
510.285021	0.169137
510.502704	0.169166
510.720369	0.169086
510.938016	0.169135
511.155645	0.169347
511.373255	0.169248
511.590848	0.169674
511.808422	0.170107
512.025977	0.170757
512.243515	0.170517
512.461034	0.171441
512.678536	0.171698
512.896018	0.171216
513.113483	0.170853
513.330930	0.170754
513.548358	0.170322
513.765768	0.170800
513.983160	0.170878
514.200533	0.170838
514.417889	0.170176
514.635226	0.170996
514.852545	0.172012
515.069845	0.173778
515.287128	0.173960
515.504392	0.174190
515.721638	0.174259
515.938866	0.173764
516.156075	0.174744
516.373267	0.175653
516.590440	0.175991
516.807594	0.176612
517.024731	0.176449
517.241850	0.177294
517.458950	0.178076
517.676032	0.178881
517.893095	0.179779
518.110141	0.179519
518.327168	0.179078
518.544177	0.179854
518.761168	0.179637
518.978141	0.179342
519.195095	0.179265
519.412031	0.179016
519.628949	0.178384
519.845849	0.177768
520.062731	0.178055
520.279594	0.179170
520.496439	0.179435
520.713266	0.180182
520.930074	0.180268
521.146865	0.180728
521.363637	0.182033
521.580391	0.182350
521.797127	0.183298
522.013844	0.183289
522.230543	0.182207
522.447224	0.181643
522.663887	0.181781
522.880532	0.182131
523.097158	0.182494
523.313766	0.182019
523.530356	0.183143
523.746928	0.183309
523.963481	0.183801
524.180017	0.184689
524.396534	0.185584
524.613032	0.185841
524.829513	0.185370
525.045975	0.185538
525.262420	0.186501
525.478845	0.186973
525.695253	0.187377
525.911643	0.187382
526.128014	0.187966
526.344367	0.187147
526.560702	0.187356
526.777018	0.188979
526.993316	0.190105
527.209597	0.190129
527.425858	0.189867
527.642102	0.190616
527.858328	0.192040
528.074535	0.192393
528.290724	0.194086
528.506894	0.194998
528.723047	0.195874
528.939181	0.195219
529.155297	0.195628
529.371395	0.195237
529.587475	0.195835
529.803536	0.195736
530.019579	0.196091
530.235604	0.196785
530.451611	0.196554
530.667600	0.196163
530.883570	0.196418
531.099522	0.195934
531.315456	0.197698
531.531372	0.197442
531.747269	0.197703
531.963148	0.198588
532.179009	0.197808
532.394852	0.197622
532.610676	0.197911
532.826482	0.198779
533.042271	0.199760
533.258040	0.199073
533.473792	0.199202
533.689525	0.199641
533.905240	0.199074
534.120937	0.199636
534.336616	0.200646
534.552277	0.201450
534.767919	0.201607
534.983543	0.201579
535.199149	0.202246
535.414736	0.203456
535.630306	0.203427
535.845857	0.203750
536.061390	0.204240
536.276904	0.204581
536.492401	0.204176
536.707879	0.204561
536.923339	0.205343
537.138781	0.205312
537.354204	0.205021
537.569610	0.206300
537.784997	0.207413
538.000366	0.207624
538.215716	0.207976
538.431049	0.208322
538.646363	0.208514
538.861659	0.209531
539.076937	0.210449
539.292196	0.210737
539.507438	0.210785
539.722661	0.210602
539.937866	0.210980
540.153052	0.210965
540.368221	0.211766
540.583371	0.212328
540.798503	0.211660
541.013617	0.211908
541.228712	0.212237
541.443789	0.212260
541.658848	0.212782
541.873889	0.213448
542.088912	0.214120
542.303916	0.214384
542.518902	0.214662
542.733870	0.215516
542.948820	0.215986
543.163752	0.216118
543.378665	0.216111
543.593560	0.216852
543.808437	0.216884
544.023295	0.217265
544.238136	0.217851
544.452958	0.218670
544.667762	0.218949
544.882548	0.219047
545.097315	0.219818
545.312064	0.220146
545.526795	0.220114
545.741508	0.220360
545.956203	0.220212
546.170879	0.220668
546.385537	0.220590
546.600177	0.220652
546.814799	0.221317
547.029402	0.221682
547.243988	0.222883
547.458555	0.222762
547.673103	0.223148
547.887634	0.223792
548.102146	0.223538
548.316640	0.224050
548.531116	0.224527
548.745574	0.224544
548.960013	0.224782
549.174435	0.224488
549.388838	0.224827
549.603222	0.224824
549.817589	0.225197
550.031937	0.225802
550.246267	0.225488
550.460579	0.225340
550.674873	0.225575
550.889148	0.225044
551.103405	0.225226
551.317644	0.225705
551.531865	0.226110
551.746068	0.226150
551.960252	0.226179
552.174418	0.227021
552.388566	0.227430
552.602696	0.228104
552.816807	0.228541
553.030900	0.228420
553.244975	0.229010
553.459032	0.229399
553.673070	0.229771
553.887091	0.229958
554.101093	0.229667
554.315077	0.229927
554.529042	0.229235
554.742990	0.230061
554.956919	0.230376
555.170830	0.230390
555.384722	0.230114
555.598597	0.229710
555.812453	0.229801
556.026291	0.230233
556.240111	0.230819
556.453913	0.231089
556.667696	0.231270
556.881461	0.231549
557.095208	0.231285
557.308937	0.231842
557.522647	0.232636
557.736339	0.232293
557.950013	0.232337
558.163669	0.232119
558.377307	0.232368
558.590926	0.232244
558.804527	0.232210
559.018110	0.232563
559.231675	0.232186
559.445221	0.232445
559.658749	0.232991
559.872259	0.233074
560.085751	0.232915
560.299225	0.233172
560.512680	0.233250
560.726117	0.233600
560.939536	0.233575
561.152937	0.234201
561.366319	0.234153
561.579683	0.234103
561.793029	0.233976
562.006357	0.234530
562.219667	0.234395
562.432958	0.234683
562.646231	0.234632
562.859486	0.235370
563.072723	0.235404
563.285941	0.235642
563.499141	0.236208
563.712323	0.236920
563.925487	0.236904
564.138632	0.237227
564.351760	0.237737
564.564869	0.238289
564.777960	0.237860
564.991032	0.238617
565.204087	0.238757
565.417123	0.239019
565.630141	0.238862
565.843140	0.238876
566.056122	0.239390
566.269085	0.238847
566.482030	0.239164
566.694957	0.239287
566.907866	0.239156
567.120756	0.239083
567.333628	0.239193
567.546482	0.239206
567.759318	0.239681
567.972135	0.239531
568.184935	0.239891
568.397716	0.239531
568.610478	0.240009
568.823223	0.239959
569.035949	0.240331
569.248657	0.240249
569.461347	0.240738
569.674019	0.240852
569.886672	0.241333
570.099308	0.241899
570.311925	0.242017
570.524523	0.242224
570.737104	0.242164
570.949666	0.242177
571.162210	0.242393
571.374736	0.242330
571.587244	0.242917
571.799733	0.243021
572.012205	0.242993
572.224658	0.243305
572.437092	0.243109
572.649509	0.243113
572.861907	0.243409
573.074287	0.243371
573.286649	0.243622
573.498993	0.243122
573.711318	0.243226
573.923625	0.243029
574.135914	0.243281
574.348185	0.243775
574.560438	0.244618
574.772672	0.244659
574.984888	0.244973
575.197086	0.245238
575.409266	0.245594
575.621427	0.245805
575.833570	0.245735
576.045695	0.245955
576.257802	0.246054
576.469890	0.245744
576.681961	0.245931
576.894013	0.246435
577.106046	0.246485
577.318062	0.246782
577.530059	0.246534
577.742039	0.247163
577.954000	0.247131
578.165942	0.247022
578.377867	0.246933
578.589773	0.246977
578.801661	0.246620
579.013531	0.246521
579.225382	0.246331
579.437216	0.246433
579.649031	0.246388
579.860828	0.246221
580.072606	0.246531
580.284367	0.246816
580.496109	0.246672
580.707833	0.247089
580.919539	0.247494
581.131227	0.247974
581.342896	0.248692
581.554547	0.249113
581.766180	0.249585
581.977795	0.249891
582.189391	0.249815
582.400969	0.250437
582.612529	0.250458
582.824071	0.250500
583.035595	0.250687
583.247100	0.250689
583.458587	0.250915
583.670056	0.251226
583.881506	0.251451
584.092939	0.251988
584.304353	0.251762
584.515749	0.251923
584.727127	0.251920
584.938486	0.252108
585.149828	0.252167
585.361151	0.252140
585.572456	0.252096
585.783742	0.252032
585.995011	0.252738
586.206261	0.253278
586.417493	0.253474
586.628706	0.253740
586.839902	0.253838
587.051079	0.254101
587.262238	0.254585
587.473379	0.254815
587.684502	0.254707
587.895606	0.254321
588.106692	0.254540
588.317760	0.255091
588.528810	0.255344
588.739841	0.255840
588.950855	0.256014
589.161850	0.255960
589.372827	0.256494
589.583785	0.257168
589.794726	0.257838
590.005648	0.257965
590.216552	0.257491
590.427437	0.257683
590.638305	0.257384
590.849154	0.257348
591.059985	0.257219
591.270798	0.257360
591.481592	0.257240
591.692369	0.257287
591.903127	0.257736
592.113867	0.258254
592.324588	0.258436
592.535292	0.259082
592.745977	0.259383
592.956644	0.259952
593.167293	0.259799
593.377923	0.259890
593.588536	0.260169
593.799130	0.260232
594.009706	0.260523
594.220263	0.260695
594.430803	0.260766
594.641324	0.261000
594.851827	0.261080
595.062312	0.261157
595.272778	0.261781
595.483227	0.261621
595.693657	0.261521
595.904069	0.261476
596.114462	0.261638
596.324838	0.261569
596.535195	0.261676
596.745534	0.261624
596.955855	0.262241
597.166157	0.262111
597.376441	0.262315
597.586707	0.262245
597.796955	0.262235
598.007185	0.262569
598.217396	0.262369
598.427589	0.262590
598.637764	0.262825
598.847921	0.262769
599.058060	0.262984
599.268180	0.263087
599.478282	0.263745
599.688366	0.264448
599.898431	0.264855
600.108479	0.265352
600.318508	0.265349
600.528519	0.265737
600.738511	0.265498
600.948486	0.265584
601.158442	0.265750
601.368380	0.265658
601.578300	0.265475
601.788202	0.265341
601.998085	0.265407
602.207950	0.265557
602.417797	0.265415
602.627626	0.265781
602.837436	0.266128
603.047228	0.266283
603.257002	0.266977
603.466758	0.267205
603.676496	0.267259
603.886215	0.267335
604.095916	0.267597
604.305599	0.267826
604.515264	0.268102
604.724910	0.268132
604.934538	0.268466
605.144148	0.268061
605.353740	0.268160
605.563314	0.268070
605.772869	0.268419
605.982406	0.268267
606.191925	0.268727
606.401425	0.268771
606.610908	0.269053
606.820372	0.269000
607.029818	0.269077
607.239246	0.269197
607.448655	0.270000
607.658047	0.270109
607.867420	0.270466
608.076775	0.270406
608.286111	0.270812
608.495430	0.270751
608.704730	0.271078
608.914012	0.271186
609.123275	0.271564
609.332521	0.271291
609.541748	0.271608
609.750957	0.271868
609.960148	0.271647
610.169321	0.271374
610.378475	0.271212
610.587611	0.270974
610.796729	0.271336
611.005829	0.271080
611.214910	0.271199
611.423974	0.271185
611.633019	0.271021
611.842045	0.271609
612.051054	0.272117
612.260044	0.273144
612.469017	0.273495
612.677970	0.273606
612.886906	0.273744
613.095824	0.274076
613.304723	0.273871
613.513604	0.274261
613.722467	0.274499
613.931311	0.274561
614.140138	0.274226
614.348946	0.274478
614.557736	0.274660
614.766507	0.274866
614.975261	0.275012
615.183996	0.275012
615.392713	0.275323
615.601412	0.275163
615.810092	0.275227
616.018754	0.275165
616.227399	0.275173
616.436024	0.275360
616.644632	0.275995
616.853222	0.275929
617.061793	0.276588
617.270346	0.276643
617.478880	0.276554
617.687397	0.276758
617.895895	0.277064
618.104375	0.277149
618.312837	0.277275
618.521281	0.277014
618.729706	0.277525
618.938113	0.277607
619.146502	0.277808
619.354873	0.278236
619.563226	0.278225
619.771560	0.278381
619.979876	0.278724
620.188174	0.278689
620.396453	0.279047
620.604715	0.279336
620.812958	0.279440
621.021183	0.279692
621.229390	0.279927
621.437578	0.280148
621.645748	0.280394
621.853900	0.280391
622.062034	0.280633
622.270150	0.280557
622.478247	0.280508
622.686326	0.280468
622.894387	0.280348
623.102430	0.280163
623.310454	0.280796
623.518461	0.280776
623.726449	0.280936
623.934418	0.281168
624.142370	0.281308
624.350303	0.281478
624.558218	0.281766
624.766115	0.282115
624.973994	0.282727
625.181855	0.282653
625.389697	0.282678
625.597521	0.282972
625.805327	0.283178
626.013114	0.283419
626.220883	0.283413
626.428634	0.283442
626.636367	0.283583
626.844082	0.283860
627.051778	0.283794
627.259457	0.284221
627.467117	0.284404
627.674758	0.284776
627.882382	0.285211
628.089987	0.285461
628.297574	0.286064
628.505143	0.286468
628.712694	0.286428
628.920226	0.286755
629.127740	0.286975
629.335236	0.287051
629.542714	0.286898
629.750174	0.286973
629.957615	0.287323
630.165038	0.287440
630.372443	0.287179
630.579829	0.287484
630.787198	0.287951
630.994548	0.288283
631.201880	0.288334
631.409194	0.288532
631.616489	0.288397
631.823766	0.288015
632.031025	0.288153
632.238266	0.288738
632.445489	0.288628
632.652693	0.288484
632.859879	0.288486
633.067047	0.288664
633.274197	0.288935
633.481329	0.289103
633.688442	0.289401
633.895537	0.289384
634.102614	0.289314
634.309672	0.289378
634.516713	0.289401
634.723735	0.289397
634.930739	0.289798
635.137724	0.289754
635.344692	0.289702
635.551641	0.290296
635.758572	0.290811
635.965485	0.290665
636.172379	0.290876
636.379256	0.291253
636.586114	0.291489
636.792954	0.291505
636.999775	0.291961
637.206579	0.292358
637.413364	0.292360
637.620131	0.292286
637.826880	0.292862
638.033610	0.293029
638.240323	0.293207
638.447017	0.293579
638.653692	0.293901
638.860350	0.293809
639.066990	0.294063
639.273611	0.294314
639.480214	0.294422
639.686798	0.294514
639.893365	0.294999
640.099913	0.295052
640.306443	0.295112
640.512955	0.295315
640.719449	0.295709
640.925924	0.296146
641.132381	0.296253
641.338820	0.296759
641.545241	0.296949
641.751644	0.296957
641.958028	0.296907
642.164394	0.297042
642.370742	0.297160
642.577071	0.297321
642.783383	0.297274
642.989676	0.297277
643.195951	0.297211
643.402207	0.297019
643.608446	0.297182
643.814666	0.297700
644.020868	0.297726
644.227052	0.297687
644.433218	0.298086
644.639365	0.298027
644.845494	0.298351
645.051605	0.298450
645.257698	0.298975
645.463772	0.299277
645.669828	0.299287
645.875866	0.299835
646.081886	0.300147
646.287888	0.300096
646.493871	0.300620
646.699836	0.300891
646.905783	0.300999
647.111712	0.301552
647.317622	0.301673
647.523514	0.302300
647.729388	0.302192
647.935244	0.302480
648.141082	0.302732
648.346901	0.303068
648.552702	0.303306
648.758485	0.303807
648.964250	0.303632
649.169996	0.303747
649.375724	0.303861
649.581434	0.304286
649.787126	0.304247
649.992800	0.304513
650.198455	0.304505
650.404092	0.304636
650.609711	0.304549
650.815311	0.304800
651.020894	0.305040
651.226458	0.305124
651.432004	0.304988
651.637532	0.305359
651.843041	0.305423
652.048532	0.305725
652.254006	0.305745
652.459460	0.306052
652.664897	0.305914
652.870315	0.306045
653.075716	0.306170
653.281097	0.306463
653.486461	0.306570
653.691807	0.306497
653.897134	0.306454
654.102443	0.306484
654.307734	0.306389
654.513006	0.306761
654.718261	0.307144
654.923497	0.307298
655.128715	0.307838
655.333915	0.308129
655.539096	0.308672
655.744259	0.309335
655.949404	0.309806
656.154531	0.310329
656.359640	0.310625
656.564730	0.310746
656.769802	0.310864
656.974856	0.310721
657.179892	0.310985
657.384909	0.311114
657.589908	0.310978
657.794889	0.311056
657.999852	0.311119
658.204797	0.311389
658.409723	0.311786
658.614631	0.312123
658.819521	0.312479
659.024393	0.312661
659.229246	0.312823
659.434081	0.313030
659.638898	0.313712
659.843697	0.314086
660.048478	0.314291
660.253240	0.314612
660.457984	0.314984
660.662710	0.315310
660.867417	0.315542
661.072107	0.315947
661.276778	0.316573
661.481431	0.316392
661.686066	0.316521
661.890682	0.317048
662.095281	0.317044
662.299861	0.317147
662.504422	0.317109
662.708966	0.317583
662.913491	0.317819
663.117999	0.317734
663.322488	0.318079
663.526958	0.318251
663.731411	0.318217
663.935845	0.318351
664.140261	0.318544
664.344659	0.319199
664.549038	0.318922
664.753400	0.319093
664.957743	0.319235
665.162068	0.319542
665.366375	0.319929
665.570663	0.320122
665.774933	0.320454
665.979185	0.320715
666.183419	0.320975
666.387635	0.321594
666.591832	0.321725
666.796011	0.322053
667.000172	0.322497
667.204315	0.322646
667.408439	0.322849
667.612545	0.323098
667.816634	0.323349
668.020703	0.323309
668.224755	0.323517
668.428788	0.323802
668.632803	0.324045
668.836800	0.323856
669.040779	0.324223
669.244739	0.324755
669.448681	0.325326
669.652605	0.325501
669.856511	0.325632
670.060399	0.325876
670.264268	0.326220
670.468119	0.326531
670.671952	0.326856
670.875767	0.326900
671.079563	0.327005
671.283341	0.326855
671.487101	0.327140
671.690843	0.327698
671.894567	0.327912
672.098272	0.328211
672.301959	0.328661
672.505628	0.328837
672.709278	0.329251
672.912911	0.329675
673.116525	0.330088
673.320121	0.330264
673.523699	0.330302
673.727258	0.330545
673.930799	0.330741
674.134322	0.330667
674.337827	0.331087
674.541314	0.331394
674.744782	0.331271
674.948232	0.331414
675.151664	0.331439
675.355078	0.331804
675.558474	0.332088
675.761851	0.332218
675.965210	0.332618
676.168551	0.333119
676.371873	0.333392
676.575178	0.333872
676.778464	0.334370
676.981732	0.334884
677.184981	0.335119
677.388213	0.335430
677.591426	0.335848
677.794621	0.335834
677.997798	0.335895
678.200956	0.336134
678.404097	0.336464
678.607219	0.336542
678.810323	0.336936
679.013408	0.336986
679.216476	0.336957
679.419525	0.337044
679.622556	0.337376
679.825569	0.337490
680.028563	0.337678
680.231540	0.337740
680.434498	0.337581
680.637438	0.337859
680.840359	0.338266
681.043263	0.338588
681.246148	0.338668
681.449015	0.339092
681.651864	0.339231
681.854694	0.339330
682.057506	0.339346
682.260301	0.340017
682.463076	0.339899
682.665834	0.340023
682.868573	0.340195
683.071295	0.340319
683.273998	0.340456
683.476682	0.340519
683.679349	0.340894
683.881997	0.341506
684.084627	0.341597
684.287239	0.341804
684.489833	0.342113
684.692408	0.342340
684.894965	0.342867
685.097504	0.342947
685.300025	0.343465
685.502527	0.343786
685.705012	0.343828
685.907478	0.343914
686.109925	0.344193
686.312355	0.344350
686.514766	0.344658
686.717159	0.344918
686.919534	0.345187
687.121891	0.345331
687.324230	0.345319
687.526550	0.345311
687.728852	0.345642
687.931136	0.345967
688.133401	0.346219
688.335649	0.346405
688.537878	0.346225
688.740089	0.346601
688.942281	0.347015
689.144456	0.347346
689.346612	0.347815
689.548750	0.347934
689.750870	0.348168
689.952971	0.348343
690.155055	0.348380
690.357120	0.348827
690.559167	0.348732
690.761195	0.348607
690.963206	0.348631
691.165198	0.348750
691.367172	0.349060
691.569128	0.349211
691.771065	0.349326
691.972984	0.349695
692.174885	0.349815
692.376768	0.350177
692.578633	0.350160
692.780479	0.350245
692.982308	0.350305
693.184118	0.350600
693.385909	0.350648
693.587683	0.350761
693.789438	0.350725
693.991175	0.350858
694.192894	0.350864
694.394595	0.351281
694.596277	0.351331
694.797941	0.351236
694.999587	0.351066
695.201215	0.351081
695.402824	0.351144
695.604416	0.351296
695.805989	0.351477
696.007543	0.351610
696.209080	0.351567
696.410598	0.351735
696.612099	0.352134
696.813580	0.352225
697.015044	0.352300
697.216490	0.352396
697.417917	0.352495
697.619326	0.352624
697.820717	0.352821
698.022089	0.352908
698.223444	0.353231
698.424780	0.353386
698.626098	0.353512
698.827397	0.353712
699.028679	0.353797
699.229942	0.354037
699.431187	0.354112
699.632414	0.354422
699.833622	0.354634
700.034813	0.354820
700.235985	0.355113
700.437139	0.355378
700.638274	0.356099
700.839392	0.356565
701.040491	0.356797
701.241572	0.357212
701.442635	0.357351
701.643679	0.357701
701.844706	0.358111
702.045714	0.357933
702.246704	0.358217
702.447675	0.358127
702.648629	0.357827
702.849564	0.357628
703.050481	0.357587
703.251380	0.357603
703.452260	0.357431
703.653122	0.357056
703.853966	0.357222
704.054792	0.357066
704.255600	0.356786
704.456389	0.356977
704.657160	0.357013
704.857913	0.357000
705.058648	0.356944
705.259365	0.356997
705.460063	0.357069
705.660743	0.356970
705.861405	0.356995
706.062048	0.357083
706.262674	0.357207
706.463281	0.357592
706.663870	0.357443
706.864441	0.357527
707.064993	0.357532
707.265527	0.357567
707.466043	0.357713
707.666541	0.357710
707.867021	0.357807
708.067482	0.357833
708.267925	0.357645
708.468350	0.357839
708.668757	0.357699
708.869145	0.358007
709.069516	0.357958
709.269868	0.357868
709.470201	0.357955
709.670517	0.358139
709.870814	0.358088
710.071093	0.358180
710.271354	0.357905
710.471597	0.358263
710.671821	0.358304
710.872028	0.358259
711.072216	0.358394
711.272385	0.358570
711.472537	0.358422
711.672670	0.358608
711.872785	0.358788
712.072882	0.359168
712.272961	0.358893
712.473021	0.358805
712.673063	0.359034
712.873087	0.359012
713.073093	0.358790
713.273081	0.358772
713.473050	0.358608
713.673001	0.358218
713.872934	0.357682
714.072849	0.357541
714.272745	0.357533
714.472623	0.357501
714.672483	0.357516
714.872325	0.357644
715.072148	0.357561
715.271954	0.357405
715.471741	0.357637
715.671509	0.357655
715.871260	0.357862
716.070992	0.358019
716.270707	0.357987
716.470403	0.357948
716.670080	0.358062
716.869740	0.357934
717.069381	0.358079
717.269004	0.357866
717.468609	0.358333
717.668195	0.358120
717.867764	0.357739
718.067314	0.357563
718.266846	0.357323
718.466360	0.356980
718.665855	0.356913
718.865332	0.356666
719.064791	0.356534
719.264232	0.356287
719.463655	0.356235
719.663059	0.356057
719.862445	0.355944
720.061813	0.355910
720.261163	0.355632
720.460494	0.355486
720.659807	0.355333
720.859102	0.355184
721.058379	0.355099
721.257638	0.354691
721.456878	0.354956
721.656100	0.354769
721.855304	0.354586
722.054490	0.354754
722.253657	0.354903
722.452806	0.354858
722.651937	0.355314
722.851050	0.355152
723.050145	0.355490
723.249221	0.355193
723.448279	0.355414
723.647319	0.355402
723.846340	0.354948
724.045344	0.354510
724.244329	0.354423
724.443296	0.353700
724.642245	0.353343
724.841175	0.352944
725.040088	0.352636
725.238982	0.352170
725.437857	0.351872
725.636715	0.351644
725.835554	0.351543
726.034376	0.351295
726.233179	0.351044
726.431963	0.351105
726.630730	0.350744
726.829478	0.350671
727.028208	0.350400
727.226920	0.350231
727.425614	0.350240
727.624289	0.350027
727.822946	0.349763
728.021585	0.349755
728.220206	0.349578
728.418808	0.349734
728.617392	0.349648
728.815958	0.349604
729.014506	0.349617
729.213036	0.349548
729.411547	0.349682
729.610040	0.349765
729.808515	0.349412
730.006972	0.348844
730.205410	0.348546
730.403831	0.348510
730.602233	0.348210
730.800616	0.348095
730.998982	0.347942
731.197329	0.347581
731.395658	0.347424
731.593969	0.347332
731.792262	0.347543
731.990536	0.347217
732.188793	0.346903
732.387031	0.346917
732.585250	0.346486
732.783452	0.346177
732.981635	0.345807
733.179800	0.345365
733.377947	0.345421
733.576076	0.345254
733.774186	0.345093
733.972278	0.344838
734.170352	0.344399
734.368408	0.344384
734.566446	0.344505
734.764465	0.344421
734.962466	0.344463
735.160449	0.344022
735.358413	0.343683
735.556360	0.343621
735.754288	0.343289
735.952198	0.343301
736.150090	0.343150
736.347963	0.342826
736.545818	0.342732
736.743655	0.342494
736.941474	0.342494
737.139275	0.342410
737.337057	0.342355
737.534821	0.342314
737.732567	0.342074
737.930295	0.341750
738.128005	0.341665
738.325696	0.341639
738.523369	0.341672
738.721024	0.341540
738.918660	0.341367
739.116279	0.341136
739.313879	0.341040
739.511461	0.340969
739.709024	0.340761
739.906570	0.340529
740.104097	0.340365
740.301606	0.340120
740.499097	0.340164
740.696569	0.339981
740.894024	0.339589
741.091460	0.339267
741.288878	0.339151
741.486277	0.339296
741.683659	0.338919
741.881022	0.338569
742.078367	0.338553
742.275694	0.338030
742.473002	0.337890
742.670293	0.337687
742.867565	0.337469
743.064819	0.337076
743.262054	0.336618
743.459272	0.336506
743.656471	0.336175
743.853652	0.335664
744.050815	0.335499
744.247959	0.335289
744.445085	0.335311
744.642194	0.335101
744.839283	0.335002
745.036355	0.334879
745.233408	0.334398
745.430444	0.334192
745.627461	0.334091
745.824459	0.333977
746.021440	0.333522
746.218402	0.333447
746.415346	0.333460
746.612272	0.333092
746.809180	0.332819
747.006069	0.332385
747.202940	0.332136
747.399793	0.331933
747.596628	0.331603
747.793444	0.331510
747.990243	0.330968
748.187023	0.330460
748.383784	0.330244
748.580528	0.330034
748.777253	0.330466
748.973960	0.330311
749.170649	0.330113
749.367320	0.329453
749.563973	0.329254
749.760607	0.329001
749.957223	0.328880
750.153821	0.328616
750.350400	0.328189
750.546962	0.327291
750.743505	0.327065
750.940030	0.326378
751.136536	0.326557
751.333025	0.326233
751.529495	0.325846
751.725947	0.325385
751.922381	0.325242
752.118796	0.324898
752.315194	0.325048
752.511573	0.324620
752.707934	0.324610
752.904276	0.324454
753.100601	0.323981
753.296907	0.323935
753.493195	0.323817
753.689465	0.323553
753.885716	0.323393
754.081949	0.322746
754.278164	0.322523
754.474361	0.322419
754.670540	0.322030
754.866700	0.322236
755.062843	0.321876
755.258967	0.321694
755.455072	0.321592
755.651160	0.321644
755.847229	0.321899
756.043280	0.321598
756.239313	0.321158
756.435328	0.321048
756.631324	0.320734
756.827302	0.320622
757.023262	0.320207
757.219204	0.319839
757.415127	0.319331
757.611033	0.319006
757.806920	0.318965
758.002788	0.318940
758.198639	0.318715
758.394471	0.318319
758.590286	0.318051
758.786081	0.317927
758.981859	0.317768
759.177619	0.317643
759.373360	0.317374
759.569083	0.317301
759.764788	0.316979
759.960474	0.316686
760.156143	0.316490
760.351793	0.316432
760.547425	0.316260
760.743038	0.315902
760.938634	0.315931
761.134211	0.315881
761.329770	0.315309
761.525311	0.315164
761.720833	0.315029
761.916338	0.314843
762.111824	0.314652
762.307292	0.314707
762.502741	0.314558
762.698173	0.314041
762.893586	0.314061
763.088981	0.314056
763.284358	0.313938
763.479716	0.313763
763.675057	0.313534
763.870379	0.313411
764.065683	0.313085
764.260968	0.312915
764.456236	0.313039
764.651485	0.312584
764.846716	0.312896
765.041929	0.312830
765.237123	0.312921
765.432299	0.313038
765.627457	0.312895
765.822597	0.312647
766.017719	0.312733
766.212822	0.312760
766.407907	0.312911
766.602974	0.312537
766.798023	0.312322
766.993054	0.312037
767.188066	0.311870
767.383060	0.311835
767.578036	0.312026
767.772993	0.311965
767.967933	0.311626
768.162854	0.311502
768.357757	0.311330
768.552642	0.311473
768.747508	0.311331
768.942356	0.311469
769.137186	0.311518
769.331998	0.311335
769.526792	0.311218
769.721567	0.311288
769.916324	0.311234
770.111063	0.311125
770.305784	0.310920
770.500486	0.310896
770.695171	0.310912
770.889837	0.310762
771.084484	0.310618
771.279114	0.310259
771.473725	0.310285
771.668318	0.310042
771.862893	0.310193
772.057450	0.310008
772.251988	0.309976
772.446509	0.309676
772.641011	0.309393
772.835494	0.309520
773.029960	0.309528
773.224407	0.309039
773.418836	0.309176
773.613247	0.309089
773.807640	0.308920
774.002014	0.308911
774.196370	0.308569
774.390708	0.308538
774.585028	0.308362
774.779330	0.308530
774.973613	0.308539
775.167878	0.308257
775.362125	0.308032
775.556354	0.308073
775.750564	0.307398
775.944756	0.307353
776.138930	0.307317
776.333086	0.307212
776.527223	0.306948
776.721343	0.306786
776.915444	0.306791
777.109526	0.306588
777.303591	0.306340
777.497637	0.306642
777.691666	0.306645
777.885676	0.306461
778.079667	0.306161
778.273641	0.305968
778.467596	0.306209
778.661533	0.306189
778.855452	0.306193
779.049352	0.306260
779.243235	0.306207
779.437099	0.306404
779.630945	0.306476
779.824773	0.306545
780.018582	0.306636
780.212373	0.306554
780.406146	0.306285
780.599901	0.306274
780.793638	0.306379
780.987356	0.306493
781.181056	0.306268
781.374738	0.306138
781.568402	0.306222
781.762047	0.306336
781.955674	0.306455
782.149283	0.306608
782.342874	0.306753
782.536447	0.306837
782.730001	0.306750
782.923537	0.306826
783.117055	0.306557
783.310555	0.306717
783.504036	0.306473
783.697499	0.306267
783.890944	0.306185
784.084371	0.306100
784.277780	0.306325
784.471170	0.306194
784.664542	0.306309
784.857896	0.306831
785.051231	0.306811
785.244549	0.307531
785.437848	0.307742
785.631129	0.308272
785.824392	0.308742
786.017636	0.308555
786.210863	0.308895
786.404071	0.308855
786.597260	0.308863
786.790432	0.309050
786.983585	0.308675
787.176721	0.308715
787.369838	0.308775
787.562936	0.308553
787.756017	0.308369
787.949079	0.308367
788.142123	0.308337
788.335149	0.308402
788.528156	0.308341
788.721146	0.308230
788.914117	0.308318
789.107070	0.308121
789.300005	0.307746
789.492921	0.307836
789.685819	0.307793
789.878699	0.307901
790.071561	0.307886
790.264405	0.308148
790.457230	0.308638
790.650037	0.308467
790.842826	0.308340
791.035597	0.308736
791.228349	0.309065
791.421084	0.309465
791.613800	0.309795
791.806497	0.310009
791.999177	0.309971
792.191838	0.309762
792.384481	0.310106
792.577106	0.310467
792.769713	0.311010
792.962301	0.311234
793.154871	0.311411
793.347423	0.311648
793.539957	0.311986
793.732473	0.311916
793.924970	0.312438
794.117449	0.312664
794.309910	0.312998
794.502353	0.312944
794.694777	0.313251
794.887183	0.313449
795.079571	0.313440
795.271941	0.313590
795.464293	0.314063
795.656626	0.314217
795.848941	0.314438
796.041238	0.314602
796.233516	0.315097
796.425777	0.315016
796.618019	0.315070
796.810243	0.315313
797.002449	0.315511
797.194636	0.315824
797.386805	0.315996
797.578956	0.316260
797.771089	0.316207
797.963204	0.316065
798.155300	0.316175
798.347378	0.316877
798.539438	0.317399
798.731480	0.317481
798.923503	0.317827
799.115509	0.318004
799.307496	0.318475
799.499465	0.318976
799.691415	0.319396
799.883348	0.319732
800.075262	0.319572
800.267158	0.319498
800.459035	0.319938
800.650895	0.320145
800.842736	0.320214
801.034559	0.320231
801.226364	0.320579
801.418150	0.320843
801.609919	0.321413
801.801669	0.321867
801.993401	0.322484
802.185114	0.322593
802.376810	0.322571
802.568487	0.322928
802.760146	0.323174
802.951787	0.323239
803.143409	0.323289
803.335014	0.323281
803.526600	0.323501
803.718168	0.323531
803.909717	0.323800
804.101249	0.323894
804.292762	0.324597
804.484257	0.324722
804.675734	0.324967
804.867192	0.325368
805.058632	0.325783
805.250054	0.326048
805.441458	0.326208
805.632844	0.326469
805.824211	0.327019
806.015561	0.327076
806.206891	0.327251
806.398204	0.327451
806.589499	0.327583
806.780775	0.327547
806.972033	0.327534
807.163273	0.327923
807.354495	0.328232
807.545698	0.328356
807.736883	0.328349
807.928050	0.328762
808.119199	0.329140
808.310329	0.329643
808.501441	0.330330
808.692535	0.330691
808.883611	0.331143
809.074669	0.331786
809.265708	0.332319
809.456729	0.333031
809.647732	0.333531
809.838717	0.334019
810.029683	0.334236
810.220632	0.334749
810.411562	0.335279
810.602474	0.335721
810.793367	0.335674
810.984242	0.335924
811.175100	0.336164
811.365938	0.336493
811.556759	0.336644
811.747562	0.336942
811.938346	0.336833
812.129112	0.337101
812.319860	0.337195
812.510589	0.337800
812.701300	0.338098
812.891994	0.338330
813.082668	0.338679
813.273325	0.339218
813.463964	0.339769
813.654584	0.340455
813.845186	0.340824
814.035769	0.341360
814.226335	0.341514
814.416882	0.341810
814.607411	0.342157
814.797922	0.342405
814.988415	0.342756
815.178889	0.343077
815.369345	0.343162
815.559783	0.343662
815.750203	0.343972
815.940605	0.344491
816.130988	0.345032
816.321353	0.345700
816.511700	0.346332
816.702028	0.346601
816.892339	0.347017
817.082631	0.347747
817.272905	0.348364
817.463161	0.348945
817.653398	0.349326
817.843617	0.349785
818.033819	0.350139
818.224001	0.350355
818.414166	0.350839
818.604312	0.351202
818.794440	0.351374
818.984550	0.351947
819.174642	0.352317
819.364716	0.352955
819.554771	0.353174
819.744808	0.353658
819.934827	0.354354
820.124827	0.354580
820.314810	0.355100
820.504774	0.355622
820.694720	0.355487
820.884647	0.355458
821.074557	0.355767
821.264448	0.356546
821.454321	0.356906
821.644176	0.357510
821.834012	0.357927
822.023831	0.358411
822.213631	0.358765
822.403413	0.359349
822.593176	0.360235
822.782922	0.360143
822.972649	0.360381
823.162358	0.360614
823.352049	0.360578
823.541721	0.361411
823.731376	0.361766
823.921012	0.362275
824.110629	0.362508
824.300229	0.362625
824.489811	0.363298
824.679374	0.363590
824.868919	0.364131
825.058445	0.364658
825.247954	0.364863
825.437444	0.365066
825.626916	0.365290
825.816370	0.365938
826.005806	0.366884
826.195223	0.367316
826.384622	0.368231
826.574003	0.368698
826.763366	0.369442
826.952711	0.370062
827.142037	0.370893
827.331345	0.371663
827.520635	0.372224
827.709906	0.372432
827.899160	0.373292
828.088395	0.373692
828.277612	0.374223
828.466810	0.374612
828.655991	0.375034
828.845153	0.375390
829.034297	0.375987
829.223423	0.376582
829.412531	0.377148
829.601620	0.377704
829.790691	0.378074
829.979744	0.378756
830.168779	0.379381
830.357795	0.380157
830.546793	0.380553
830.735773	0.381068
830.924735	0.381423
831.113679	0.381950
831.302604	0.382288
831.491511	0.383077
831.680400	0.383586
831.869271	0.383959
832.058123	0.384237
832.246957	0.385025
832.435773	0.385686
832.624571	0.386607
832.813351	0.387156
833.002112	0.387875
833.190855	0.388014
833.379580	0.388605
833.568287	0.388897
833.756975	0.389461
833.945645	0.389935
834.134297	0.390128
834.322931	0.390088
834.511547	0.390532
834.700144	0.391461
834.888723	0.392015
835.077284	0.392249
835.265826	0.393253
835.454351	0.394302
835.642857	0.394884
835.831345	0.395698
836.019815	0.396462
836.208266	0.397340
836.396699	0.397382
836.585114	0.397922
836.773511	0.398751
836.961890	0.399289
837.150250	0.399580
837.338592	0.400465
837.526916	0.401033
837.715222	0.401852
837.903510	0.402079
838.091779	0.402831
838.280030	0.403891
838.468263	0.404289
838.656477	0.404722
838.844674	0.404935
839.032852	0.405206
839.221012	0.405835
839.409153	0.406411
839.597277	0.407361
839.785382	0.407948
839.973469	0.408301
840.161538	0.408852
840.349589	0.409967
840.537621	0.411156
840.725635	0.411930
840.913631	0.412754
841.101609	0.413440
841.289568	0.414098
841.477509	0.415106
841.665432	0.416312
841.853337	0.417745
842.041224	0.418203
842.229092	0.419021
842.416942	0.419568
842.604774	0.420419
842.792588	0.420848
842.980383	0.421552
843.168160	0.422115
843.355919	0.422414
843.543660	0.422839
843.731382	0.423319
843.919087	0.423577
844.106773	0.424402
844.294441	0.424250
844.482090	0.424848
844.669722	0.425017
844.857335	0.425310
845.044930	0.425982
845.232507	0.425946
845.420065	0.426456
845.607605	0.426797
845.795127	0.427625
845.982631	0.428837
846.170117	0.429662
846.357584	0.430445
846.545033	0.431078
846.732464	0.431725
846.919877	0.432402
847.107272	0.432931
847.294648	0.433817
847.482006	0.434117
847.669346	0.434369
847.856667	0.434772
848.043971	0.434980
848.231256	0.435626
848.418523	0.435728
848.605771	0.436662
848.793002	0.437129
848.980214	0.437585
849.167408	0.438282
849.354584	0.438787
849.541742	0.439025
849.728881	0.439697
849.916002	0.440462
850.103105	0.441434
850.290190	0.442064
850.477256	0.442709
850.664304	0.443006
850.851334	0.443477
851.038346	0.443744
851.225340	0.444583
851.412315	0.445404
851.599272	0.445565
851.786211	0.445835
851.973132	0.446669
852.160034	0.447397
852.346918	0.448412
852.533784	0.448652
852.720632	0.449446
852.907462	0.449958
853.094273	0.450382
853.281066	0.450886
853.467841	0.451904
853.654598	0.452031
853.841336	0.452529
854.028056	0.453161
854.214758	0.453802
854.401442	0.454522
854.588107	0.455040
854.774755	0.456028
854.961384	0.456653
855.147995	0.457091
855.334587	0.457721
855.521162	0.458272
855.707718	0.458394
855.894256	0.458806
856.080775	0.459021
856.267277	0.460197
856.453760	0.460536
856.640225	0.460985
856.826672	0.461251
857.013101	0.461460
857.199511	0.461548
857.385903	0.462187
857.572277	0.463079
857.758633	0.464099
857.944970	0.464038
858.131290	0.464186
858.317591	0.464828
858.503873	0.465536
858.690138	0.466254
858.876384	0.467526
859.062612	0.467765
859.248822	0.467762
859.435014	0.468229
859.621188	0.468894
859.807343	0.469636
859.993480	0.470042
860.179599	0.470331
860.365699	0.470847
860.551781	0.471264
860.737846	0.472133
860.923891	0.473295
861.109919	0.473730
861.295929	0.474161
861.481920	0.474621
861.667893	0.474896
861.853848	0.475774
862.039784	0.476428
862.225702	0.476751
862.411603	0.476834
862.597484	0.476914
862.783348	0.477272
862.969193	0.477463
863.155021	0.477962
863.340830	0.479053
863.526620	0.479024
863.712393	0.479194
863.898147	0.479652
864.083883	0.480923
864.269601	0.481540
864.455301	0.482017
864.640982	0.483001
864.826645	0.483234
865.012290	0.483721
865.197917	0.484408
865.383526	0.484882
865.569116	0.485345
865.754688	0.485462
865.940242	0.485964
866.125777	0.486777
866.311295	0.486897
866.496794	0.487949
866.682275	0.488148
866.867737	0.489055
867.053182	0.490288
867.238608	0.490526
867.424016	0.490728
867.609406	0.491496
867.794778	0.491167
867.980131	0.491568
868.165466	0.491547
868.350783	0.491990
868.536082	0.491718
868.721362	0.491591
868.906625	0.492059
869.091869	0.492673
869.277094	0.492641
869.462302	0.493502
869.647491	0.494238
869.832662	0.494715
870.017815	0.494625
870.202950	0.495089
870.388066	0.495368
870.573165	0.495636
870.758245	0.495962
870.943306	0.496216
871.128350	0.496369
871.313375	0.496168
871.498382	0.496909
871.683371	0.497794
871.868342	0.498255
872.053294	0.498707
872.238229	0.499105
872.423144	0.499049
872.608042	0.499974
872.792922	0.500258
872.977783	0.500968
873.162626	0.501019
873.347451	0.501391
873.532258	0.501334
873.717046	0.501626
873.901816	0.501720
874.086568	0.502679
874.271302	0.502459
874.456017	0.503544
874.640715	0.503684
874.825394	0.503956
875.010055	0.503522
875.194697	0.503886
875.379322	0.503736
875.563928	0.503818
875.748516	0.503437
875.933085	0.503586
876.117637	0.503472
876.302170	0.504044
876.486685	0.504602
876.671182	0.505903
876.855661	0.506688
877.040121	0.507322
877.224563	0.508164
877.408987	0.508668
877.593393	0.509370
877.777780	0.509768
877.962150	0.510179
878.146501	0.510307
878.330833	0.510789
878.515148	0.511000
878.699444	0.511349
878.883722	0.511413
879.067982	0.511559
879.252224	0.511716
879.436447	0.512057
879.620653	0.512108
879.804840	0.512398
879.989008	0.512124
880.173159	0.511952
880.357291	0.512391
880.541405	0.512873
880.725501	0.513813
880.909579	0.514159
881.093638	0.514263
881.277680	0.514593
881.461703	0.514714
881.645707	0.515169
881.829694	0.515537
882.013662	0.515974
882.197612	0.515933
882.381544	0.515934
882.565458	0.515859
882.749353	0.515733
882.933230	0.516533
883.117089	0.516887
883.300930	0.516882
883.484753	0.517188
883.668557	0.517105
883.852343	0.517316
884.036111	0.517406
884.219861	0.517304
884.403592	0.517311
884.587305	0.516639
884.771000	0.516015
884.954677	0.516659
885.138335	0.516304
885.321976	0.516359
885.505598	0.516734
885.689201	0.516387
885.872787	0.516921
886.056354	0.516913
886.239904	0.516386
886.423434	0.516770
886.606947	0.516402
886.790442	0.516794
886.973918	0.517066
887.157376	0.516728
887.340816	0.516913
887.524237	0.516396
887.707641	0.516678
887.891026	0.517307
888.074393	0.517692
888.257741	0.517222
888.441072	0.517352
888.624384	0.516840
888.807678	0.516651
888.990954	0.516554
889.174211	0.517201
889.357451	0.517155
889.540672	0.516855
889.723875	0.516255
889.907059	0.516433
890.090226	0.516612
890.273374	0.516534
890.456504	0.517007
890.639616	0.517032
890.822709	0.516282
891.005785	0.516399
891.188842	0.516452
891.371881	0.516646
891.554901	0.516544
891.737904	0.515856
891.920888	0.515874
892.103854	0.515678
892.286802	0.515566
892.469731	0.515543
892.652643	0.515403
892.835536	0.514946
893.018410	0.514637
893.201267	0.514691
893.384106	0.514761
893.566926	0.514823
893.749728	0.514802
893.932511	0.514438
894.115277	0.514474
894.298024	0.513734
894.480753	0.513920
894.663464	0.513789
894.846157	0.513451
895.028831	0.513195
895.211487	0.512769
895.394125	0.512963
895.576745	0.513236
895.759346	0.513239
895.941930	0.513407
896.124495	0.513200
896.307041	0.512829
896.489570	0.513024
896.672080	0.513013
896.854573	0.513271
897.037046	0.512625
897.219502	0.512595
897.401940	0.512398
897.584359	0.511737
897.766760	0.512181
897.949143	0.512194
898.131507	0.511212
898.313854	0.510852
898.496182	0.509681
898.678492	0.509257
898.860783	0.508541
899.043057	0.508713
899.225312	0.509122
899.407549	0.508318
899.589768	0.508362
899.771968	0.508292
899.954151	0.507858
900.136315	0.507844
900.318461	0.507519
900.500588	0.507380
900.682698	0.506966
900.864789	0.506810
901.046862	0.506318
901.228917	0.505579
901.410953	0.505604
901.592971	0.505519
901.774972	0.505288
901.956953	0.505601
902.138917	0.505397
902.320862	0.504073
902.502790	0.503468
902.684699	0.503117
902.866589	0.503522
903.048462	0.502798
903.230316	0.502633
903.412152	0.502726
903.593970	0.501550
903.775770	0.501486
903.957551	0.502052
904.139314	0.502183
904.321059	0.501979
904.502786	0.500768
904.684494	0.500172
904.866185	0.498900
905.047857	0.499018
905.229510	0.498418
905.411146	0.497763
905.592763	0.496677
905.774363	0.495148
905.955943	0.494463
906.137506	0.494698
906.319051	0.494597
906.500577	0.494718
906.682085	0.493080
906.863575	0.493205
907.045046	0.492499
907.226500	0.491987
907.407935	0.492537
907.589352	0.492302
907.770750	0.491656
907.952131	0.491370
908.133493	0.490747
908.314837	0.490399
908.496163	0.489779
908.677470	0.488753
908.858760	0.488414
909.040031	0.487742
909.221284	0.487333
909.402518	0.486563
909.583735	0.485439
909.764933	0.485036
909.946113	0.484548
910.127275	0.483337
910.308418	0.483565
910.489544	0.482954
910.670651	0.481758
910.851740	0.480794
911.032810	0.480438
911.213863	0.479594
911.394897	0.478727
911.575913	0.477757
911.756911	0.477392
911.937890	0.476610
912.118851	0.476040
912.299794	0.475095
912.480719	0.474352
912.661626	0.473272
912.842514	0.472932
913.023384	0.472037
913.204236	0.471818
913.385070	0.471134
913.565886	0.470305
913.746683	0.469763
913.927462	0.469035
914.108223	0.468572
914.288965	0.467678
914.469690	0.467085
914.650396	0.466104
914.831084	0.465001
915.011754	0.464222
915.192405	0.463083
915.373038	0.462150
915.553653	0.461604
915.734250	0.460997
915.914829	0.460544
916.095389	0.459133
916.275931	0.459044
916.456455	0.458109
916.636961	0.457818
916.817448	0.457016
916.997917	0.456765
917.178368	0.455584
917.358801	0.453804
917.539216	0.452127
917.719612	0.451263
917.899990	0.449776
918.080350	0.448843
918.260692	0.447282
918.441015	0.446734
918.621320	0.445125
918.801607	0.445510
918.981876	0.445152
919.162127	0.444493
919.342359	0.444308
919.522573	0.444013
919.702769	0.443025
919.882947	0.442657
920.063106	0.441715
920.243247	0.440878
920.423370	0.439295
920.603475	0.438064
920.783562	0.436987
920.963630	0.435253
921.143680	0.433729
921.323712	0.432414
921.503725	0.430899
921.683721	0.429526
921.863698	0.428283
922.043657	0.427614
922.223598	0.426976
922.403520	0.426600
922.583424	0.426138
922.763311	0.425569
922.943178	0.425732
923.123028	0.424756
923.302859	0.424522
923.482673	0.424055
923.662467	0.422668
923.842244	0.421873
924.022003	0.420662
924.201743	0.420140
924.381465	0.419690
924.561169	0.418566
924.740854	0.417329
924.920522	0.415840
925.100171	0.413629
925.279802	0.413147
925.459414	0.412069
925.639009	0.411702
925.818585	0.410083
925.998143	0.409092
926.177683	0.408465
926.357205	0.407789
926.536708	0.407123
926.716193	0.406822
926.895660	0.405312
927.075109	0.404079
927.254539	0.403238
927.433951	0.402204
927.613345	0.400163
927.792721	0.398083
927.972079	0.396997
928.151418	0.395166
928.330739	0.394833
928.510042	0.393498
928.689327	0.392892
928.868593	0.391094
929.047841	0.390121
929.227071	0.389375
929.406283	0.388681
929.585476	0.387965
929.764652	0.387409
929.943809	0.386167
930.122948	0.384821
930.302068	0.382855
930.481171	0.381899
930.660255	0.380062
930.839321	0.378743
931.018369	0.377491
931.197398	0.376068
931.376409	0.374368
931.555402	0.372445
931.734377	0.372171
931.913334	0.371396
932.092272	0.369657
932.271192	0.368758
932.450094	0.367434
932.628978	0.365121
932.807844	0.363499
932.986691	0.361618
933.165520	0.360236
933.344331	0.358321
933.523123	0.356476
933.701898	0.355952
933.880654	0.354519
934.059392	0.353126
934.238111	0.352540
934.416813	0.351019
934.595496	0.349917
934.774161	0.349440
934.952808	0.348403
935.131437	0.347021
935.310047	0.344884
935.488639	0.343953
935.667213	0.342721
935.845769	0.342114
936.024306	0.341425
936.202825	0.340482
936.381326	0.338186
936.559809	0.336284
936.738274	0.335500
936.916720	0.335218
937.095148	0.334228
937.273558	0.333329
937.451950	0.332162
937.630323	0.331460
937.808678	0.331040
937.987015	0.330425
938.165334	0.328551
938.343635	0.327533
938.521917	0.325158
938.700181	0.323042
938.878427	0.320809
939.056655	0.317874
939.234864	0.315768
939.413055	0.312768
939.591228	0.312079
939.769383	0.310573
939.947519	0.308982
940.125638	0.306592
940.303738	0.306312
940.481820	0.305148
940.659883	0.304499
940.837929	0.303049
941.015956	0.301952
941.193965	0.298745
941.371955	0.298794
941.549928	0.295968
941.727882	0.295608
941.905818	0.292107
942.083736	0.291653
942.261636	0.289910
942.439517	0.288856
942.617380	0.287937
942.795225	0.285917
942.973052	0.283921
943.150860	0.282886
943.328651	0.281172
943.506423	0.280170
943.684176	0.278374
943.861912	0.277820
944.039629	0.275654
944.217328	0.274304
944.395009	0.274883
944.572672	0.273099
944.750317	0.272459
944.927943	0.270175
945.105551	0.270698
945.283141	0.269402
945.460712	0.266982
945.638265	0.265279
945.815801	0.262649
945.993317	0.261111
946.170816	0.260984
946.348297	0.258887
946.525759	0.257799
946.703203	0.255452
946.880629	0.252721
947.058036	0.251057
947.235425	0.249843
947.412797	0.248255
947.590149	0.244901
947.767484	0.242729
947.944800	0.241681
948.122099	0.241161
948.299379	0.238708
948.476640	0.236968
948.653884	0.235671
948.831109	0.235626
949.008316	0.236995
949.185505	0.237818
949.362676	0.235904
949.539828	0.234694
949.716962	0.232839
949.894078	0.232406
950.071176	0.231483
950.248256	0.230064
950.425317	0.228029
950.602360	0.226207
950.779385	0.224129
950.956391	0.223218
951.133380	0.220857
951.310350	0.221476
951.487302	0.221148
951.664235	0.219056
951.841151	0.217394
952.018048	0.215958
952.194927	0.212339
952.371788	0.211495
952.548631	0.209194
952.725455	0.208970
952.902261	0.206877
953.079049	0.203623
953.255819	0.203520
953.432570	0.201617
953.609303	0.201200
953.786018	0.201118
953.962715	0.199483
954.139394	0.200405
954.316054	0.198841
954.492696	0.195850
954.669320	0.196612
954.845926	0.197147
955.022513	0.196387
955.199083	0.193730
955.375634	0.192860
955.552166	0.192484
955.728681	0.189358
955.905177	0.188836
956.081655	0.190215
956.258115	0.189990
956.434557	0.187122
956.610980	0.187464
956.787385	0.185444
956.963772	0.185423
957.140141	0.180283
957.316492	0.178441
957.492824	0.178041
957.669138	0.173530
957.845434	0.170315
958.021712	0.169613
958.197971	0.172239
958.374212	0.173434
958.550435	0.171530
958.726640	0.175049
958.902826	0.176409
959.078995	0.175025
959.255145	0.177012
959.431277	0.179756
959.607390	0.176632
959.783486	0.172780
959.959563	0.172183
960.135622	0.172327
960.311662	0.170715
960.487685	0.169808
960.663689	0.168257
960.839675	0.168634
961.015643	0.166360
961.191593	0.170310
961.367524	0.169660
961.543437	0.169450
961.719332	0.168964
961.895209	0.168116
962.071067	0.164777
962.246907	0.167318
962.422730	0.164224
962.598533	0.163309
962.774319	0.158124
962.950086	0.157204
963.125835	0.157497
963.301566	0.158129
963.477279	0.158829
963.652973	0.161350
963.828650	0.158422
964.004308	0.159650
964.179947	0.160139
964.355569	0.165117
964.531172	0.166227
964.706757	0.163789
964.882324	0.164382
965.057873	0.164036
965.233403	0.161278
965.408916	0.163076
965.584410	0.161392
965.759885	0.163013
965.935343	0.162908
966.110782	0.163519
966.286203	0.163894
966.461606	0.160098
966.636991	0.159612
966.812357	0.161081
966.987705	0.158911
967.163035	0.160877
967.338347	0.159498
967.513641	0.155595
967.688916	0.153622
967.864173	0.152350
968.039412	0.152063
968.214632	0.150806
968.389835	0.151474
968.565019	0.152307
968.740185	0.152296
968.915333	0.152015
969.090462	0.156602
969.265573	0.156778
969.440667	0.158211
969.615741	0.162968
969.790798	0.161326
969.965836	0.161694
970.140856	0.161201
970.315858	0.159555
970.490842	0.160958
970.665808	0.157236
970.840755	0.159476
971.015684	0.160706
971.190595	0.159834
971.365487	0.164281
971.540362	0.161461
971.715218	0.164925
971.890056	0.165807
972.064875	0.164886
972.239677	0.164836
972.414460	0.160128
972.589225	0.159046
972.763972	0.156413
972.938700	0.152632
973.113411	0.153113
973.288103	0.148840
973.462777	0.147966
973.637432	0.147564
973.812070	0.148847
973.986689	0.151784
974.161290	0.148773
974.335873	0.150225
974.510437	0.150296
974.684984	0.151466
974.859512	0.151854
975.034022	0.150843
975.208513	0.147707
975.382987	0.146634
975.557442	0.143906
975.731879	0.148560
975.906298	0.145959
976.080698	0.148004
976.255080	0.149744
976.429445	0.151651
976.603790	0.155820
976.778118	0.158040
976.952427	0.157833
977.126719	0.159168
977.300992	0.156577
977.475246	0.156941
977.649483	0.156370
977.823701	0.153033
977.997901	0.152148
978.172083	0.148866
978.346247	0.147728
978.520392	0.147247
978.694519	0.147050
978.868628	0.147774
979.042719	0.148779
979.216791	0.149852
979.390845	0.149898
979.564882	0.147958
979.738899	0.149364
979.912899	0.150531
980.086880	0.154441
980.260843	0.156837
980.434788	0.156132
980.608715	0.157276
980.782623	0.156114
980.956514	0.156887
981.130386	0.158311
981.304240	0.159454
981.478075	0.160473
981.651892	0.158829
981.825692	0.157950
981.999472	0.159078
982.173235	0.158420
982.346980	0.160502
982.520706	0.159623
982.694414	0.160734
982.868104	0.157542
983.041775	0.155750
983.215428	0.153790
983.389064	0.153645
983.562680	0.153031
983.736279	0.154251
983.909860	0.153806
984.083422	0.154972
984.256966	0.154331
984.430491	0.156876
984.603999	0.157180
984.777488	0.157488
984.950959	0.157402
985.124412	0.156792
985.297847	0.152324
985.471263	0.151118
985.644661	0.151872
985.818041	0.151476
985.991403	0.150920
986.164747	0.151564
986.338072	0.151670
986.511379	0.150676
986.684668	0.151230
986.857938	0.154507
987.031191	0.154831
987.204425	0.155841
987.377641	0.157838
987.550839	0.160154
987.724018	0.161813
987.897179	0.163186
988.070322	0.163463
988.243447	0.163107
988.416554	0.163015
988.589642	0.161732
988.762712	0.160895
988.935764	0.159150
989.108798	0.159565
989.281813	0.159827
989.454811	0.158617
989.627790	0.156626
989.800751	0.156734
989.973693	0.155341
990.146617	0.157896
990.319524	0.158241
990.492412	0.157451
990.665281	0.155765
990.838133	0.155218
991.010966	0.154069
991.183781	0.154888
991.356578	0.156951
991.529356	0.158362
991.702117	0.156059
991.874859	0.156076
992.047583	0.156971
992.220288	0.156579
992.392976	0.157074
992.565645	0.158034
992.738296	0.160546
992.910929	0.157270
993.083543	0.155756
993.256139	0.158316
993.428718	0.157532
993.601277	0.158393
993.773819	0.158166
993.946342	0.155456
994.118848	0.154135
994.291335	0.153417
994.463803	0.153880
994.636254	0.154428
994.808686	0.151285
994.981100	0.150471
995.153496	0.149853
995.325874	0.150434
995.498233	0.150678
995.670574	0.151799
995.842897	0.152829
996.015202	0.155174
996.187488	0.156306
996.359757	0.157499
996.532007	0.158059
996.704239	0.158095
996.876452	0.157537
997.048648	0.159286
997.220825	0.159047
997.392984	0.159126
997.565124	0.156853
997.737247	0.155655
997.909351	0.156866
998.081437	0.157389
998.253505	0.155890
998.425554	0.156456
998.597586	0.154803
998.769599	0.154030
998.941594	0.152526
999.113571	0.154640
999.285529	0.155934
999.457469	0.154554
999.629391	0.154507
999.801295	0.156463
999.973181	0.155760
1000.145048	0.154699
1000.316897	0.156226
1000.488728	0.153998
1000.660541	0.152004
1000.832335	0.151724
1001.004111	0.151961
1001.175869	0.151076
1001.347609	0.151369
1001.519331	0.149805
1001.691034	0.151709
1001.862719	0.152782
1002.034386	0.153796
1002.206035	0.153006
1002.377665	0.152429
1002.549277	0.152652
1002.720871	0.152286
1002.892447	0.152252
1003.064004	0.153100
1003.235544	0.151755
1003.407065	0.151378
1003.578568	0.153078
1003.750052	0.155308
1003.921519	0.155984
1004.092967	0.153153
1004.264397	0.153757
1004.435809	0.153286
1004.607202	0.153607
1004.778577	0.152820
1004.949934	0.153705
1005.121273	0.153431
1005.292594	0.151929
1005.463896	0.152650
1005.635180	0.152844
1005.806446	0.152613
1005.977694	0.153669
1006.148923	0.154249
1006.320135	0.156693
1006.491328	0.156723
1006.662503	0.155624
1006.833659	0.155439
1007.004798	0.153104
1007.175918	0.156299
1007.347020	0.159164
1007.518103	0.160661
1007.689169	0.159244
1007.860216	0.157769
1008.031245	0.156910
1008.202256	0.157057
1008.373248	0.157834
1008.544223	0.157857
1008.715179	0.157870
1008.886117	0.154893
1009.057036	0.152961
1009.227938	0.151920
1009.398821	0.151720
1009.569686	0.151383
1009.740533	0.153157
1009.911361	0.150859
1010.082172	0.151520
1010.252964	0.150548
1010.423738	0.151174
1010.594493	0.149604
1010.765231	0.150841
1010.935950	0.151142
1011.106651	0.150788
1011.277334	0.152001
1011.447998	0.152568
1011.618645	0.153310
1011.789273	0.153126
1011.959882	0.153240
1012.130474	0.152920
1012.301048	0.151909
1012.471603	0.152299
1012.642140	0.153439
1012.812658	0.152516
1012.983159	0.153254
1013.153641	0.152385
1013.324105	0.152475
1013.494551	0.152417
1013.664979	0.152819
1013.835388	0.153422
1014.005779	0.153120
1014.176152	0.152231
1014.346507	0.150854
1014.516843	0.152116
1014.687162	0.152845
1014.857462	0.152608
1015.027744	0.151977
1015.198007	0.154036
1015.368252	0.153459
1015.538480	0.153598
1015.708689	0.152305
1015.878879	0.152378
1016.049052	0.152005
1016.219206	0.151764
1016.389342	0.151731
1016.559460	0.151838
1016.729559	0.151481
1016.899641	0.152268
1017.069704	0.151417
1017.239749	0.152386
1017.409775	0.150530
1017.579784	0.149128
1017.749774	0.148519
1017.919746	0.150145
1018.089700	0.151318
1018.259635	0.149536
1018.429553	0.148792
1018.599452	0.148409
1018.769333	0.147715
1018.939195	0.150545
1019.109040	0.153482
1019.278866	0.154054
1019.448674	0.152454
1019.618464	0.151157
1019.788235	0.151350
1019.957989	0.151294
1020.127724	0.150666
1020.297441	0.151243
1020.467139	0.149936
1020.636820	0.149265
1020.806482	0.149708
1020.976126	0.149074
1021.145752	0.149883
1021.315359	0.147892
1021.484948	0.149606
1021.654519	0.149635
1021.824072	0.149938
1021.993607	0.149744
1022.163123	0.146255
1022.332621	0.146149
1022.502101	0.147069
1022.671563	0.147284
1022.841007	0.150116
1023.010432	0.149155
1023.179839	0.150807
1023.349228	0.152552
1023.518598	0.153978
1023.687951	0.155000
1023.857285	0.155416
1024.026601	0.155339
1024.195899	0.153357
1024.365178	0.150493
1024.534439	0.152297
1024.703682	0.150895
1024.872907	0.148429
1025.042114	0.147458
1025.211302	0.149180
1025.380472	0.148434
1025.549624	0.147971
1025.718758	0.147926
1025.887873	0.148405
1026.056970	0.145807
1026.226049	0.146077
1026.395110	0.147186
1026.564153	0.144861
1026.733177	0.145268
1026.902183	0.143504
1027.071171	0.145110
1027.240141	0.145560
1027.409092	0.147498
1027.578026	0.149617
1027.746940	0.150449
1027.915837	0.150021
1028.084716	0.151770
1028.253576	0.152277
1028.422418	0.153412
1028.591242	0.153031
1028.760048	0.156094
1028.928835	0.155527
1029.097604	0.152995
1029.266355	0.151564
1029.435088	0.150392
1029.603803	0.149731
1029.772499	0.147250
1029.941177	0.146452
1030.109837	0.145834
1030.278478	0.143763
1030.447102	0.144499
1030.615707	0.145551
1030.784294	0.147621
1030.952863	0.147599
1031.121413	0.150216
1031.289945	0.151171
1031.458460	0.153336
1031.626955	0.152323
1031.795433	0.151616
1031.963892	0.151198
1032.132334	0.153473
1032.300756	0.151286
1032.469161	0.152685
1032.637548	0.150579
1032.805916	0.151324
1032.974266	0.153131
1033.142598	0.154306
1033.310911	0.154062
1033.479207	0.153566
1033.647484	0.152356
1033.815743	0.154146
1033.983983	0.155608
1034.152206	0.158266
1034.320410	0.158180
1034.488596	0.155173
1034.656764	0.155138
1034.824914	0.154182
1034.993045	0.153264
1035.161158	0.151618
1035.329253	0.151058
1035.497330	0.147404
1035.665388	0.144824
1035.833428	0.143948
1036.001450	0.146459
1036.169454	0.146072
1036.337440	0.147808
1036.505407	0.149951
1036.673356	0.150428
1036.841287	0.152632
1037.009200	0.154014
1037.177094	0.154444
1037.344970	0.153622
1037.512828	0.152194
1037.680668	0.153085
1037.848489	0.153702
1038.016293	0.152339
1038.184078	0.153117
1038.351845	0.150026
1038.519593	0.152491
1038.687324	0.150928
1038.855036	0.150843
1039.022730	0.150754
1039.190406	0.150505
1039.358063	0.149617
1039.525702	0.150180
1039.693323	0.150167
1039.860926	0.150947
1040.028511	0.147202
1040.196077	0.148766
1040.363625	0.149952
1040.531155	0.150259
1040.698667	0.149269
1040.866161	0.148797
1041.033636	0.149956
1041.201093	0.149696
1041.368532	0.150281
1041.535952	0.150590
1041.703355	0.151910
1041.870739	0.152996
1042.038105	0.150486
1042.205452	0.151203
1042.372782	0.151973
1042.540093	0.151301
1042.707386	0.150847
1042.874661	0.149435
1043.041918	0.149614
1043.209156	0.149016
1043.376376	0.148639
1043.543578	0.149884
1043.710762	0.148503
1043.877927	0.147788
1044.045074	0.148398
1044.212203	0.149139
1044.379314	0.152290
1044.546407	0.153760
1044.713481	0.154195
1044.880537	0.153661
1045.047575	0.152782
1045.214595	0.153470
1045.381596	0.153746
1045.548579	0.153010
1045.715544	0.150872
1045.882491	0.148534
1046.049420	0.150700
1046.216330	0.149047
1046.383222	0.149260
1046.550096	0.150425
1046.716951	0.149925
1046.883789	0.148495
1047.050608	0.147684
1047.217409	0.148851
1047.384192	0.148791
1047.550956	0.146159
1047.717703	0.146184
1047.884431	0.144473
1048.051140	0.145447
1048.217832	0.144229
1048.384505	0.145205
1048.551161	0.144439
1048.717798	0.144931
1048.884416	0.144673
1049.051017	0.146238
1049.217599	0.146761
1049.384163	0.147471
1049.550709	0.146576
1049.717237	0.148163
1049.883746	0.151325
1050.050237	0.152058
1050.216710	0.150762
1050.383165	0.150711
1050.549601	0.149105
1050.716019	0.147387
1050.882420	0.145853
1051.048801	0.145882
1051.215165	0.145661
1051.381510	0.143199
1051.547837	0.144798
1051.714146	0.148612
1051.880437	0.150599
1052.046709	0.150479
1052.212964	0.152896
1052.379200	0.155162
1052.545417	0.154149
1052.711617	0.153532
1052.877798	0.152933
1053.043961	0.152552
1053.210106	0.149543
1053.376233	0.147429
1053.542341	0.150525
1053.708432	0.148140
1053.874504	0.149159
1054.040557	0.150560
1054.206593	0.151204
1054.372610	0.152685
1054.538609	0.152162
1054.704590	0.151898
1054.870553	0.153171
1055.036497	0.149031
1055.202424	0.149009
1055.368331	0.149372
1055.534221	0.146699
1055.700093	0.148133
1055.865946	0.149836
1056.031781	0.147617
1056.197598	0.149734
1056.363397	0.148884
1056.529177	0.148444
1056.694939	0.150187
1056.860683	0.149046
1057.026409	0.151898
1057.192116	0.151224
1057.357806	0.147920
1057.523477	0.150472
1057.689130	0.145755
1057.854764	0.146401
1058.020381	0.149200
1058.185979	0.148530
1058.351559	0.150044
1058.517120	0.147227
1058.682664	0.144725
1058.848189	0.144462
1059.013696	0.142678
1059.179185	0.147093
1059.344656	0.145970
1059.510108	0.145425
1059.675542	0.147169
1059.840958	0.144454
1060.006356	0.146609
1060.171735	0.146564
1060.337096	0.148490
1060.502439	0.149787
1060.667764	0.148229
1060.833071	0.148192
1060.998359	0.148969
1061.163629	0.148274
1061.328881	0.148258
1061.494115	0.148160
1061.659330	0.149912
1061.824527	0.149192
1061.989706	0.149214
1062.154867	0.147832
1062.320010	0.149731
1062.485134	0.150717
1062.650240	0.148546
1062.815328	0.149246
1062.980398	0.146716
1063.145449	0.148008
1063.310482	0.146227
1063.475497	0.145434
1063.640494	0.146661
1063.805473	0.145578
1063.970433	0.142876
1064.135375	0.145307
1064.300299	0.146862
1064.465204	0.150934
1064.630092	0.149792
1064.794961	0.152500
1064.959812	0.153701
1065.124645	0.154478
1065.289459	0.156338
1065.454256	0.158446
1065.619034	0.157116
1065.783793	0.154656
1065.948535	0.153324
1066.113258	0.154327
1066.277964	0.154486
1066.442651	0.155222
1066.607319	0.154112
1066.771970	0.153264
1066.936602	0.152448
1067.101216	0.154514
1067.265812	0.155706
1067.430389	0.156855
1067.594949	0.156242
1067.759490	0.155853
1067.924013	0.153694
1068.088518	0.153764
1068.253004	0.151561
1068.417472	0.153708
1068.581922	0.153179
1068.746354	0.152961
1068.910768	0.153179
1069.075163	0.153780
1069.239540	0.153855
1069.403899	0.156444
1069.568240	0.157738
1069.732562	0.159379
1069.896866	0.157346
1070.061152	0.154026
1070.225420	0.154663
1070.389670	0.153874
1070.553901	0.153892
1070.718114	0.152092
1070.882309	0.150703
1071.046486	0.150846
1071.210644	0.151690
1071.374784	0.153312
1071.538906	0.157706
1071.703010	0.155905
1071.867096	0.156829
1072.031163	0.158564
1072.195212	0.161599
1072.359243	0.161542
1072.523256	0.162206
1072.687250	0.163575
1072.851226	0.162390
1073.015184	0.161581
1073.179124	0.165044
1073.343045	0.164172
1073.506949	0.164354
1073.670834	0.164635
1073.834701	0.166377
1073.998549	0.163907
1074.162380	0.161742
1074.326192	0.164200
1074.489986	0.163091
1074.653761	0.161254
1074.817519	0.162786
1074.981258	0.161355
1075.144979	0.159506
1075.308682	0.159325
1075.472367	0.161633
1075.636033	0.163178
1075.799681	0.162460
1075.963311	0.163028
1076.126923	0.163579
1076.290516	0.161653
1076.454092	0.161777
1076.617649	0.163189
1076.781187	0.162710
1076.944708	0.160865
1077.108210	0.160478
1077.271695	0.159485
1077.435160	0.159559
1077.598608	0.162007
1077.762038	0.162423
1077.925449	0.160698
1078.088842	0.159806
1078.252217	0.161335
1078.415573	0.163203
1078.578912	0.164441
1078.742232	0.165133
1078.905534	0.165326
1079.068817	0.161398
1079.232083	0.160294
1079.395330	0.161067
1079.558559	0.160985
1079.721770	0.157925
1079.884962	0.156691
1080.048136	0.154599
1080.211293	0.154733
1080.374430	0.157954
1080.537550	0.159675
1080.700651	0.161914
1080.863735	0.161757
1081.026800	0.162905
1081.189846	0.164412
1081.352875	0.169356
1081.515885	0.169027
1081.678877	0.167841
1081.841851	0.162152
1082.004807	0.160805
1082.167744	0.157774
1082.330663	0.159853
1082.493564	0.162513
1082.656447	0.162394
1082.819312	0.157907
1082.982158	0.159210
1083.144986	0.157983
1083.307796	0.162993
1083.470587	0.164757
1083.633361	0.169529
1083.796116	0.170279
1083.958853	0.165470
1084.121571	0.169656
1084.284272	0.169148
1084.446954	0.171680
1084.609618	0.172212
1084.772264	0.170276
1084.934892	0.168321
1085.097501	0.166889
1085.260092	0.166502
1085.422665	0.166191
1085.585220	0.162444
1085.747756	0.167551
1085.910274	0.165644
1086.072774	0.168305
1086.235256	0.169488
1086.397720	0.170276
1086.560165	0.166121
1086.722592	0.165532
1086.885001	0.164980
1087.047392	0.161913
1087.209764	0.156665
1087.372119	0.155969
1087.534455	0.155022
1087.696772	0.155408
1087.859072	0.154011
1088.021353	0.158348
1088.183616	0.158034
1088.345861	0.163354
1088.508088	0.168102
1088.670296	0.170128
1088.832486	0.172142
1088.994658	0.172415
1089.156812	0.171367
1089.318948	0.175955
1089.481065	0.174925
1089.643164	0.175486
1089.805245	0.171936
1089.967308	0.171365
1090.129352	0.176341
1090.291378	0.172114
1090.453386	0.170874
1090.615376	0.172168
1090.777347	0.173391
1090.939301	0.177100
1091.101236	0.175929
1091.263153	0.180000
1091.425051	0.179245
1091.586932	0.172830
1091.748794	0.175597
1091.910638	0.177197
1092.072463	0.174689
1092.234271	0.172993
1092.396060	0.170142
1092.557831	0.172418
1092.719584	0.170147
1092.881319	0.170357
1093.043035	0.173171
1093.204733	0.173413
1093.366413	0.172799
1093.528075	0.173397
1093.689718	0.175682
1093.851343	0.170940
1094.012950	0.170906
1094.174539	0.168571
1094.336110	0.169340
1094.497662	0.170596
1094.659196	0.169698
1094.820712	0.167657
1094.982210	0.170143
1095.143689	0.168676
1095.305151	0.171843
1095.466594	0.174696
1095.628018	0.174487
1095.789425	0.174578
1095.950813	0.173992
1096.112183	0.170417
1096.273535	0.172717
1096.434869	0.174230
1096.596184	0.172070
1096.757482	0.173522
1096.918761	0.171735
1097.080021	0.174369
1097.241264	0.171578
1097.402488	0.167032
1097.563694	0.173440
1097.724882	0.172312
1097.886052	0.171859
1098.047203	0.174101
1098.208336	0.172430
1098.369451	0.176535
1098.530548	0.179757
1098.691627	0.182325
1098.852687	0.185618
1099.013729	0.183726
1099.174753	0.182715
1099.335758	0.175990
1099.496746	0.177054
1099.657715	0.178887
1099.818666	0.169820
1099.979599	0.174837
1100.140513	0.171291
1100.301409	0.174140
1100.462287	0.175786
1100.623147	0.179704
1100.783989	0.182177
1100.944812	0.184747
1101.105617	0.181150
1101.266404	0.183546
1101.427173	0.176316
1101.587923	0.178178
1101.748656	0.172280
1101.909370	0.173677
1102.070066	0.171728
1102.230743	0.172087
1102.391403	0.171644
1102.552044	0.176327
1102.712667	0.178175
1102.873271	0.174488
1103.033858	0.177316
1103.194426	0.179307
1103.354976	0.177474
1103.515508	0.177694
1103.676021	0.181942
1103.836517	0.177779
1103.996994	0.176714
1104.157453	0.176053
1104.317893	0.176966
1104.478316	0.177030
1104.638720	0.176119
1104.799106	0.175864
1104.959474	0.172759
1105.119823	0.173144
1105.280155	0.175467
1105.440468	0.175157
1105.600763	0.172856
1105.761039	0.178843
1105.921298	0.175976
1106.081538	0.178620
1106.241760	0.180606
1106.401964	0.186752
1106.562149	0.185483
1106.722316	0.188143
1106.882465	0.182920
1107.042596	0.182494
1107.202709	0.180439
1107.362803	0.183716
1107.522879	0.185098
1107.682937	0.185358
1107.842977	0.190087
1108.002999	0.187785
1108.163002	0.179076
1108.322987	0.188458
1108.482954	0.191574
1108.642902	0.190421
1108.802833	0.191588
1108.962745	0.184581
1109.122639	0.183899
1109.282515	0.170549
1109.442372	0.172106
1109.602211	0.172613
1109.762032	0.161790
1109.921835	0.167577
1110.081620	0.169083
1110.241386	0.165885
1110.401134	0.172374
1110.560864	0.175265
1110.720576	0.179507
1110.880269	0.182255
1111.039945	0.186233
1111.199602	0.194705
1111.359240	0.186861
1111.518861	0.188743
1111.678463	0.187149
1111.838047	0.187560
1111.997613	0.177799
1112.157161	0.182643
1112.316690	0.178506
1112.476202	0.176783
1112.635695	0.173230
1112.795169	0.173572
1112.954626	0.169512
1113.114064	0.171396
1113.273484	0.168092
1113.432886	0.178797
1113.592270	0.180517
1113.751635	0.186161
1113.910983	0.190495
1114.070312	0.190507
1114.229622	0.198414
1114.388915	0.200034
1114.548189	0.201426
1114.707445	0.206007
1114.866683	0.202142
1115.025903	0.191841
1115.185104	0.191603
1115.344287	0.189426
1115.503452	0.191715
1115.662599	0.187544
1115.821727	0.190921
1115.980838	0.194867
1116.139930	0.187285
1116.299004	0.191704
1116.458059	0.199342
1116.617097	0.200396
1116.776116	0.199210
1116.935117	0.205940
1117.094099	0.212518
1117.253064	0.206113
1117.412010	0.199999
1117.570938	0.210252
1117.729848	0.207840
1117.888740	0.200013
1118.047613	0.199036
1118.206468	0.195687
1118.365305	0.201706
1118.524124	0.189155
1118.682924	0.201672
1118.841707	0.210187
1119.000471	0.207729
1119.159216	0.209338
1119.317944	0.218878
1119.476653	0.214448
1119.635344	0.230183
1119.794017	0.222772
1119.952672	0.224669
1120.111308	0.220841
1120.269927	0.206484
1120.428527	0.210679
1120.587108	0.207671
1120.745672	0.209531
1120.904217	0.208609
1121.062744	0.194626
1121.221253	0.193437
1121.379744	0.199788
1121.538216	0.199883
1121.696671	0.206334
1121.855107	0.198576
1122.013524	0.198155
1122.171924	0.194856
1122.330305	0.196457
1122.488668	0.190590
1122.647013	0.196310
1122.805340	0.192188
1122.963648	0.190135
1123.121938	0.197137
1123.280210	0.199385
1123.438464	0.195748
1123.596700	0.192721
1123.754917	0.196077
1123.913116	0.205357
1124.071297	0.204803
1124.229459	0.205164
1124.387604	0.203473
1124.545730	0.204764
1124.703838	0.202821
1124.861928	0.198624
1125.019999	0.202907
1125.178052	0.212222
1125.336088	0.212893
1125.494104	0.211629
1125.652103	0.211313
1125.810083	0.210805
1125.968045	0.207350
1126.125989	0.213506
1126.283915	0.222778
1126.441823	0.218274
1126.599712	0.194722
1126.757583	0.198219
1126.915436	0.190953
1127.073270	0.200821
1127.231087	0.197441
1127.388885	0.191523
1127.546665	0.190348
1127.704426	0.191925
1127.862170	0.196731
1128.019895	0.211843
1128.177602	0.209298
1128.335291	0.208697
1128.492961	0.208668
1128.650614	0.213031
1128.808248	0.217815
1128.965864	0.220208
1129.123461	0.216468
1129.281041	0.217981
1129.438602	0.210053
1129.596145	0.210954
1129.753670	0.213004
1129.911176	0.209639
1130.068665	0.205514
1130.226135	0.207546
1130.383587	0.207153
1130.541020	0.208925
1130.698436	0.201421
1130.855833	0.202062
1131.013212	0.212202
1131.170573	0.218085
1131.327915	0.213989
1131.485239	0.210530
1131.642545	0.201023
1131.799833	0.198624
1131.957103	0.205466
1132.114354	0.203194
1132.271588	0.208250
1132.428803	0.195220
1132.585999	0.188854
1132.743178	0.185489
1132.900338	0.194160
1133.057480	0.200086
1133.214604	0.202633
1133.371710	0.198030
1133.528797	0.195979
1133.685866	0.191488
1133.842917	0.194471
1133.999950	0.192701
1134.156964	0.195474
1134.313960	0.200000
1134.470938	0.211713
1134.627898	0.207540
1134.784840	0.197374
1134.941763	0.205128
1135.098668	0.207983
1135.255555	0.213918
1135.412424	0.229133
1135.569274	0.238426
1135.726107	0.228935
1135.882921	0.219518
1136.039716	0.229900
1136.196494	0.230158
1136.353253	0.232949
1136.509995	0.237805
1136.666717	0.236952
1136.823422	0.230573
1136.980109	0.220903
1137.136777	0.210562
1137.293427	0.210618
1137.450059	0.198912
1137.606672	0.215402
1137.763267	0.212270
1137.919844	0.209538
1138.076403	0.206569
1138.232944	0.205632
1138.389466	0.210323
1138.545971	0.207902
1138.702457	0.198992
1138.858924	0.197440
1139.015374	0.192024
1139.171805	0.194476
1139.328218	0.189592
1139.484613	0.181237
1139.640990	0.168792
1139.797348	0.165074
1139.953688	0.174882
1140.110010	0.188136
1140.266314	0.201245
1140.422600	0.200168
1140.578867	0.201604
1140.735116	0.198982
1140.891347	0.203837
1141.047559	0.209740
1141.203754	0.210226
1141.359930	0.222481
1141.516088	0.213164
1141.672228	0.196765
1141.828349	0.202013
1141.984452	0.197384
1142.140537	0.204238
1142.296604	0.205657
1142.452653	0.204541
1142.608683	0.207307
1142.764695	0.199131
1142.920689	0.210280
1143.076665	0.222649
1143.232622	0.217736
1143.388562	0.214107
1143.544483	0.215513
1143.700385	0.217338
1143.856270	0.229581
1144.012136	0.224070
1144.167985	0.221903
1144.323814	0.208421
1144.479626	0.207161
1144.635420	0.205703
1144.791195	0.214001
1144.946952	0.215480
1145.102691	0.219846
1145.258411	0.213474
1145.414113	0.217192
1145.569798	0.213284
1145.725463	0.231840
1145.881111	0.248411
1146.036741	0.258091
1146.192352	0.255866
1146.347945	0.254829
1146.503519	0.240455
1146.659076	0.241005
1146.814614	0.231334
1146.970134	0.234160
1147.125636	0.224720
1147.281120	0.196845
1147.436585	0.169752
1147.592032	0.174482
1147.747461	0.172008
1147.902872	0.178180
1148.058265	0.178013
1148.213639	0.181269
1148.368995	0.191589
1148.524333	0.188014
1148.679653	0.190388
1148.834954	0.221139
1148.990237	0.220579
1149.145502	0.228770
1149.300749	0.241017
1149.455977	0.246252
1149.611188	0.235723
1149.766380	0.219511
1149.921553	0.214724
1150.076709	0.212379
1150.231846	0.199811
1150.386966	0.193562
1150.542066	0.182346
1150.697149	0.167653
1150.852214	0.160816
1151.007260	0.168089
1151.162288	0.176782
1151.317298	0.174519
1151.472289	0.187522
1151.627263	0.192809
1151.782218	0.182907
1151.937155	0.186887
1152.092073	0.179678
1152.246974	0.164589
1152.401856	0.172982
1152.556720	0.185208
1152.711566	0.183156
1152.866393	0.185588
1153.021203	0.186593
1153.175994	0.202031
1153.330767	0.206564
1153.485521	0.220618
1153.640258	0.224538
1153.794976	0.220291
1153.949676	0.196778
1154.104358	0.201362
1154.259021	0.194904
1154.413667	0.198046
1154.568294	0.193758
1154.722903	0.203155
1154.877493	0.212919
1155.032066	0.219154
1155.186620	0.231617
1155.341156	0.226097
1155.495674	0.226092
1155.650173	0.243323
1155.804654	0.226384
1155.959118	0.225989
1156.113562	0.201883
1156.267989	0.183423
1156.422397	0.197245
1156.576788	0.181699
1156.731160	0.202656
1156.885513	0.212126
1157.039849	0.197665
1157.194166	0.189631
1157.348465	0.195528
1157.502746	0.206404
1157.657009	0.216733
1157.811253	0.202400
1157.965479	0.208602
1158.119687	0.203766
1158.273877	0.199644
1158.428048	0.195873
1158.582201	0.210051
1158.736337	0.205000
1158.890453	0.188808
1159.044552	0.193618
1159.198632	0.204885
1159.352694	0.212833
1159.506738	0.195578
1159.660764	0.202070
1159.814771	0.206056
1159.968761	0.181207
1160.122732	0.184202
1160.276685	0.208279
1160.430619	0.203296
1160.584535	0.185754
1160.738434	0.178951
1160.892313	0.174935
1161.046175	0.169911
1161.200019	0.187065
1161.353844	0.221924
1161.507651	0.194881
1161.661440	0.202136
1161.815210	0.198586
1161.968962	0.208456
1162.122697	0.210225
1162.276412	0.241017
1162.430110	0.229468
1162.583789	0.217759
1162.737451	0.228710
1162.891094	0.239719
1163.044718	0.214178
1163.198325	0.199762
1163.351913	0.209823
1163.505483	0.197904
1163.659035	0.192238
1163.812569	0.200355
1163.966084	0.179031
1164.119581	0.147136
1164.273060	0.165175
1164.426521	0.169919
1164.579964	0.169809
1164.733388	0.150493
1164.886794	0.156386
1165.040182	0.162980
1165.193551	0.175752
1165.346903	0.181328
1165.500236	0.207906
1165.653551	0.207098
1165.806848	0.192033
1165.960126	0.212154
1166.113386	0.221761
1166.266628	0.204106
1166.419852	0.220407
1166.573058	0.196177
1166.726245	0.191485
1166.879414	0.188256
1167.032565	0.159202
1167.185698	0.175725
1167.338812	0.161812
1167.491909	0.162735
1167.644987	0.182060
1167.798046	0.141381
1167.951088	0.129294
1168.104111	0.131954
1168.257117	0.157397
1168.410103	0.185091
1168.563072	0.161502
1168.716023	0.173014
1168.868955	0.176565
1169.021869	0.178506
1169.174765	0.205993
1169.327642	0.227581
1169.480501	0.203773
1169.633343	0.168451
1169.786165	0.143958
1169.938970	0.163884
1170.091757	0.163178
1170.244525	0.155368
1170.397275	0.126553
1170.550007	0.110961
1170.702720	0.113891
1170.855415	0.119724
1171.008092	0.121874
1171.160751	0.147199
1171.313392	0.154539
1171.466014	0.026850
1171.618619	0.270132
1171.771205	0.270132
1171.923772	0.270132
