sample name	sample
index	1404
start time	 05-10-2021  11:19:26 AM
880	0.491767
Peak Time (s)	91.537
Peak Height 	0.4918
calc peak height	90,93
Baseline Time (s)	9.537
Baseline Value 	-0.003208
subtract baseline	10,4
Abs	0.325979
Peak Time (s)	91.537
Peak Height 	0.326
calc peak height	90,93
Baseline Time (s)	11.037
Baseline Value 	0.003238
subtract baseline	10,3
PK_550	0.164116
Peak Time (s)	92.537
Peak Height 	0.1641
calc peak height	90,93
Baseline Time (s)	8.536
Baseline Value 	4.0502E-4
subtract baseline	10,2
PK_880	0.298808
Peak Time (s)	92.537
Peak Height 	0.2988
calc peak height	90,93
Baseline Time (s)	10.54
Baseline Value 	0.002945
subtract baseline	10,1


Time (s)	A880-A510	A880-A775	A880-A975	A880	I510	I775	I975	I880	
0.035500	-0.000772	0.000263	-0.003271	0.002695	6382.834086	41575.301160	3921.400238	22537.074545
0.536500	-0.005110	-0.001025	-0.005531	0.006827	6314.614601	41096.203650	3905.242447	22350.770750
1.036500	-0.002064	-0.000267	0.002753	0.004108	6360.906022	41402.847272	3933.209728	22473.192467
1.537000	-0.002843	0.000595	-0.003883	0.001494	6375.764428	41711.898747	3922.902587	22591.593337
2.037500	-0.004333	0.000055	-0.003378	0.000551	6371.326413	41747.897193	3926.601809	22634.469093
2.537500	-0.006165	0.000127	-0.002664	0.006109	6311.917147	41260.790813	3914.276543	22382.991643
3.035000	0.002671	0.000554	-0.000138	-0.000347	6435.983944	41872.942189	3937.244342	22675.434243
3.535500	-0.002004	-0.000726	0.000474	0.000502	6390.662856	41682.551216	3936.629914	22636.728931
4.035500	-0.003691	0.000192	0.001234	0.000664	6375.618624	41750.004185	3938.173799	22629.329426
4.536000	-0.000382	-0.000014	-0.001861	0.001499	6395.753507	41657.082618	3928.057353	22591.339004
5.038500	-0.002327	0.000232	0.001188	0.000213	6390.385032	41793.915920	3939.221533	22649.871547
5.536500	-0.003065	-0.000264	-0.000036	-0.000399	6389.355953	41804.290787	3937.639467	22677.779180
6.036500	-0.001445	-0.000474	-0.002381	0.000333	6396.606396	41720.118814	3929.718086	22644.428787
6.537000	-0.001865	0.000477	-0.005414	0.000172	6394.488799	41819.598148	3922.372368	22651.765482
7.037500	-0.003408	-0.000461	-0.004431	-0.000646	6388.573669	41808.846264	3926.972215	22689.074787
7.535000	-0.003965	0.000611	-0.003758	0.000574	6374.123080	41795.569466	3925.570394	22633.421806
8.035000	-0.002212	0.000151	0.000250	-0.000186	6394.574127	41822.433190	3937.829025	22668.070328
8.535500	-0.000176	0.000000	0.002269	-0.000067	6410.251330	41798.261520	3942.749753	22662.648954
9.036000	0.000414	0.001843	0.001428	0.001330	6403.645223	41838.170248	3936.954858	22599.048698
9.536500	-0.002227	-0.000112	-0.000335	0.000000	6392.934953	41782.196317	3935.836583	22659.587318
10.036500	-0.001063	0.000888	0.001448	0.000061	6401.939396	41866.250241	3940.288718	22656.787805
10.539500	0.000000	-0.000104	-0.001831	-0.000547	6415.639124	41831.918360	3933.393123	22684.564315
11.037000	0.000465	0.001108	0.000000	0.000424	6411.487876	41853.566617	3935.608931	22640.280339
11.537500	0.000199	-0.000050	-0.000495	-0.000156	6414.061957	41801.762540	3935.826289	22666.695189
12.034500	-0.001444	0.000302	-0.001719	0.000405	6396.020214	41783.008194	3931.229989	22641.120280
12.535000	-0.001408	0.000838	-0.002581	0.000749	6393.508437	41800.267125	3928.136020	22625.479647
13.035000	-0.000610	0.000498	-0.002577	-0.000165	6407.502491	41851.612428	3930.491432	22667.130006
13.535500	-0.003256	0.000337	-0.002332	0.005877	6337.050584	41299.748979	3915.704890	22393.427574
14.036000	-0.003678	-0.000358	-0.004632	0.001879	6365.872511	41592.601894	3920.014564	22574.093513
14.542000	-0.001736	0.000282	-0.000507	0.002504	6376.553037	41593.987793	3928.956084	22545.758311
15.036500	-0.000513	0.000936	-0.001397	0.000437	6403.364484	41836.887878	3931.976499	22639.650479
15.537000	-0.003882	0.000578	-0.004442	0.004456	6343.437862	41446.921203	3913.959483	22457.472930
16.037000	-0.000388	0.001329	0.000634	0.000594	6403.107906	41858.031163	3936.805942	22632.525882
16.537500	-0.001648	0.000914	-0.000893	-0.000198	6399.275737	41891.862778	3934.907350	22668.605131
17.035000	0.001278	0.000667	0.001905	-0.003430	6449.960014	42160.552905	3950.564151	22816.613099
17.535000	-0.002457	0.000542	-0.000521	0.002433	6371.276461	41623.494902	3929.100801	22548.967071
18.035500	-0.001961	0.000659	-0.000526	0.001571	6382.302451	41710.708334	3931.299550	22588.073000
18.536000	-0.001448	-0.000086	0.003795	0.000801	6392.759948	41713.007679	3944.460974	22623.106405
19.038500	-0.002583	-0.000078	0.001356	0.000514	6385.849583	41739.391059	3938.878480	22636.183627
19.536000	-0.002457	0.000805	-0.002819	0.003597	6361.855356	41543.273165	3920.257399	22496.278989
20.036500	-0.002755	0.000009	-0.000215	0.001025	6380.290836	41701.462521	3933.504324	22612.901131
20.536500	-0.002738	0.000836	0.000258	0.001338	6377.887658	41747.435086	3933.917403	22598.691072
21.034500	-0.003375	0.000370	-0.001991	0.000629	6378.466824	41769.041870	3929.957461	22630.921322
21.534500	-0.002460	-0.000103	-0.000886	0.002554	6370.273420	41555.257907	3927.853973	22543.466769
22.035000	-0.001575	-0.000349	0.005688	0.000266	6396.080789	41737.209195	3950.789840	22647.450868
22.535500	-0.003083	0.000383	-0.004211	0.001389	6374.673984	41702.404990	3922.334808	22596.360426
23.035500	-0.000357	0.000332	-0.001335	0.000968	6400.297849	41735.451773	3930.772567	22615.508580
23.536000	-0.003460	0.000315	0.001417	0.002962	6358.882796	41556.195230	3932.720994	22525.015404
24.035500	0.000447	0.001109	-0.000763	0.002155	6397.173605	41698.761715	3929.191483	22561.568362
24.536500	-0.003050	-0.000124	0.000766	0.000876	6379.101376	41702.844245	3936.419390	22619.682959
25.037000	-0.002747	-0.000110	0.000164	0.001071	6379.977932	41686.759028	3934.362034	22610.806075
25.537000	-0.000086	0.001169	0.000233	0.001566	6397.629941	41756.819822	3933.267875	22588.337682
26.037500	-0.002018	0.001010	0.000989	0.001627	6381.385925	41737.110922	3935.056403	22585.552604
26.535000	-0.001753	0.000140	-0.000665	0.000850	6389.865403	41728.752610	3932.795823	22620.866181
27.035000	-0.001074	0.000202	-0.003140	-0.001347	6413.393263	41931.076854	3932.083792	22721.118747
27.535000	0.001059	0.000921	0.005882	-0.000415	6423.250842	41911.969020	3953.079960	22678.510498
28.035500	-0.002910	-0.000035	0.003913	-0.000698	6393.056102	41851.641560	3948.672908	22691.438489
28.538500	0.001367	0.001027	-0.000186	0.001079	6413.509917	41787.568047	3933.440237	22610.444265
29.036500	-0.001931	0.000300	-0.001334	-0.000171	6396.748198	41834.420624	3933.704021	22667.388731
29.536500	0.001806	0.000706	-0.000018	0.000113	6425.055931	41845.335491	3936.366423	22654.455623
30.039500	0.000954	0.001346	0.001689	0.000377	6415.881967	41879.002530	3940.094874	22642.406136
30.542500	-0.002605	0.000513	-0.002208	0.002347	6370.782772	41628.554014	3925.002236	22552.880143
31.037500	-0.003551	0.000087	-0.001006	0.001059	6373.547916	41705.365754	3931.382279	22611.362294
31.535000	-0.002165	0.000133	0.001699	-0.000221	6395.249244	41824.010600	3941.671535	22669.687490
32.035500	-0.000346	0.001259	-0.002429	0.000406	6404.991801	41868.687722	3929.406965	22641.107434
32.535500	-0.000099	0.000606	-0.000753	0.000451	6406.638436	41806.137822	3933.597709	22639.020503
33.036000	0.000835	0.000272	0.002208	-0.000575	6422.731609	41868.131517	3943.913267	22685.834018
33.541500	-0.004614	0.000162	-0.003143	0.004275	6339.008691	41426.041207	3917.710708	22465.643011
34.036500	-0.001988	0.000829	0.002122	0.002309	6376.090919	41660.104942	3936.220588	22554.594616
34.536500	-0.001808	-0.000047	-0.001767	0.001533	6383.858867	41651.177059	3928.212209	22589.803481
35.037000	-0.001309	0.000898	-0.001089	0.002323	6381.487805	41664.920761	3927.926185	22553.939430
35.537500	-0.002279	0.000411	0.000976	0.001607	6379.428411	41685.443644	3935.074220	22586.469884
36.035000	-0.003172	0.001088	-0.001866	0.002044	6368.634740	41706.818395	3926.649525	22566.589838
36.535000	-0.002273	0.001255	-0.001403	0.002428	6372.813904	41687.441961	3926.853285	22549.189518
37.035000	-0.000366	0.000842	0.001186	0.002302	6389.343255	41661.906494	3933.824534	22554.914343
37.535500	-0.001044	0.001136	0.004240	0.001649	6389.133960	41746.381380	3943.411003	22584.527970
38.038500	-0.001331	0.001453	0.001704	0.002102	6383.110477	41734.243433	3935.674602	22563.975920
38.535500	-0.002593	0.000877	0.000453	0.001532	6377.484683	41733.728829	3933.920329	22589.854859
39.036500	-0.000630	0.001177	0.004541	0.001992	6389.720834	41719.456297	3943.305517	22568.986061
39.537000	-0.001894	0.000316	0.002350	0.003582	6366.533892	41501.185283	3933.525807	22496.941363
40.037000	-0.001336	0.000655	0.002968	0.001811	6385.438159	41688.951256	3939.693518	22577.198615
40.537500	-0.001948	0.001115	0.002432	0.002131	6377.861373	41701.501688	3937.478381	22562.660315
41.035000	-0.002034	0.000640	0.003367	0.001832	6379.585481	41685.710156	3940.672413	22576.222198
41.535000	-0.002493	0.000435	-0.001882	0.002611	6369.545683	41598.149627	3925.160173	22540.915724
42.035500	-0.002102	0.000061	0.001045	0.001248	6383.789250	41686.239353	3936.179791	22602.775930
42.536000	-0.002903	0.000101	0.000161	0.001426	6375.833995	41673.978413	3933.442182	22594.697836
43.036000	-0.002962	-0.000165	-0.000797	0.000803	6380.414752	41705.763535	3932.580788	22623.030663
43.536500	-0.003641	0.000540	-0.001927	0.003804	6350.629756	41501.321862	3922.001980	22486.903124
44.037000	-0.000112	0.001702	0.001431	0.000597	6405.336622	41891.248034	3938.859321	22632.393200
44.536500	0.001067	0.000725	-0.001447	-0.000406	6423.241702	41893.498599	3934.016347	22678.094606
45.037000	-0.000603	0.000740	-0.000932	-0.000157	6407.493647	41872.585076	3934.702988	22666.745093
45.534500	-0.006842	-0.000534	-0.000676	0.004173	6321.966036	41373.360671	3924.250546	22470.212140
46.035000	-0.000814	0.001462	-0.000387	0.001950	6388.563688	41748.701673	3930.686103	22570.899249
46.535500	-0.001575	0.001060	-0.000314	0.000240	6396.299075	41865.733459	3935.273246	22648.658004
47.035500	-0.000871	0.000224	-0.004495	-0.000247	6406.030416	41834.407257	3925.786255	22670.848364
47.538500	-0.003697	-0.000292	-0.005621	0.004461	6344.887852	41369.386393	3910.968608	22457.246604
48.035500	-0.004167	0.000987	0.001224	0.002692	6355.352957	41640.007966	3932.916784	22537.223777
48.536500	-0.001269	0.000973	-0.001678	0.000441	6397.150383	41839.873525	3931.243725	22639.484162
49.037000	-0.000999	0.000955	-0.001606	-0.000019	6403.123964	41879.477472	3932.613391	22660.462934
49.537000	-0.003986	-0.000063	-0.000634	0.004505	6342.204726	41385.786151	3923.510044	22455.258909
50.037500	-0.000454	0.000400	-0.004249	0.002599	6386.202804	41596.018502	3919.156785	22541.421977
50.534500	-0.000139	0.000447	0.003221	0.001143	6400.647958	41730.057466	3942.080104	22607.538085
51.035000	0.019296	-0.002007	0.007485	0.011264	6477.613875	40622.921283	3926.985969	22152.600473
51.535500	0.013533	-0.003516	0.011908	0.214778	5090.645552	26442.983142	3518.184432	14934.110885
52.038500	-0.011114	-0.013405	0.007480	0.228784	4899.872700	25184.721899	3488.971237	14550.860133
52.536000	0.019427	-0.026889	-0.032222	-0.196047	8698.515592	60295.434015	4450.576701	33956.864629
53.036000	0.016422	-0.059426	-0.027796	-0.258145	9550.928586	64335.354901	4721.269324	38737.142428
53.536500	0.028612	-0.047830	-0.018923	-0.240684	9470.094580	63511.735807	4683.951712	37323.235395
54.037000	0.022469	-0.031482	-0.007135	-0.209730	8928.114494	61508.477641	4603.273528	34952.226916
54.537000	0.018461	-0.019585	-0.000690	-0.171081	8359.542089	58009.661509	4475.484441	32219.526175
55.034500	0.018455	-0.011675	0.014076	-0.127903	7838.095365	53714.349743	4370.348709	29440.829652
55.535000	0.025319	-0.005911	0.016910	-0.108771	7699.171200	52175.289541	4313.073506	28295.222176
56.035500	0.037558	0.000716	0.040517	-0.081762	7537.038352	49917.983896	4301.386630	26761.468599
56.535500	0.055854	0.010069	0.058446	-0.019662	7087.387495	44545.194083	4157.669280	23576.657223
57.036000	0.077650	0.023170	0.084937	0.051344	6633.495120	39351.780163	4026.889007	20451.681478
57.536500	0.100813	0.036891	0.105740	0.093537	6471.308023	37041.219539	3968.659902	18822.842553
58.036500	0.117651	0.048129	0.126526	0.146566	6181.801817	33912.735413	3886.131582	16987.847342
58.536500	0.137218	0.057703	0.149615	0.213297	5838.960323	30093.264913	3783.750897	14975.349561
59.037000	0.158196	0.070352	0.167717	0.236452	5824.017577	29444.330662	3772.547952	14346.248635
59.537500	0.176689	0.079703	0.184932	0.257586	5805.988531	28734.867130	3763.946919	13800.589687
60.034500	0.192347	0.091276	0.205289	0.277897	5774.485455	28221.028606	3764.047827	13300.617044
60.535000	0.207293	0.101047	0.223761	0.322576	5580.999536	26268.548734	3708.488784	12279.760701
61.035000	0.225042	0.109072	0.243682	0.355244	5488.787208	24981.699231	3682.651673	11597.072851
61.538500	0.231419	0.115020	0.251613	0.395087	5293.114076	23326.879945	3621.203146	10831.053753
62.036000	0.239805	0.121260	0.257323	0.430961	5143.296829	21982.142349	3567.125417	10198.944463
62.536500	0.243219	0.127256	0.255849	0.416708	5238.497281	22891.048573	3589.577733	10443.855910
63.036500	0.247796	0.130774	0.266370	0.416179	5266.735298	23077.767047	3609.530540	10453.090212
63.542000	0.253230	0.133253	0.277668	0.416538	5295.141551	23176.360675	3629.792370	10446.818761
64.037000	0.251363	0.136270	0.275104	0.424313	5241.457292	22955.816263	3610.628383	10312.165208
64.537500	0.262662	0.140732	0.282038	0.422215	5316.369102	23260.468762	3627.343952	10348.273451
65.037500	0.260976	0.141155	0.280170	0.422842	5303.272157	23250.921977	3622.692499	10337.462474
65.535500	0.260340	0.142388	0.288048	0.431074	5253.692406	22926.219340	3622.034485	10197.033680
66.035500	0.269066	0.145897	0.288087	0.430803	5304.003649	23100.976894	3622.609769	10201.618238
66.536000	0.273312	0.149086	0.294153	0.435533	5301.270522	23029.560304	3625.097710	10122.074561
67.036000	0.271196	0.148690	0.290075	0.436746	5282.553118	22955.266741	3615.292006	10101.818086
67.536500	0.273555	0.151123	0.296987	0.446429	5241.879586	22623.934374	3610.203358	9942.105502
68.036500	0.274121	0.151241	0.296756	0.448295	5234.731221	22544.844841	3606.374224	9911.728218
68.537000	0.275014	0.150897	0.296631	0.443632	5265.430273	22740.746853	3614.684188	9987.867794
69.034500	0.279700	0.155626	0.303703	0.448425	5264.832826	22737.835766	3618.888910	9909.616047
69.537500	0.274114	0.154060	0.303211	0.454275	5202.088094	22402.634701	3607.239078	9815.271739
70.035000	0.281106	0.156916	0.297002	0.458373	5217.812482	22347.096033	3588.665248	9749.938388
70.535500	0.280123	0.156724	0.302777	0.452514	5244.537662	22601.965625	3609.663311	9843.534322
71.038500	0.284348	0.158140	0.299401	0.453861	5260.457065	22605.079630	3601.070765	9821.902081
71.536000	0.284722	0.156391	0.303480	0.461304	5221.547464	22193.238067	3595.007490	9703.573043
72.035500	0.283186	0.158293	0.313333	0.464283	5197.025704	22145.585442	3607.448466	9656.789576
72.536500	0.291765	0.161983	0.308874	0.461233	5260.706232	22445.936599	3604.881566	9704.697005
73.036500	0.288035	0.161629	0.308774	0.461806	5236.940668	22404.339407	3603.658855	9695.667521
73.537000	0.289197	0.161749	0.309445	0.462693	5238.454889	22370.015124	3603.266743	9681.724069
74.037500	0.287089	0.162129	0.307845	0.469732	5188.684025	22074.325702	3587.745706	9572.014335
74.534500	0.288457	0.163006	0.313280	0.464255	5225.831177	22356.371783	3607.401731	9657.230557
75.035000	0.293073	0.164793	0.312624	0.466434	5239.197251	22338.853792	3602.247343	9623.200523
75.535500	0.293008	0.163711	0.310567	0.465761	5242.546946	22320.568108	3599.743170	9633.689940
76.035500	0.289587	0.165070	0.305691	0.473404	5182.374319	22042.187696	3577.452164	9515.493888
76.535500	0.293820	0.166412	0.313836	0.468872	5229.919035	22302.287093	3600.029883	9585.331058
77.036500	0.294988	0.165702	0.312931	0.469037	5235.417800	22263.329239	3598.099272	9582.777454
77.539500	0.288279	0.164460	0.308691	0.474712	5168.369493	21958.028156	3580.429217	9495.483200
78.037000	0.289962	0.163939	0.313881	0.476753	5166.461981	21846.164468	3585.996994	9464.360369
78.537000	0.299052	0.167620	0.317936	0.473803	5231.565819	22137.031645	3598.527826	9509.376931
79.037500	0.299216	0.166169	0.317014	0.473688	5233.095900	22078.079958	3597.075362	9511.146785
79.535500	0.300568	0.167546	0.317834	0.476045	5227.588735	22034.938169	3594.314171	9475.142499
80.035500	0.300008	0.165835	0.316183	0.475369	5228.225758	21989.482990	3592.566663	9485.450468
80.538000	0.296355	0.166477	0.314521	0.476184	5203.886117	21981.896857	3588.145186	9473.014387
81.036000	0.298228	0.166343	0.323592	0.477036	5209.427917	21938.708706	3602.911364	9460.061696
81.536000	0.298404	0.166515	0.315481	0.478166	5204.249615	21896.853681	3586.327945	9442.897210
82.036500	0.295155	0.164868	0.317665	0.484106	5154.970218	21568.558268	3579.689697	9353.455682
82.537000	0.298634	0.165704	0.328245	0.478437	5204.026585	21849.698850	3608.831214	9438.798154
83.037000	0.299275	0.165580	0.314587	0.479376	5202.412263	21803.449665	3582.601905	9424.575341
83.537500	0.297540	0.165709	0.314053	0.486463	5155.121062	21503.652004	3569.255725	9318.305505
84.035000	0.296459	0.166025	0.322526	0.486799	5147.608408	21502.774849	3583.514458	9313.298044
84.538000	0.299951	0.165739	0.326449	0.481112	5196.679598	21735.097917	3600.703595	9398.391507
85.038000	0.299274	0.165964	0.319448	0.482016	5188.155849	21705.709351	3586.536370	9384.790763
85.536000	0.294921	0.165339	0.323160	0.488130	5132.479490	21416.753149	3582.281763	9293.543553
86.035500	0.301036	0.164901	0.326829	0.482388	5195.646912	21643.836067	3599.085845	9379.201208
86.539000	0.298565	0.164268	0.323085	0.481352	5187.914686	21661.209990	3594.212661	9394.777769
87.036500	0.296810	0.163424	0.322036	0.481532	5177.517715	21617.102935	3592.011054	9392.063988
87.536500	0.293495	0.164319	0.326453	0.488582	5122.634263	21354.256021	3587.315345	9286.851636
88.037000	0.295502	0.164810	0.326113	0.489299	5129.391808	21344.673750	3585.439887	9276.246471
88.537000	0.296164	0.164154	0.327027	0.483673	5162.633024	21556.501931	3597.124956	9359.933394
89.037500	0.299983	0.164427	0.325858	0.484517	5178.527031	21532.042069	3593.509048	9347.308977
89.535500	0.299714	0.163200	0.325027	0.484163	5178.979761	21494.671074	3592.655538	9352.596517
90.035500	0.296942	0.162192	0.324783	0.489307	5136.921112	21233.702378	3583.070205	9276.126269
90.536000	0.297606	0.163833	0.325227	0.485431	5160.951210	21467.600622	3590.745515	9333.668945
91.036000	0.294851	0.162722	0.319599	0.485565	5145.631230	21414.559841	3580.526062	9331.670238
91.536500	0.294526	0.163462	0.325979	0.491767	5111.391815	21183.668485	3580.838096	9239.877969
92.037000	0.296230	0.163641	0.324735	0.491050	5124.036772	21221.364349	3579.911100	9250.430404
92.536500	0.298808	0.164116	0.322230	0.487627	5155.668557	21386.142932	3581.527731	9301.005955
93.037500	0.295673	0.163080	0.329574	0.487476	5139.881025	21348.609319	3594.866767	9303.247776
93.534500	0.298828	0.163700	0.318760	0.488444	5151.441071	21333.878048	3574.001251	9288.898353
94.035500	0.293116	0.162175	0.323496	0.492428	5100.638609	21102.000443	3575.316900	9230.172815
94.538000	0.299114	0.162267	0.324295	0.488815	5150.994073	21257.626927	3583.079294	9283.415496
95.035500	0.295545	0.161568	0.321929	0.489119	5130.569508	21215.401129	3578.372688	9278.917602
95.536000	0.300735	0.162954	0.327360	0.490878	5148.654088	21199.685202	3584.851899	9252.960454
96.036500	0.296150	0.162380	0.327047	0.490096	5128.617281	21208.432836	3585.683909	9264.490269
