sample name	sample
index	1031
start time	 04-19-2021  12:37:31 PM
880	0.519347
Peak Time (s)	101.538
Peak Height 	0.5193
calc peak height	100,103
Baseline Time (s)	9.534
Baseline Value 	-0.005018
subtract baseline	10,4
Abs	0.354808
Peak Time (s)	101.035
Peak Height 	0.3548
calc peak height	100,103
Baseline Time (s)	9.534
Baseline Value 	0.002621
subtract baseline	10,3
PK_550	0.200560
Peak Time (s)	100.043
Peak Height 	0.2006
calc peak height	100,103
Baseline Time (s)	9.534
Baseline Value 	5.7879E-4
subtract baseline	10,2
PK_880	0.327400
Peak Time (s)	100.043
Peak Height 	0.3274
calc peak height	100,103
Baseline Time (s)	10.035
Baseline Value 	9.4456E-4
subtract baseline	10,1


Time (s)	A880-A510	A880-A775	A880-A975	A880	I510	I775	I975	I880	
0.034500	-0.001443	-0.000358	0.000772	0.003005	6566.984278	45966.480075	3987.031023	24317.812606
0.540000	-0.003035	-0.000539	-0.005097	0.003977	6544.710454	45852.035368	3967.823761	24269.654097
1.035000	-0.000982	-0.000499	0.000333	0.003712	6564.845337	45882.260933	3983.793181	24282.766361
1.535000	0.000518	-0.000165	-0.003157	0.001344	6598.684791	46151.085332	3980.631081	24400.351265
2.035000	-0.001340	-0.000769	-0.005884	0.000302	6591.514636	46194.810792	3975.897346	24452.289049
2.539000	-0.002009	-0.000279	-0.002073	0.000440	6584.450364	46230.046837	3986.238449	24445.405848
3.036500	0.000869	-0.000229	-0.002536	0.001288	6602.262506	46150.260033	3982.537712	24403.134655
3.536500	0.000565	0.000093	0.003774	0.000916	6602.860348	46219.597940	4001.520868	24421.671180
4.037000	-0.002015	-0.000389	0.000313	0.000507	6583.806028	46212.213078	3992.813524	24442.036307
4.537000	-0.001964	0.000216	-0.002106	0.001055	6579.452896	46217.923922	3984.406199	24414.711877
5.037000	0.001499	-0.000097	-0.002505	0.000914	6611.097182	46200.829256	3983.680483	24421.766506
5.535000	0.000070	0.000067	0.001342	0.000769	6599.795690	46231.625968	3994.996953	24428.977645
6.035000	0.000591	-0.000328	-0.001196	0.000269	6608.779135	46242.209997	3989.205742	24453.921738
6.536000	-0.000825	-0.000832	0.001799	0.000208	6596.867350	46197.927233	3997.898643	24456.985147
7.038500	0.001580	-0.000515	-0.000722	0.000013	6619.759274	46249.038453	3991.275715	24466.695204
7.536500	0.000821	-0.000174	0.003294	0.000413	6609.542051	46243.147889	4001.586608	24446.745007
8.036500	0.001601	0.000656	0.003278	0.000718	6613.720573	46295.652972	4000.667134	24431.519036
8.536500	0.000268	-0.000622	-0.002345	-0.000553	6613.178809	46294.979358	3988.278298	24494.982847
9.037500	0.000883	0.000191	0.002449	0.000340	6610.723753	46286.986656	3999.376273	24450.366535
9.534500	0.001239	0.000000	0.000000	0.000000	6616.869670	46301.891676	3993.365002	24467.347497
10.035000	0.000000	-0.000213	0.002550	-0.000092	6606.752894	46289.770630	4000.903496	24471.941959
10.535000	-0.001746	-0.000250	0.001712	-0.000426	6594.338971	46319.500104	3999.461258	24488.615858
11.035500	-0.000907	0.000877	-0.000802	0.001301	6586.554027	46259.540231	3987.398347	24402.494721
11.538500	-0.000934	0.000178	-0.001063	0.000110	6596.768039	46308.701692	3990.032794	24461.869519
12.036000	0.001833	-0.000016	0.000761	0.000079	6621.414556	46292.326727	3995.304546	24463.386995
12.536500	0.000134	-0.000100	0.001817	-0.000346	6610.176554	46326.562734	3999.532781	24484.656013
13.037000	-0.000348	-0.000118	-0.000052	0.000904	6594.929057	46199.672369	3990.646999	24422.228605
13.537000	0.002961	0.000260	-0.000656	-0.000023	6632.308477	46330.274821	3991.568348	24468.518330
14.037000	-0.000695	0.000299	-0.000710	0.002681	6576.342190	46064.015785	3983.758392	24333.887515
14.537500	-0.000190	-0.000210	0.002083	0.001118	6594.446138	46169.089471	3996.113421	24411.576904
15.035000	0.000341	0.000460	0.003088	0.000779	6602.085080	46269.968473	3999.950060	24428.469582
15.535500	0.000775	0.000343	-0.002338	-0.000275	6615.195761	46363.795631	3987.510667	24481.065080
16.038000	0.000597	-0.000253	-0.000193	-0.000463	6615.286278	46322.893127	3994.133906	24490.485940
16.536000	0.000065	-0.000610	-0.001363	0.000681	6600.524613	46172.789125	3987.564392	24433.350793
17.036000	0.000370	-0.000227	0.003496	-0.002058	6627.379737	46485.617673	4009.264328	24570.368055
17.536500	-0.001528	0.000761	0.000913	0.001990	6575.095763	46178.998990	3990.303119	24368.173655
18.036500	0.000621	0.001006	-0.004942	0.002448	6589.900116	46157.754264	3972.525702	24345.461009
18.537000	-0.001056	-0.000137	-0.000184	0.001334	6584.960111	46154.838600	3989.054794	24400.822782
19.037000	-0.000765	0.000436	-0.000945	0.001823	6583.222663	46163.280756	3985.518380	24376.499071
19.535000	0.000369	0.000459	0.001205	0.002247	6589.441260	46123.217999	3990.404095	24355.403618
20.035000	0.000031	0.001121	-0.001108	0.001896	6589.564188	46224.424836	3984.852328	24372.885906
20.537500	-0.000007	0.000804	-0.001396	0.001605	6591.778724	46221.725457	3984.859609	24387.340582
21.036000	0.000421	-0.000352	-0.000903	0.000985	6600.979961	46168.170348	3988.004066	24418.187725
21.536500	-0.001658	-0.000182	0.000186	0.001330	6579.724890	46150.782418	3990.116419	24401.034306
22.036500	-0.000501	0.000275	-0.002046	0.001779	6585.921500	46151.569100	3982.532755	24378.678683
22.537000	0.000035	0.000459	0.004041	0.001551	6592.622917	46192.686754	4000.469606	24390.050093
23.037000	0.000099	0.000487	0.000798	0.001725	6591.656093	46178.096036	3990.730468	24381.371864
23.537000	0.000672	0.000905	-0.001993	0.001930	6594.882563	46199.394486	3982.255596	24371.165262
24.037500	0.000523	0.000239	-0.001183	0.001322	6598.913058	46193.582952	3986.259105	24401.415218
24.535000	-0.001242	0.000099	-0.003804	0.001288	6583.734732	46183.008315	3978.966819	24403.119525
25.038000	0.000403	0.000485	-0.000350	0.001629	6595.160486	46187.527647	3987.748768	24386.146981
25.535500	-0.000308	0.000446	0.000622	0.001655	6588.702307	46180.997619	3990.431069	24384.845001
26.036000	0.001279	-0.000032	0.002322	0.001476	6604.203665	46151.060595	3995.770970	24393.738581
26.536000	-0.002176	-0.000045	0.001640	0.002614	6564.004109	46036.487969	3990.597716	24337.195663
27.036500	0.001107	-0.000063	0.003853	-0.001370	6627.810332	46432.926572	4008.311046	24535.878961
27.537000	0.000077	0.000205	0.001830	-0.000134	6607.796895	46335.814039	3998.963505	24474.031509
28.037000	-0.000730	0.000013	-0.002778	-0.000336	6602.472443	46336.844253	3986.438301	24484.131559
28.534500	-0.001304	-0.000029	-0.002024	0.003798	6561.289559	45920.340516	3976.915248	24278.494489
29.035000	-0.001308	0.000126	-0.001913	0.000052	6593.981007	46309.298657	3987.788515	24464.730668
29.538000	0.002106	0.000463	0.002929	0.000069	6623.922924	46341.373344	4001.525826	24463.903421
30.035000	0.000311	0.000558	-0.001527	0.000483	6604.433958	46309.413392	3987.661907	24443.243985
30.536000	0.000556	0.000674	0.004050	0.004824	6568.546574	45888.292727	3991.164892	24227.750605
31.036500	-0.000592	0.000388	0.003399	0.001258	6589.688697	46214.920990	3999.471104	24404.619556
31.535500	-0.000693	-0.000606	-0.000341	0.000011	6599.757794	46240.235502	3992.365966	24466.817300
32.037000	-0.000445	0.000047	-0.000381	0.000656	6596.266247	46240.958188	3990.420328	24434.614484
32.540000	-0.001490	0.000394	0.000953	0.004372	6554.683106	45905.454374	3983.680707	24250.125537
33.037000	0.002649	0.000647	0.002657	0.001204	6618.685184	46246.142417	3997.503450	24407.296218
33.534500	0.000626	0.000671	0.002934	0.001850	6595.181929	46184.026261	3996.451069	24375.156695
34.038000	-0.000567	-0.000275	0.001238	0.001980	6583.582356	46076.619941	3991.254524	24368.682022
34.535500	-0.002650	-0.000049	0.002162	0.003480	6552.359228	45949.990796	3989.623847	24294.262005
35.036000	-0.001113	0.000503	0.001347	0.003191	6568.237030	46033.545407	3988.129089	24308.549006
35.535500	-0.000967	-0.000112	0.001236	0.002402	6576.398466	46050.872454	3990.051282	24347.701051
36.036000	-0.001917	0.000274	-0.003598	0.002353	6568.542028	46094.239410	3976.554533	24350.178072
36.536500	-0.001119	0.000397	-0.002443	0.004261	6558.874375	45916.752044	3974.444969	24255.610410
37.037000	0.000187	-0.000143	0.001335	0.002201	6588.254864	46067.819664	3990.902159	24357.691821
37.537500	-0.001825	0.000952	-0.001250	0.002629	6566.937390	46134.297003	3982.382409	24336.465185
38.034500	-0.002009	0.000382	0.004346	0.002180	6569.241158	46122.220946	3999.542404	24358.752826
38.537500	-0.001784	0.000011	-0.003794	0.001567	6576.555585	46146.402870	3978.211806	24389.227031
39.035000	0.000096	0.000550	0.001748	0.002040	6588.869950	46152.971716	3992.533576	24365.712214
39.535500	0.001446	0.000362	0.002600	0.001605	6604.544386	46177.606500	3996.199748	24387.359653
40.035500	0.002235	0.000521	-0.000555	0.001729	6610.393951	46181.099152	3986.886014	24381.152603
40.536000	0.000523	0.000080	-0.002349	0.001145	6600.475057	46195.378350	3983.468685	24410.261085
41.036000	0.001497	0.000652	-0.000923	0.001762	6603.610566	46190.957164	3985.751437	24379.547654
41.536500	-0.000908	-0.000025	0.000967	0.001056	6588.693858	46193.818464	3993.111804	24414.669794
42.037000	0.000470	0.000124	-0.004820	0.001133	6600.107062	46201.021262	3976.549954	24410.842302
42.537000	-0.002299	0.000275	0.001635	0.001488	6572.745749	46180.609250	3993.782435	24393.166385
43.037500	0.000594	0.000470	0.001447	0.001945	6594.064656	46154.447484	3991.948446	24370.439480
43.537500	0.001565	0.000285	0.003019	-0.000864	6627.386210	46417.087944	4004.456298	24510.522465
44.035000	0.001034	-0.000399	-0.000280	-0.000452	6619.048287	46307.240793	3993.853356	24489.940399
44.535500	-0.002547	0.000353	-0.002482	0.005725	6533.802600	45767.280493	3970.240850	24183.305215
45.036000	-0.002519	-0.000694	-0.000653	0.003579	6552.631568	45876.069324	3981.386231	24289.326133
45.536000	0.000995	0.000392	0.004308	0.000210	6612.863880	46320.160039	4005.075839	24456.866419
46.036500	0.003025	0.000876	0.001668	0.000884	6624.839945	46301.077364	3995.596353	24423.244639
46.536500	-0.000081	0.000450	0.001855	0.005682	6555.544295	45781.152297	3982.528623	24185.434113
47.034000	-0.001381	0.000338	0.001021	0.004664	6553.092351	45870.879602	3983.048393	24235.676793
47.537000	-0.001844	0.000420	0.000010	0.003514	6559.063955	45993.239905	3983.439611	24292.581734
48.035000	0.001703	0.000590	-0.000020	0.001384	6608.756358	46222.455779	3989.378309	24398.346723
48.535000	-0.002148	-0.000265	-0.002274	0.005317	6540.785101	45746.563169	3971.962657	24203.452111
49.035500	-0.001427	0.000939	0.003248	0.004223	6556.523966	45974.331840	3990.596287	24257.496317
49.536000	0.001657	0.000314	0.003147	-0.001715	6635.745972	46505.521801	4007.269717	24553.146806
50.035500	0.000685	0.002148	-0.003513	0.004252	6574.672431	46091.765106	3971.476626	24256.048359
50.536000	0.003496	-0.009038	0.015464	0.077590	6006.250523	38437.992257	3828.722628	20918.907117
51.036500	0.029393	-0.007901	0.028434	0.275498	4951.963240	25459.352504	3457.467989	14279.655931
51.536500	-0.003722	-0.020395	-0.025630	-0.024085	6789.476220	46672.942468	3988.976282	25704.113960
52.040000	-0.012033	-0.107733	-0.039370	-0.266781	9656.361677	65535.000000	4843.387179	42866.615142
52.534500	-0.011486	-0.078415	-0.032818	-0.232838	9147.600870	64870.630542	4715.934001	39852.816160
53.037500	-0.008603	-0.089823	-0.026812	-0.248782	9429.591655	65522.100328	4817.424442	41239.140373
53.535500	-0.005142	-0.085045	-0.025600	-0.244053	9410.216773	65529.124231	4800.814807	40822.615811
54.035500	-0.005202	-0.059590	-0.022832	-0.212399	8943.483982	64640.432630	4669.370961	38148.417011
54.536000	-0.006401	-0.044788	-0.024076	-0.191615	8639.395464	63794.647233	4574.846967	36495.586083
55.036000	-0.003086	-0.049307	-0.016398	-0.197839	8769.448737	64034.476324	4633.941598	36982.248891
55.536000	0.003141	-0.039218	-0.007846	-0.182516	8645.364302	63301.144548	4604.924036	35796.536812
56.036500	0.009684	-0.018334	-0.001125	-0.137190	8144.502374	59990.947702	4447.846615	32524.260773
56.539500	0.014663	-0.003485	0.007874	-0.080565	7543.319006	54747.379882	4272.344951	28888.122933
57.037000	0.033401	0.005373	0.018968	-0.045932	7372.218772	51754.870725	4192.460167	26886.862164
57.535000	0.048142	0.015383	0.036760	0.002021	7034.320990	47660.665360	4096.227052	24366.639094
58.035000	0.061977	0.024715	0.056228	0.044642	6761.637966	44351.680095	4026.762555	22348.681888
58.535500	0.075555	0.036020	0.077511	0.096499	6425.933326	40648.715609	3940.521483	20146.039859
59.035500	0.103925	0.051022	0.101810	0.127474	6404.141778	39282.510445	3922.484929	18950.501547
59.536000	0.123184	0.061882	0.128743	0.170044	6214.878996	36714.739520	3881.308147	17440.542890
60.036000	0.145144	0.073901	0.150770	0.209928	6076.103600	34607.960671	3836.062183	16154.013213
60.536000	0.165538	0.085820	0.166014	0.256840	5881.012104	32146.769064	3760.260315	14784.528496
61.039500	0.186680	0.098885	0.193634	0.312195	5646.286926	29425.278657	3698.263100	13347.787709
61.537500	0.205009	0.104615	0.214554	0.331239	5641.581216	28621.840439	3702.333553	12894.343902
62.035000	0.217687	0.116904	0.230880	0.338633	5676.578457	28914.402599	3721.954118	12723.584933
62.537500	0.235171	0.128616	0.246542	0.364650	5620.270115	28068.691470	3699.244250	12145.307935
63.034500	0.247213	0.132974	0.275274	0.426595	5312.235987	24932.627272	3629.956159	10900.222501
63.535500	0.257476	0.140462	0.279153	0.434623	5325.285006	24905.125622	3621.665732	10751.462906
64.036000	0.270146	0.151749	0.293697	0.443861	5345.458180	25009.601683	3632.281360	10583.669585
64.536000	0.276126	0.152306	0.299435	0.470527	5226.240922	23714.613816	3591.156046	10118.847990
65.036500	0.283981	0.157436	0.310948	0.475386	5243.165490	23727.670209	3604.018967	10037.193646
65.539500	0.286855	0.160491	0.317594	0.508081	5079.875744	22348.033869	3554.774228	9510.814242
66.037000	0.287124	0.161526	0.324263	0.522115	5008.199990	21772.056886	3541.377181	9296.744974
66.537000	0.290264	0.165970	0.323140	0.523467	5017.382748	21907.480375	3536.926630	9276.482274
67.037000	0.295553	0.168214	0.326929	0.517239	5077.437042	22283.594911	3555.097520	9370.334795
67.535000	0.295110	0.168398	0.323437	0.511864	5103.652623	22534.404623	3558.562634	9452.429159
68.040500	0.295473	0.171401	0.330470	0.509965	5115.768663	22758.216137	3575.193528	9481.669122
68.535500	0.298106	0.172513	0.323267	0.512648	5115.501215	22686.175977	3556.803473	9440.379763
69.038500	0.300222	0.174725	0.332694	0.507821	5153.098922	23010.928841	3583.453074	9514.848057
69.536500	0.300972	0.176579	0.331845	0.504831	5173.602145	23237.454657	3587.532548	9561.383240
70.039000	0.305968	0.178824	0.331174	0.504646	5202.299414	23352.036345	3586.603985	9564.270739
70.536500	0.303580	0.179012	0.337340	0.509642	5161.501867	23125.905986	3588.839400	9486.659200
71.037000	0.305106	0.181745	0.340324	0.509082	5172.962454	23280.512016	3595.645518	9495.317998
71.537500	0.305716	0.182740	0.344390	0.509981	5171.364881	23285.019006	3601.774309	9481.417439
72.034500	0.308116	0.182546	0.337243	0.508673	5191.849477	23337.577794	3590.508034	9501.637428
72.538000	0.306068	0.183243	0.333441	0.513168	5155.820241	23158.894870	3574.756265	9432.409871
73.038500	0.312166	0.184924	0.342016	0.512308	5194.153146	23278.269763	3592.692135	9445.596556
73.535500	0.313200	0.187698	0.341925	0.511990	5201.668023	23424.476008	3593.127901	9450.479783
74.035500	0.315288	0.187892	0.340844	0.509157	5229.240805	23568.675511	3596.504502	9494.155803
74.539000	0.312055	0.188044	0.341323	0.509249	5210.574885	23571.468586	3597.250272	9492.722670
75.036500	0.312346	0.188028	0.341496	0.503141	5246.615337	23864.678157	3609.474648	9587.817673
75.537000	0.315782	0.191325	0.346486	0.503102	5266.418788	24027.043557	3619.391466	9588.437757
76.037000	0.309814	0.190394	0.344674	0.500743	5245.859140	24096.880503	3620.474883	9625.519590
76.534500	0.310965	0.192117	0.338428	0.503750	5235.357325	24034.047373	3602.298365	9578.282234
77.037500	0.314866	0.192651	0.343581	0.498898	5285.289852	24298.832527	3621.969864	9654.669522
77.535000	0.316418	0.194453	0.344746	0.500286	5286.237457	24319.342117	3621.527419	9632.731028
78.035500	0.317172	0.194989	0.342844	0.499455	5295.392793	24387.141834	3619.400710	9645.859987
78.536000	0.313927	0.192727	0.338226	0.501210	5266.628971	24188.532937	3606.855297	9618.173388
79.039000	0.314390	0.195916	0.348191	0.500434	5273.727039	24384.580116	3628.106625	9630.400052
79.535500	0.313796	0.193796	0.340537	0.499233	5277.205147	24338.972409	3615.276463	9649.370670
80.036000	0.311926	0.193482	0.346067	0.499207	5266.638408	24324.697917	3626.312159	9649.790626
80.537000	0.311928	0.194071	0.342344	0.502286	5249.103250	24201.727117	3612.820901	9601.241965
81.037000	0.310196	0.193649	0.340618	0.498248	5262.236115	24380.573373	3617.382567	9664.980531
81.534500	0.311449	0.195689	0.347509	0.500152	5258.516301	24387.296157	3627.305634	9634.847019
82.035000	0.310809	0.193588	0.342965	0.498506	5264.264085	24364.716929	3621.526507	9660.889174
82.535500	0.309085	0.193613	0.339902	0.500010	5245.884833	24291.468998	3612.493994	9637.094735
83.035500	0.313436	0.195230	0.340106	0.503339	5251.687213	24206.951026	3606.368595	9584.722469
83.538500	0.314557	0.197286	0.346898	0.504116	5253.640379	24270.009267	3618.197536	9572.550161
84.036000	0.312918	0.195573	0.345176	0.502693	5252.411887	24255.715970	3617.605261	9594.850885
84.536500	0.310280	0.195357	0.345785	0.503517	5232.804736	24204.422596	3617.181218	9581.929059
85.037000	0.310440	0.194951	0.345312	0.501115	5247.300088	24302.987696	3621.005394	9619.662382
85.537500	0.315715	0.196051	0.338510	0.502911	5267.124835	24268.526322	3604.090043	9591.426836
86.040000	0.314737	0.196847	0.346242	0.503783	5256.566594	24264.825331	3617.558991	9577.770773
86.535000	0.310757	0.195756	0.343335	0.505795	5222.665528	24112.107443	3607.880101	9546.340397
87.034500	0.316360	0.196182	0.347706	0.505254	5257.428920	24159.573116	3617.544411	9554.772419
87.535500	0.315859	0.195242	0.344016	0.504136	5260.948679	24168.306321	3612.469809	9572.241173
88.041000	0.316433	0.196466	0.345758	0.506488	5250.825036	24112.948947	3611.270767	9535.553334
88.536000	0.312032	0.196029	0.348522	0.507915	5217.922119	24021.704437	3613.900480	9513.381686
89.036500	0.313129	0.196138	0.347917	0.505715	5236.479390	24134.779688	3617.050186	9547.591029
89.536500	0.316278	0.197052	0.344105	0.506725	5248.592959	24130.039694	3607.567104	9531.863135
90.037000	0.316519	0.197066	0.345934	0.507613	5244.926457	24087.222480	3609.408753	9518.075797
90.537000	0.315080	0.196218	0.353836	0.509379	5226.822360	23959.569073	3621.521704	9490.724085
91.034500	0.314646	0.195934	0.343090	0.508329	5230.288413	23996.854503	3602.458315	9506.966510
91.535000	0.316076	0.196524	0.346344	0.508938	5234.919516	23995.915880	3607.616542	9497.530849
92.035000	0.320207	0.197459	0.352438	0.510142	5251.502376	23982.844143	3617.235992	9478.936630
92.535500	0.316057	0.197006	0.344421	0.512136	5216.821348	23863.907460	3597.658617	9448.243140
93.035500	0.316301	0.195923	0.345693	0.511948	5219.242511	23820.520308	3600.485032	9451.126278
93.536000	0.316215	0.196554	0.344306	0.511181	5223.069838	23888.324860	3599.285766	9462.934698
94.036500	0.317200	0.196944	0.348717	0.513110	5217.764160	23813.744075	3604.104244	9433.298242
94.537000	0.320692	0.196799	0.346907	0.514334	5230.520039	23747.646023	3598.216928	9414.574916
95.037000	0.321985	0.199255	0.344618	0.516378	5226.288947	23767.511681	3589.876169	9383.411323
95.537000	0.321452	0.197462	0.348342	0.515005	5231.022869	23747.277631	3599.695092	9404.332431
96.040500	0.320784	0.198016	0.351880	0.515942	5221.988633	23728.813051	3604.750311	9390.051113
96.535500	0.319736	0.197575	0.348299	0.516279	5214.220092	23691.388918	3597.146817	9384.916379
97.038000	0.322862	0.199290	0.351207	0.517263	5226.248481	23726.589494	3600.874218	9369.978881
97.536000	0.320186	0.197773	0.348646	0.516232	5217.004555	23703.169276	3597.908509	9385.637593
98.035500	0.323176	0.198416	0.351257	0.516678	5231.307808	23712.653237	3602.105415	9378.854200
98.536000	0.321960	0.199228	0.349621	0.519194	5210.352695	23630.800567	3594.074417	9340.727454
99.036500	0.322799	0.199066	0.352256	0.517265	5225.876930	23715.665142	3602.906028	9369.933820
99.537000	0.321956	0.198541	0.352614	0.517478	5219.942826	23680.165314	3603.189057	9366.706439
100.043000	0.327400	0.200560	0.351197	0.518941	5242.391211	23706.916721	3597.603326	9344.549500
100.534500	0.326120	0.199478	0.352352	0.518127	5239.752256	23694.000643	3601.416675	9356.866855
101.035000	0.326106	0.199659	0.354808	0.518014	5240.314672	23708.179480	3606.422078	9358.589301
101.538000	0.324809	0.200502	0.351764	0.519347	5225.477561	23684.625612	3597.914964	9338.424784
102.035500	0.326477	0.199876	0.354231	0.518954	5237.097045	23673.434437	3603.462463	9344.356352
102.536000	0.324541	0.197728	0.349418	0.518419	5229.185221	23596.091706	3595.175341	9352.442748
103.036000	0.325519	0.198785	0.350651	0.518938	5231.776151	23621.817623	3596.554543	9344.595945
103.536500	0.324183	0.199969	0.355499	0.520299	5216.612894	23613.361203	3603.313323	9324.053220
104.037000	0.323314	0.198100	0.354436	0.519206	5217.868017	23576.232182	3603.370129	9340.544234
104.537000	0.326386	0.199618	0.354662	0.522425	5217.043933	23495.088740	3597.566282	9292.093098
105.036500	0.325804	0.198131	0.351372	0.520603	5224.008845	23511.030200	3594.735065	9319.477148
105.537500	0.327155	0.198833	0.347811	0.521877	5224.435487	23483.806543	3585.471887	9300.310823
106.037500	0.326358	0.198332	0.355215	0.521910	5219.776270	23458.393170	3599.631900	9299.812598
106.534500	0.327905	0.198659	0.356280	0.524656	5213.061711	23343.776233	3596.384144	9258.723902
107.035000	0.329459	0.198294	0.357340	0.524226	5224.190767	23346.841185	3599.264283	9265.142629
107.536000	0.328037	0.199963	0.352505	0.525166	5210.945646	23381.347256	3588.153896	9251.118982
108.036500	0.327641	0.198118	0.350789	0.524410	5212.957410	23329.827910	3586.319390	9262.389859
108.537000	0.327097	0.197459	0.354673	0.525379	5204.507181	23253.050374	3591.896927	9247.940963
109.037000	0.327534	0.198223	0.355433	0.526173	5202.517157	23251.659733	3591.833374	9236.128029
109.537000	0.325145	0.196964	0.354373	0.525416	5193.437613	23228.032842	3591.249655	9247.383118
110.037500	0.328668	0.199641	0.353632	0.528924	5193.520224	23189.003723	3583.140300	9195.348772
