sample name	sample
index	894
start time	 04-08-2021  03:09:20 PM
880	0.483290
Peak Time (s)	102.537
Peak Height 	0.4833
calc peak height	100,103
Baseline Time (s)	8.536
Baseline Value 	-0.002217
subtract baseline	10,4
Abs	0.326946
Peak Time (s)	100.038
Peak Height 	0.3269
calc peak height	100,103
Baseline Time (s)	11.037
Baseline Value 	0.001542
subtract baseline	10,3
PK_550	0.186307
Peak Time (s)	102.037
Peak Height 	0.1863
calc peak height	100,103
Baseline Time (s)	10.537
Baseline Value 	7.8791E-4
subtract baseline	10,2
PK_880	0.312437
Peak Time (s)	102.037
Peak Height 	0.3124
calc peak height	100,103
Baseline Time (s)	11.534
Baseline Value 	0.002138
subtract baseline	10,1


Time (s)	A880-A510	A880-A775	A880-A975	A880	I510	I775	I975	I880	
0.036000	-0.000159	-0.000738	-0.002074	0.000694	6898.940843	42480.048681	3940.404343	22807.232185
0.536500	-0.002122	-0.000458	-0.000805	0.003665	6854.120608	42235.952012	3936.373033	22671.723798
1.036500	-0.002765	-0.001064	-0.002769	0.002600	6857.936917	42277.497202	3934.253243	22720.212961
1.537000	-0.000639	0.000032	-0.003254	0.000931	6892.386762	42528.502362	3937.045764	22796.367302
2.040000	0.000548	-0.000109	-0.001867	0.000544	6906.772379	42550.922433	3941.251691	22814.084431
2.534500	-0.001298	-0.000040	-0.005653	0.000752	6888.020488	42538.329575	3931.811504	22804.589602
3.037500	0.001229	-0.000408	-0.000193	-0.001773	6934.305783	42735.335739	3950.774297	22920.464272
3.535000	-0.000803	-0.000022	0.000399	0.000619	6893.746236	42552.072416	3946.468754	22810.672113
4.035500	0.000561	0.000159	-0.005672	0.000244	6909.646864	42602.801290	3932.961711	22827.851851
4.536000	0.000663	-0.000398	0.000515	-0.000019	6912.984059	42575.918797	3948.270278	22839.896435
5.035500	0.000092	0.000240	-0.004964	0.000507	6902.943570	42586.144231	3934.011390	22815.794994
5.536500	-0.000855	-0.000406	-0.003813	-0.000150	6900.286334	42587.082525	3938.282677	22845.885309
6.036500	0.000286	0.000378	0.004480	0.000154	6907.943853	42630.923764	3957.376500	22831.962700
6.537000	0.001607	0.000259	0.000110	0.000163	6919.980642	42619.280461	3946.867029	22831.561182
7.037000	-0.002079	-0.000982	0.005584	-0.000732	6894.422588	42587.710233	3962.185201	22872.600729
7.535000	-0.000499	0.000473	-0.000809	0.000768	6895.162282	42583.614098	3943.233392	22803.846460
8.038000	-0.000523	-0.000113	0.000061	0.000440	6897.940470	42560.117030	3946.089776	22818.879253
8.535500	0.001070	0.000119	0.003323	0.000000	6916.546754	42621.400911	3954.958052	22839.022537
9.035500	-0.002002	-0.001853	-0.000813	-0.001392	6901.159332	42568.425244	3948.376436	22902.937105
9.536000	-0.000941	-0.000256	-0.002817	-0.000766	6905.133204	42657.119497	3942.106251	22874.168560
10.036500	0.000782	0.000833	0.004601	0.000300	6911.157083	42659.221215	3957.316390	22825.279688
10.536500	0.000910	0.000000	-0.002286	0.000078	6914.357762	42603.411127	3941.364923	22835.455152
11.036500	-0.000699	-0.000189	0.000000	-0.000057	6900.866933	42598.474495	3947.129539	22841.636150
11.534500	0.000000	0.000198	0.002754	0.000098	6905.843055	42619.693349	3953.356672	22834.540522
12.037500	-0.000182	0.000218	0.002917	0.000198	6903.261069	42612.327457	3953.507688	22829.955392
12.535000	-0.000145	-0.001049	-0.001932	-0.000309	6908.237537	42542.972119	3943.124222	22853.172641
13.035000	-0.000807	0.000071	0.001560	-0.000463	6903.587856	42659.325402	3951.836661	22860.261684
13.537000	0.001917	0.000066	0.003168	-0.000207	6926.219892	42635.454540	3955.084728	22848.504520
14.036000	-0.002689	-0.000519	0.002099	0.001545	6868.173360	42422.603231	3948.316704	22768.335375
14.536000	-0.000769	-0.000474	-0.000664	0.001878	6882.588473	42396.419986	3940.941843	22753.118699
15.042000	0.000912	-0.000164	-0.002311	-0.000188	6916.821218	42612.731281	3941.936679	22847.640879
15.536500	-0.000811	-0.000387	-0.003475	-0.000425	6903.203656	42613.978311	3939.735141	22858.517761
16.037000	0.000202	0.000421	0.000384	-0.000118	6909.667764	42659.727597	3948.191164	22844.422275
16.537000	0.000003	0.000441	0.001241	0.000527	6901.942900	42602.688844	3948.701466	22814.891584
17.040500	0.001909	0.001241	0.002585	-0.001703	6939.936617	42880.154711	3957.285061	22917.257345
17.536500	-0.000040	0.000221	-0.000298	0.001108	6896.246551	42529.668019	3943.642787	22788.316100
18.035500	-0.001561	-0.000299	0.003259	0.000956	6883.772300	42496.157702	3952.507379	22795.254079
18.535500	-0.000573	-0.000081	-0.002120	0.001399	6888.727325	42475.627311	3938.622804	22774.979252
19.036000	-0.000269	0.000427	0.001106	0.001510	6890.487205	42511.769661	3946.028391	22769.899867
19.536500	-0.000955	0.000462	0.000418	0.001620	6883.242938	42504.949117	3944.126718	22764.897310
20.036500	-0.000668	0.000279	0.003203	0.001058	6890.966467	42539.426604	3952.128555	22790.570888
20.537000	-0.000929	-0.000204	0.000700	0.001031	6888.835332	42497.961999	3946.202474	22791.808644
21.037000	-0.000462	-0.000288	0.000105	0.001151	6892.002661	42479.389002	3944.499447	22786.327833
21.540000	-0.001486	0.000155	0.002104	0.001038	6883.701251	42529.933762	3949.541068	22791.484885
22.035500	-0.000053	0.000955	0.002483	0.001790	6889.901665	42534.334917	3948.649842	22757.123392
22.538000	0.000213	0.000206	0.000078	0.001898	6891.344343	42456.327435	3942.656077	22752.190864
23.035500	-0.001509	0.000595	0.001186	0.001713	6877.362690	42508.680448	3945.736273	22760.673058
23.535500	-0.000275	0.000173	0.004109	0.001182	6893.427403	42518.520607	3954.007473	22784.928092
24.036000	-0.001281	0.000479	0.003125	0.001681	6879.725599	42500.997471	3950.447837	22762.133533
24.536500	-0.001772	-0.000830	0.001954	0.000979	6881.633556	42445.695230	3949.323778	22794.186727
25.036500	-0.001622	-0.000265	0.004040	0.001490	6878.351106	42450.599965	3953.099498	22770.828488
25.536500	-0.000386	-0.000357	0.002779	0.001133	6892.858119	42474.806554	3950.931855	22787.160495
26.037500	-0.000837	-0.000221	0.000887	0.001358	6886.699355	42466.650648	3945.870989	22776.888950
26.537500	-0.001181	-0.000053	-0.001070	0.003300	6865.938665	42305.680632	3936.610153	22688.335013
27.035500	0.002069	0.000041	0.002537	-0.000396	6929.363998	42650.413412	3954.021966	22857.183322
27.535500	-0.000062	0.000578	0.000549	-0.000509	6910.827627	42709.839840	3949.523114	22862.366066
28.035500	-0.000005	0.001353	0.002229	0.000568	6901.502869	42682.236144	3950.969104	22813.011787
28.536000	-0.003724	-0.000872	-0.003132	0.004161	6835.213080	42153.749352	3929.722149	22649.174728
29.036000	-0.000827	-0.000189	-0.001409	0.000247	6896.920482	42570.757548	3943.046760	22827.709600
29.536500	0.002592	0.000391	0.003563	0.000165	6929.012507	42631.201922	3955.141447	22831.475487
30.036500	-0.000922	0.000523	0.001005	0.000083	6897.545647	42650.636436	3949.195915	22835.202056
30.537000	-0.003403	0.000600	-0.003561	0.004695	6833.304531	42238.529368	3927.464718	22624.965840
31.037500	-0.001424	-0.000268	-0.000741	0.001900	6876.425510	42413.088581	3940.703897	22752.100320
31.534000	0.000539	0.000263	-0.000054	0.000684	6905.409002	42572.071541	3945.231394	22807.691482
32.035500	0.001253	0.000653	-0.002238	0.000318	6915.308776	42641.154068	3940.908035	22824.462935
32.535500	-0.002257	-0.000107	0.003042	0.004305	6847.134994	42209.905804	3943.981932	22642.663868
33.036000	-0.000335	0.001007	0.002450	0.000661	6897.632804	42642.060319	3951.273479	22808.726800
33.536500	0.000445	-0.000254	0.004653	0.000458	6906.619262	42545.548029	3957.059887	22818.023189
34.036500	0.001518	0.000922	0.001231	0.002290	6899.678857	42485.865855	3944.468410	22734.323601
34.536500	-0.001899	-0.000042	0.002993	0.003711	6855.727025	42269.450757	3945.281572	22669.638549
35.037000	-0.001354	0.000604	0.006447	0.002584	6870.858018	42430.213405	3956.260772	22720.924667
35.534500	0.000032	0.001040	0.003149	0.002991	6879.746302	42432.888394	3947.372287	22702.388142
36.037500	-0.001331	0.000447	0.003980	0.002475	6872.051182	42425.800678	3950.591951	22725.874043
36.535000	-0.001839	0.001331	0.001724	0.004822	6846.238725	42293.196411	3939.622287	22619.201666
37.035000	-0.002000	0.000687	0.003812	0.002738	6863.610885	42423.704856	3949.560071	22713.898824
37.535500	-0.002239	0.000579	0.000269	0.002120	6867.039633	42470.084706	3942.582814	22742.058414
38.035500	0.000007	-0.000062	-0.000488	0.001740	6890.910487	42446.444997	3941.687681	22759.436143
38.538000	-0.000918	0.000218	0.004511	0.002156	6878.708625	42434.083257	3952.633074	22740.451869
39.035500	-0.002782	0.000109	0.004925	0.002055	6862.707155	42433.261327	3953.870434	22745.033357
39.537000	-0.000745	0.000973	0.002742	0.002613	6876.126540	42461.123789	3947.303243	22719.611766
40.037000	0.001357	0.000356	0.005060	0.002523	6896.083997	42413.206484	3953.069511	22723.708897
40.537000	-0.001443	0.000597	-0.002261	0.002280	6872.808762	42457.208142	3936.204803	22734.773214
41.037500	-0.002398	0.000798	-0.001123	0.002612	6861.147330	42445.287268	3938.112725	22719.651175
41.534500	-0.001500	0.001039	0.000972	0.002924	6866.449054	42438.858591	3942.342390	22705.437986
42.035500	-0.001722	-0.000693	0.000558	0.001742	6875.161889	42388.879117	3944.170664	22759.327734
42.538000	-0.000672	0.000846	-0.000268	0.003101	6872.355588	42405.191808	3938.979146	22697.376526
43.036000	-0.000681	0.001203	0.004073	0.002993	6873.251808	42447.477427	3949.576236	22702.290831
43.539000	0.004210	0.000914	0.007656	-0.002060	6964.543360	42882.866981	3970.455643	22933.668913
44.036500	0.000630	0.000878	0.001955	0.000459	6908.299841	42648.775613	3950.572792	22817.988896
44.539000	0.003016	0.000865	0.002370	0.001511	6920.530113	42551.609504	3949.046998	22769.866178
45.037000	0.000368	0.000782	0.002406	0.000527	6905.281726	42633.772063	3951.489408	22814.863821
45.537500	-0.000558	0.000652	-0.002719	0.000151	6900.255948	42656.221010	3940.161439	22832.091417
46.035000	0.000802	0.000595	0.002031	0.000489	6909.603335	42620.218225	3950.683081	22816.636561
46.535000	-0.003596	0.000108	-0.003583	0.004813	6830.510878	42183.441491	3927.135556	22619.615068
47.035500	0.000838	-0.000024	0.002172	0.002187	6894.407519	42409.207047	3946.957935	22739.025022
47.535500	-0.000495	-0.000108	0.001608	0.001808	6885.716671	42436.048798	3946.515782	22756.324328
48.036500	0.001070	0.000718	0.001953	0.000458	6912.342688	42634.254294	3950.568059	22818.027221
48.536500	-0.000639	0.001846	-0.001853	0.005684	6849.291031	42261.793232	3929.151667	22580.175123
49.036500	-0.001634	0.001089	0.003307	0.001148	6881.358796	42605.142823	3952.162450	22786.469389
49.537000	0.001937	0.000738	0.002651	-0.002610	6948.566791	42917.209244	3959.632726	22959.006910
50.037000	0.001811	0.000225	0.000714	0.006486	6864.179477	42043.159044	3933.299515	22543.898127
50.535000	-0.002598	0.001757	-0.001233	0.010211	6791.215397	41846.367994	3920.023653	22376.413763
51.035000	-0.069096	-0.017617	0.001149	0.242443	4871.726632	24750.959414	3504.905954	14322.299611
51.535500	-0.063157	-0.017737	-0.009509	-0.020877	6537.994857	42898.133472	3974.498228	23819.425635
52.035500	-0.055849	-0.028013	-0.009785	-0.158167	7962.744144	56462.618986	4369.391520	31585.982729
52.535500	-0.036792	-0.077549	0.004826	-0.272225	9767.231625	65030.603542	4872.679421	40192.538949
53.036000	-0.013807	-0.084100	0.014647	-0.282289	10307.691116	65534.646952	4964.633571	41066.092445
53.542000	-0.002737	-0.042877	0.021424	-0.225487	9570.485785	63330.084337	4741.077638	36390.661638
54.037000	0.008849	-0.017073	0.024111	-0.172324	8964.414094	59645.011929	4540.150738	32535.506987
54.540000	0.012523	-0.001533	0.029432	-0.104687	8138.254577	53238.340586	4322.236068	28265.883037
55.034500	0.022105	0.006985	0.044895	-0.059316	7726.397875	49148.640692	4228.248438	25752.616895
55.534500	0.055101	0.020125	0.059593	-0.073815	8280.497212	52183.030783	4319.926186	26527.393400
56.035000	0.073937	0.031619	0.075317	-0.039117	8088.659558	49622.513103	4259.646578	24715.426949
56.535500	0.087919	0.042851	0.091190	0.041635	7353.756267	42721.647298	4072.347750	21019.041284
57.035000	0.106283	0.052914	0.114615	0.074120	7212.293445	40721.404260	4048.348897	19715.370249
57.541500	0.119868	0.061693	0.128507	0.106322	7032.672674	38739.314063	4001.347301	18515.820805
58.036500	0.130440	0.069280	0.142653	0.137542	6842.259467	36844.756397	3959.268862	17434.733752
58.539000	0.137931	0.077225	0.150283	0.172925	6599.010145	34770.837836	3894.309379	16299.894512
59.037000	0.145343	0.084236	0.171548	0.209884	6357.806729	32651.806176	3859.370178	15209.180301
59.540000	0.152335	0.089885	0.170374	0.247430	6125.054530	30549.952185	3778.381320	14192.228118
60.037500	0.157516	0.093441	0.174970	0.268068	6013.399729	29486.127861	3746.886645	13669.559946
60.535500	0.162451	0.097387	0.179664	0.275049	5998.917666	29301.498745	3742.491471	13498.324046
61.045000	0.168981	0.099903	0.186893	0.275974	6038.764200	29398.152742	3754.664515	13475.842355
61.541000	0.175673	0.102778	0.193462	0.279686	6060.154897	29347.274032	3760.241156	13386.090334
62.039500	0.182191	0.105982	0.205240	0.285876	6062.519635	29166.527219	3771.253407	13238.115788
62.536500	0.184245	0.107235	0.201045	0.291358	6037.905629	28912.654845	3752.271921	13108.819050
63.039500	0.189105	0.111040	0.206234	0.298870	6018.998546	28692.231118	3747.779592	12934.286915
63.542000	0.193706	0.113401	0.211466	0.304640	6010.691059	28491.088462	3746.740655	12802.243729
64.037000	0.199891	0.116391	0.214375	0.311934	6002.842081	28239.402053	3738.333777	12637.824522
64.540000	0.200016	0.117287	0.217126	0.320598	5943.045502	27791.416144	3727.129558	12446.075561
65.037500	0.204328	0.118851	0.221739	0.322460	5960.082426	27774.414093	3732.324898	12405.372711
65.535000	0.208264	0.120959	0.223629	0.327218	5954.357024	27623.499789	3726.909790	12302.130340
66.035500	0.213383	0.123316	0.225101	0.332376	5954.083745	27464.983624	3720.004882	12191.480315
66.541000	0.212161	0.123336	0.225013	0.339601	5895.871844	27061.953854	3706.478853	12038.685706
67.036000	0.217205	0.126375	0.232620	0.339982	5927.862680	27209.849149	3719.841696	12030.690694
67.539000	0.221621	0.127586	0.235790	0.342633	5940.070866	27129.675221	3720.812483	11975.322849
68.036500	0.225564	0.130253	0.238749	0.346918	5937.703609	27039.828842	3718.340931	11886.521407
68.542500	0.225677	0.131871	0.243760	0.356505	5872.834955	26602.146682	3709.865972	11690.976360
69.037000	0.233662	0.136385	0.245641	0.357523	5920.397903	26793.161133	3711.456903	11670.451805
69.534500	0.234775	0.136689	0.250312	0.359559	5914.050547	26698.338022	3716.335629	11629.575451
70.035000	0.239771	0.138684	0.253402	0.365029	5910.802485	26509.266040	3711.928956	11520.707101
70.535000	0.236840	0.140168	0.251059	0.374085	5829.694361	26102.329816	3691.150146	11343.415941
71.036000	0.243306	0.141712	0.251730	0.373657	5876.071308	26207.685724	3693.130866	11351.722797
71.541000	0.246161	0.143542	0.259240	0.378892	5859.973985	26026.139376	3697.242719	11250.811287
72.036000	0.249304	0.144795	0.258530	0.383805	5848.067832	25832.722965	3687.116426	11157.225519
72.542000	0.248846	0.146037	0.261929	0.393612	5779.942767	25386.206068	3675.731738	10973.525079
73.036500	0.256393	0.148009	0.272249	0.394901	5821.285586	25421.516783	3691.825356	10949.696439
73.539500	0.257662	0.148747	0.268172	0.399802	5797.220606	25207.322788	3675.824967	10859.697638
74.037500	0.259003	0.151512	0.268966	0.405146	5770.929084	25075.607871	3667.841239	10762.716430
74.535000	0.259990	0.153528	0.269560	0.413605	5722.498129	24750.125491	3654.239538	10611.640357
75.035000	0.263839	0.153657	0.279081	0.413557	5747.655974	24758.980919	3670.822199	10612.494886
75.535000	0.269497	0.155998	0.279747	0.417804	5756.819315	24663.572232	3664.574100	10537.735262
76.036000	0.273269	0.157912	0.281290	0.423618	5743.560606	24469.617195	3657.187361	10436.561628
76.536000	0.273869	0.158685	0.286242	0.428442	5716.351125	24269.991451	3657.408111	10353.648770
77.038500	0.272874	0.158987	0.280573	0.430135	5699.169385	24201.898249	3644.843384	10324.773832
77.536500	0.277866	0.160814	0.288558	0.432973	5712.928749	24152.582191	3653.607069	10276.615560
78.036500	0.279106	0.161107	0.284226	0.435567	5704.267744	24040.592617	3641.839134	10232.856160
78.537000	0.278151	0.163347	0.289745	0.442258	5655.888421	23825.746377	3639.867795	10121.218375
79.034500	0.284843	0.163508	0.286029	0.442598	5696.020387	23817.134224	3633.081525	10115.583643
79.534500	0.281499	0.165935	0.293354	0.445425	5657.019084	23797.940605	3640.609657	10068.964775
80.035000	0.287015	0.166175	0.292027	0.447921	5676.039411	23690.055882	3634.207013	10028.059603
80.535500	0.286449	0.167103	0.292714	0.449157	5664.675862	23675.343160	3633.290311	10007.876045
81.035500	0.288210	0.168347	0.305700	0.452161	5656.866412	23591.656438	3650.110470	9959.103945
81.539500	0.287712	0.169611	0.296869	0.453832	5643.288030	23572.307911	3632.425698	9932.106131
82.035500	0.285342	0.169237	0.298900	0.454863	5622.139434	23505.804900	3634.091525	9915.510259
82.536500	0.289101	0.170421	0.298287	0.458311	5624.062164	23398.974488	3627.350717	9860.258430
83.036500	0.293797	0.172151	0.296977	0.459572	5645.445204	23421.070881	3623.114735	9840.169204
83.534500	0.291620	0.172229	0.301000	0.459534	5632.107293	23426.498642	3629.815367	9840.770576
84.035000	0.289569	0.172594	0.303345	0.460370	5614.217629	23404.340322	3632.322088	9827.480684
84.535500	0.293739	0.173783	0.310757	0.462518	5626.740251	23359.296127	3641.131527	9793.459494
85.035500	0.292930	0.172628	0.300665	0.462716	5620.490625	23295.835655	3624.008216	9790.321542
85.536000	0.295954	0.174367	0.307549	0.464141	5630.413127	23310.546985	3633.042536	9767.855494
86.038500	0.294314	0.174823	0.305164	0.464528	5617.848360	23313.799273	3628.442018	9761.766605
86.536000	0.295066	0.176285	0.305831	0.470480	5585.875903	23104.522629	3619.750683	9668.779261
87.036500	0.295011	0.175986	0.306574	0.467757	5602.234795	23217.221156	3625.437837	9711.162627
87.537000	0.295813	0.175889	0.306439	0.466769	5613.264639	23258.841218	3626.845527	9726.612579
88.037000	0.298217	0.176915	0.311601	0.469031	5614.139811	23201.148097	3631.649115	9691.296176
88.536500	0.298565	0.178384	0.310885	0.473208	5590.591495	23075.399422	3623.562603	9626.579961
89.035000	0.301978	0.180188	0.306884	0.472501	5615.936104	23191.975564	3618.170114	9637.497093
89.535000	0.298065	0.177465	0.306851	0.470489	5604.211479	23158.893845	3621.404874	9668.638636
90.035000	0.299272	0.177686	0.316292	0.471310	5606.594794	23131.039897	3635.668342	9655.918290
90.536000	0.299122	0.176999	0.309485	0.471359	5605.364820	23096.907199	3624.301384	9655.155657
91.036000	0.301696	0.179726	0.314214	0.473194	5609.914499	23138.265108	3629.077034	9626.795189
91.536000	0.300702	0.180003	0.315893	0.473340	5602.898894	23144.350314	3631.620352	9624.552888
92.037000	0.301765	0.179234	0.313473	0.473002	5611.528525	23124.356408	3628.168612	9629.763937
92.537000	0.302941	0.180842	0.310343	0.475609	5602.717762	23078.060165	3618.743454	9589.671845
93.037000	0.304707	0.180986	0.310443	0.475047	5617.067558	23110.728081	3619.823790	9598.287507
93.537500	0.302658	0.180395	0.315220	0.474881	5605.450396	23091.058861	3627.950651	9600.844662
94.035000	0.301753	0.181197	0.316370	0.475468	5596.281422	23100.981637	3628.881245	9591.823962
94.534500	0.302769	0.179997	0.319357	0.476267	5597.616340	23008.561747	3632.514417	9579.588185
95.035500	0.305325	0.181905	0.318141	0.476384	5612.629592	23091.387134	3630.298988	9577.794808
95.536000	0.307013	0.182318	0.320428	0.476724	5620.957139	23094.763788	3633.535779	9572.586257
96.036000	0.307100	0.182990	0.317333	0.477289	5618.004342	23099.735870	3627.463863	9563.960277
96.536500	0.308565	0.183790	0.315358	0.478545	5619.294693	23078.610693	3622.144103	9544.799367
97.037000	0.311277	0.183179	0.319844	0.477954	5639.818322	23077.659326	3630.520856	9553.810139
97.537000	0.304834	0.181812	0.320737	0.476841	5606.781015	23065.929340	3633.856816	9570.803709
98.037500	0.306991	0.182704	0.320063	0.477639	5615.165036	23070.239729	3631.405851	9558.605143
98.537500	0.305954	0.183138	0.318282	0.478663	5602.458862	23042.977802	3626.761524	9543.001209
99.035000	0.308816	0.183111	0.328375	0.478758	5619.527506	23037.342050	3643.455679	9541.552976
99.535500	0.311460	0.184032	0.317770	0.479407	5631.905114	23049.895302	3624.690949	9531.676273
100.038000	0.309566	0.182288	0.326946	0.478019	5628.759722	23033.444274	3642.290599	9552.813809
100.535500	0.308880	0.183946	0.320533	0.482333	5597.889618	22911.122497	3624.421897	9487.355355
101.036500	0.309725	0.183686	0.320564	0.479481	5620.685788	23030.515554	3629.182365	9530.562447
101.536500	0.310657	0.183522	0.325894	0.479056	5629.097429	23042.569273	3638.777631	9537.025480
102.037000	0.312437	0.186307	0.322565	0.480859	5628.958443	23088.017951	3630.214692	9509.655086
102.537000	0.309816	0.185721	0.326676	0.483290	5597.756215	22948.690406	3633.004889	9472.916503
103.037500	0.311676	0.184484	0.319966	0.480511	5626.387128	23019.772991	3626.490597	9514.920852
103.540500	0.310467	0.183525	0.324876	0.479143	5627.377224	23038.680322	3636.924861	9535.692667
104.035500	0.311454	0.185868	0.322439	0.481782	5617.143647	23025.024438	3628.477410	9495.686003
