sample name	sample
index	1018
start time	 04-19-2021  11:54:13 AM


Wavelength (nm)	Absorbance
494.344910	0.044300
494.563924	0.044300
494.782919	0.044300
495.001897	-0.053325
495.220856	0.026758
495.439797	0.009200
495.658719	0.007559
495.877624	-0.008136
496.096510	-0.006553
496.315378	-0.018335
496.534227	-0.047416
496.753059	-0.035903
496.971872	-0.045782
497.190667	0.072860
497.409444	0.135246
497.628203	0.156624
497.846943	0.169126
498.065665	0.173999
498.284369	0.178673
498.503055	0.180723
498.721723	0.183013
498.940372	0.185785
499.159003	0.185664
499.377616	0.185236
499.596210	0.185225
499.814787	0.185208
500.033345	0.185373
500.251885	0.184780
500.470406	0.187038
500.688910	0.187085
500.907395	0.187594
501.125862	0.190945
501.344311	0.191676
501.562742	0.191130
501.781154	0.192797
501.999548	0.193659
502.217924	0.194128
502.436282	0.194005
502.654621	0.194438
502.872942	0.194135
503.091245	0.191783
503.309530	0.191570
503.527797	0.192286
503.746045	0.191185
503.964275	0.192031
504.182487	0.192250
504.400681	0.193014
504.618856	0.192639
504.837013	0.192600
505.055152	0.194540
505.273273	0.195147
505.491376	0.194465
505.709460	0.194445
505.927526	0.194295
506.145574	0.194666
506.363604	0.193758
506.581615	0.193980
506.799608	0.193719
507.017583	0.192254
507.235540	0.192794
507.453478	0.193328
507.671399	0.193492
507.889301	0.193472
508.107185	0.193820
508.325050	0.194959
508.542898	0.194138
508.760727	0.194998
508.978538	0.196235
509.196330	0.196388
509.414105	0.196330
509.631861	0.196497
509.849599	0.196908
510.067319	0.197305
510.285021	0.196513
510.502704	0.198101
510.720369	0.198785
510.938016	0.199553
511.155645	0.198706
511.373255	0.199848
511.590848	0.200135
511.808422	0.199568
512.025977	0.198881
512.243515	0.198875
512.461034	0.198511
512.678536	0.199392
512.896018	0.198215
513.113483	0.199431
513.330930	0.199189
513.548358	0.199909
513.765768	0.200064
513.983160	0.200844
514.200533	0.201824
514.417889	0.202563
514.635226	0.202274
514.852545	0.202914
515.069845	0.202570
515.287128	0.202391
515.504392	0.202765
515.721638	0.202802
515.938866	0.203116
516.156075	0.203658
516.373267	0.202790
516.590440	0.202826
516.807594	0.203142
517.024731	0.203969
517.241850	0.204835
517.458950	0.204302
517.676032	0.205173
517.893095	0.205404
518.110141	0.205458
518.327168	0.205967
518.544177	0.206610
518.761168	0.206838
518.978141	0.206319
519.195095	0.207027
519.412031	0.206794
519.628949	0.206822
519.845849	0.207552
520.062731	0.208426
520.279594	0.209848
520.496439	0.210164
520.713266	0.211258
520.930074	0.211879
521.146865	0.212036
521.363637	0.213201
521.580391	0.213431
521.797127	0.214152
522.013844	0.213997
522.230543	0.213697
522.447224	0.213593
522.663887	0.213735
522.880532	0.214477
523.097158	0.214639
523.313766	0.214677
523.530356	0.215686
523.746928	0.215085
523.963481	0.215602
524.180017	0.216294
524.396534	0.216623
524.613032	0.216673
524.829513	0.217982
525.045975	0.218828
525.262420	0.219861
525.478845	0.220197
525.695253	0.221184
525.911643	0.221575
526.128014	0.221781
526.344367	0.222664
526.560702	0.223327
526.777018	0.223098
526.993316	0.223612
527.209597	0.223345
527.425858	0.223246
527.642102	0.223147
527.858328	0.222915
528.074535	0.223439
528.290724	0.223668
528.506894	0.223869
528.723047	0.224156
528.939181	0.223663
529.155297	0.225120
529.371395	0.225984
529.587475	0.226163
529.803536	0.226184
530.019579	0.226280
530.235604	0.226028
530.451611	0.226198
530.667600	0.226604
530.883570	0.227786
531.099522	0.227327
531.315456	0.228074
531.531372	0.228965
531.747269	0.229883
531.963148	0.230428
532.179009	0.231358
532.394852	0.231431
532.610676	0.231865
532.826482	0.231407
533.042271	0.231756
533.258040	0.231685
533.473792	0.232178
533.689525	0.232829
533.905240	0.233205
534.120937	0.233676
534.336616	0.234291
534.552277	0.235085
534.767919	0.235459
534.983543	0.235841
535.199149	0.236556
535.414736	0.236279
535.630306	0.236390
535.845857	0.236284
536.061390	0.236139
536.276904	0.237179
536.492401	0.237052
536.707879	0.237829
536.923339	0.237901
537.138781	0.238011
537.354204	0.238695
537.569610	0.239230
537.784997	0.239732
538.000366	0.240325
538.215716	0.240054
538.431049	0.240424
538.646363	0.240609
538.861659	0.241480
539.076937	0.241936
539.292196	0.242684
539.507438	0.242860
539.722661	0.243868
539.937866	0.244201
540.153052	0.244975
540.368221	0.245007
540.583371	0.245308
540.798503	0.245671
541.013617	0.245999
541.228712	0.246464
541.443789	0.247208
541.658848	0.247499
541.873889	0.248020
542.088912	0.248171
542.303916	0.248368
542.518902	0.249292
542.733870	0.249872
542.948820	0.250445
543.163752	0.250913
543.378665	0.250966
543.593560	0.251233
543.808437	0.251786
544.023295	0.252102
544.238136	0.252804
544.452958	0.252347
544.667762	0.252327
544.882548	0.252731
545.097315	0.252563
545.312064	0.253388
545.526795	0.253336
545.741508	0.253893
545.956203	0.254474
546.170879	0.254958
546.385537	0.255685
546.600177	0.256229
546.814799	0.256296
547.029402	0.256585
547.243988	0.256735
547.458555	0.257035
547.673103	0.257049
547.887634	0.257053
548.102146	0.257540
548.316640	0.257682
548.531116	0.257770
548.745574	0.257905
548.960013	0.258621
549.174435	0.258756
549.388838	0.258899
549.603222	0.259185
549.817589	0.259545
550.031937	0.259206
550.246267	0.259491
550.460579	0.259973
550.674873	0.260579
550.889148	0.260233
551.103405	0.260003
551.317644	0.260834
551.531865	0.261122
551.746068	0.261457
551.960252	0.261805
552.174418	0.261963
552.388566	0.261656
552.602696	0.261526
552.816807	0.262288
553.030900	0.262917
553.244975	0.263030
553.459032	0.263015
553.673070	0.263567
553.887091	0.264062
554.101093	0.265053
554.315077	0.265744
554.529042	0.266454
554.742990	0.266746
554.956919	0.266851
555.170830	0.267223
555.384722	0.267794
555.598597	0.267440
555.812453	0.267858
556.026291	0.267645
556.240111	0.267823
556.453913	0.267974
556.667696	0.268331
556.881461	0.268598
557.095208	0.268946
557.308937	0.269258
557.522647	0.269569
557.736339	0.269760
557.950013	0.269985
558.163669	0.269749
558.377307	0.270157
558.590926	0.270460
558.804527	0.271075
559.018110	0.271186
559.231675	0.271072
559.445221	0.271378
559.658749	0.271421
559.872259	0.271910
560.085751	0.272645
560.299225	0.272253
560.512680	0.271711
560.726117	0.271408
560.939536	0.271685
561.152937	0.271938
561.366319	0.272589
561.579683	0.273199
561.793029	0.273394
562.006357	0.273538
562.219667	0.274000
562.432958	0.274312
562.646231	0.275072
562.859486	0.274995
563.072723	0.275432
563.285941	0.275663
563.499141	0.275787
563.712323	0.275719
563.925487	0.275954
564.138632	0.276243
564.351760	0.276817
564.564869	0.276736
564.777960	0.276982
564.991032	0.276995
565.204087	0.277160
565.417123	0.277122
565.630141	0.276921
565.843140	0.277557
566.056122	0.277704
566.269085	0.277645
566.482030	0.277701
566.694957	0.278233
566.907866	0.278420
567.120756	0.278710
567.333628	0.279142
567.546482	0.280138
567.759318	0.279867
567.972135	0.280006
568.184935	0.280406
568.397716	0.280821
568.610478	0.280963
568.823223	0.281260
569.035949	0.281166
569.248657	0.281191
569.461347	0.280985
569.674019	0.281087
569.886672	0.281323
570.099308	0.281270
570.311925	0.281340
570.524523	0.280941
570.737104	0.281033
570.949666	0.281531
571.162210	0.281998
571.374736	0.282782
571.587244	0.283127
571.799733	0.283249
572.012205	0.283970
572.224658	0.284359
572.437092	0.284953
572.649509	0.285535
572.861907	0.285379
573.074287	0.284906
573.286649	0.284421
573.498993	0.284871
573.711318	0.285256
573.923625	0.285257
574.135914	0.285320
574.348185	0.285571
574.560438	0.285348
574.772672	0.285637
574.984888	0.286232
575.197086	0.286444
575.409266	0.286666
575.621427	0.286829
575.833570	0.286599
576.045695	0.286856
576.257802	0.287182
576.469890	0.287308
576.681961	0.287509
576.894013	0.287454
577.106046	0.287177
577.318062	0.286757
577.530059	0.287082
577.742039	0.287469
577.954000	0.287497
578.165942	0.287333
578.377867	0.287873
578.589773	0.287698
578.801661	0.288006
579.013531	0.288777
579.225382	0.289275
579.437216	0.289434
579.649031	0.289611
579.860828	0.289724
580.072606	0.289977
580.284367	0.290073
580.496109	0.290429
580.707833	0.290610
580.919539	0.290632
581.131227	0.291159
581.342896	0.291341
581.554547	0.291377
581.766180	0.291829
581.977795	0.292137
582.189391	0.292048
582.400969	0.292673
582.612529	0.293077
582.824071	0.293403
583.035595	0.293742
583.247100	0.293892
583.458587	0.294575
583.670056	0.294652
583.881506	0.295000
584.092939	0.295293
584.304353	0.295365
584.515749	0.295162
584.727127	0.295638
584.938486	0.295641
585.149828	0.295549
585.361151	0.295756
585.572456	0.295893
585.783742	0.295605
585.995011	0.295658
586.206261	0.295441
586.417493	0.295929
586.628706	0.295985
586.839902	0.295694
587.051079	0.296202
587.262238	0.296208
587.473379	0.296531
587.684502	0.296824
587.895606	0.297441
588.106692	0.297639
588.317760	0.298294
588.528810	0.298216
588.739841	0.298739
588.950855	0.299014
589.161850	0.299216
589.372827	0.299426
589.583785	0.299628
589.794726	0.299799
590.005648	0.300087
590.216552	0.299585
590.427437	0.300038
590.638305	0.300072
590.849154	0.299751
591.059985	0.300085
591.270798	0.300433
591.481592	0.300880
591.692369	0.301162
591.903127	0.301333
592.113867	0.301670
592.324588	0.301709
592.535292	0.302154
592.745977	0.302950
592.956644	0.303201
593.167293	0.303138
593.377923	0.303529
593.588536	0.303482
593.799130	0.303654
594.009706	0.303892
594.220263	0.304040
594.430803	0.303726
594.641324	0.303446
594.851827	0.303258
595.062312	0.303208
595.272778	0.303174
595.483227	0.303484
595.693657	0.303633
595.904069	0.303783
596.114462	0.303977
596.324838	0.304486
596.535195	0.304547
596.745534	0.304966
596.955855	0.305560
597.166157	0.305888
597.376441	0.305870
597.586707	0.306222
597.796955	0.306437
598.007185	0.306709
598.217396	0.306663
598.427589	0.307367
598.637764	0.306898
598.847921	0.307209
599.058060	0.307008
599.268180	0.307234
599.478282	0.307306
599.688366	0.307673
599.898431	0.308046
600.108479	0.308613
600.318508	0.308544
600.528519	0.309385
600.738511	0.309228
600.948486	0.309268
601.158442	0.309437
601.368380	0.309496
601.578300	0.309470
601.788202	0.309582
601.998085	0.309364
602.207950	0.309300
602.417797	0.309315
602.627626	0.309468
602.837436	0.310009
603.047228	0.310089
603.257002	0.310484
603.466758	0.310592
603.676496	0.310424
603.886215	0.310815
604.095916	0.311163
604.305599	0.311581
604.515264	0.311802
604.724910	0.311884
604.934538	0.312373
605.144148	0.312160
605.353740	0.312617
605.563314	0.313033
605.772869	0.313162
605.982406	0.312950
606.191925	0.312996
606.401425	0.313270
606.610908	0.313288
606.820372	0.313365
607.029818	0.313928
607.239246	0.313813
607.448655	0.313920
607.658047	0.314391
607.867420	0.315046
608.076775	0.314767
608.286111	0.314840
608.495430	0.315220
608.704730	0.315359
608.914012	0.315514
609.123275	0.316157
609.332521	0.316526
609.541748	0.316243
609.750957	0.316326
609.960148	0.316810
610.169321	0.317189
610.378475	0.317042
610.587611	0.317071
610.796729	0.317289
611.005829	0.317284
611.214910	0.317328
611.423974	0.317433
611.633019	0.317646
611.842045	0.317878
612.051054	0.317766
612.260044	0.318001
612.469017	0.318210
612.677970	0.318620
612.886906	0.318708
613.095824	0.318583
613.304723	0.319189
613.513604	0.319555
613.722467	0.319824
613.931311	0.320451
614.140138	0.320733
614.348946	0.320927
614.557736	0.321047
614.766507	0.321087
614.975261	0.321585
615.183996	0.321430
615.392713	0.321517
615.601412	0.321823
615.810092	0.321631
616.018754	0.321987
616.227399	0.322058
616.436024	0.322136
616.644632	0.322216
616.853222	0.322325
617.061793	0.322558
617.270346	0.322156
617.478880	0.322286
617.687397	0.322287
617.895895	0.322432
618.104375	0.322610
618.312837	0.322749
618.521281	0.322944
618.729706	0.323228
618.938113	0.323598
619.146502	0.323971
619.354873	0.323956
619.563226	0.324369
619.771560	0.324549
619.979876	0.324855
620.188174	0.325031
620.396453	0.325455
620.604715	0.325563
620.812958	0.325419
621.021183	0.325582
621.229390	0.325940
621.437578	0.325949
621.645748	0.326042
621.853900	0.326330
622.062034	0.326660
622.270150	0.326565
622.478247	0.326921
622.686326	0.327283
622.894387	0.327790
623.102430	0.327851
623.310454	0.328068
623.518461	0.328174
623.726449	0.327961
623.934418	0.327995
624.142370	0.328300
624.350303	0.328309
624.558218	0.328370
624.766115	0.328575
624.973994	0.328486
625.181855	0.328483
625.389697	0.328642
625.597521	0.329134
625.805327	0.329313
626.013114	0.329406
626.220883	0.329383
626.428634	0.329587
626.636367	0.329812
626.844082	0.330178
627.051778	0.330370
627.259457	0.330377
627.467117	0.330403
627.674758	0.330675
627.882382	0.330932
628.089987	0.331321
628.297574	0.331491
628.505143	0.331612
628.712694	0.331901
628.920226	0.331852
629.127740	0.332074
629.335236	0.332486
629.542714	0.332673
629.750174	0.332393
629.957615	0.332261
630.165038	0.332405
630.372443	0.332303
630.579829	0.332471
630.787198	0.333274
630.994548	0.333644
631.201880	0.333774
631.409194	0.333761
631.616489	0.334299
631.823766	0.334468
632.031025	0.334695
632.238266	0.334761
632.445489	0.334874
632.652693	0.335004
632.859879	0.335065
633.067047	0.335127
633.274197	0.335267
633.481329	0.335498
633.688442	0.335872
633.895537	0.336011
634.102614	0.336529
634.309672	0.336773
634.516713	0.336771
634.723735	0.336963
634.930739	0.337346
635.137724	0.337505
635.344692	0.337831
635.551641	0.338188
635.758572	0.338588
635.965485	0.338938
636.172379	0.339030
636.379256	0.339484
636.586114	0.339793
636.792954	0.339637
636.999775	0.339815
637.206579	0.339940
637.413364	0.339884
637.620131	0.340033
637.826880	0.340190
638.033610	0.340259
638.240323	0.340453
638.447017	0.340328
638.653692	0.340490
638.860350	0.340358
639.066990	0.340248
639.273611	0.340468
639.480214	0.340388
639.686798	0.340507
639.893365	0.340533
640.099913	0.340265
640.306443	0.340709
640.512955	0.341068
640.719449	0.341536
640.925924	0.341929
641.132381	0.342277
641.338820	0.342639
641.545241	0.342604
641.751644	0.343168
641.958028	0.343798
642.164394	0.343915
642.370742	0.343802
642.577071	0.344093
642.783383	0.344172
642.989676	0.344217
643.195951	0.344450
643.402207	0.344812
643.608446	0.344777
643.814666	0.344705
644.020868	0.344783
644.227052	0.345236
644.433218	0.345226
644.639365	0.345422
644.845494	0.345767
645.051605	0.346001
645.257698	0.346125
645.463772	0.346548
645.669828	0.346691
645.875866	0.347167
646.081886	0.347221
646.287888	0.347344
646.493871	0.347879
646.699836	0.348154
646.905783	0.348143
647.111712	0.348384
647.317622	0.348300
647.523514	0.348745
647.729388	0.348867
647.935244	0.349195
648.141082	0.349707
648.346901	0.349689
648.552702	0.349780
648.758485	0.349907
648.964250	0.350042
649.169996	0.350392
649.375724	0.350340
649.581434	0.350506
649.787126	0.350878
649.992800	0.350767
650.198455	0.351124
650.404092	0.351358
650.609711	0.351717
650.815311	0.351822
651.020894	0.351851
651.226458	0.352325
651.432004	0.352624
651.637532	0.352810
651.843041	0.353031
652.048532	0.352963
652.254006	0.352889
652.459460	0.353094
652.664897	0.353620
652.870315	0.354046
653.075716	0.354099
653.281097	0.354263
653.486461	0.354129
653.691807	0.354506
653.897134	0.354953
654.102443	0.355188
654.307734	0.355482
654.513006	0.355320
654.718261	0.355618
654.923497	0.355831
655.128715	0.356113
655.333915	0.356847
655.539096	0.356846
655.744259	0.356669
655.949404	0.356982
656.154531	0.357472
656.359640	0.357722
656.564730	0.357637
656.769802	0.357774
656.974856	0.358006
657.179892	0.357905
657.384909	0.358320
657.589908	0.358762
657.794889	0.359181
657.999852	0.359244
658.204797	0.359819
658.409723	0.360273
658.614631	0.360794
658.819521	0.360820
659.024393	0.361206
659.229246	0.361537
659.434081	0.361952
659.638898	0.362034
659.843697	0.361905
660.048478	0.361912
660.253240	0.361992
660.457984	0.361871
660.662710	0.362317
660.867417	0.362322
661.072107	0.362689
661.276778	0.363067
661.481431	0.363394
661.686066	0.363814
661.890682	0.363925
662.095281	0.364164
662.299861	0.364573
662.504422	0.364545
662.708966	0.364775
662.913491	0.364948
663.117999	0.364880
663.322488	0.365075
663.526958	0.365352
663.731411	0.365565
663.935845	0.365895
664.140261	0.366112
664.344659	0.366560
664.549038	0.366951
664.753400	0.367153
664.957743	0.367623
665.162068	0.367693
665.366375	0.367729
665.570663	0.367768
665.774933	0.368004
665.979185	0.368342
666.183419	0.368534
666.387635	0.368870
666.591832	0.369382
666.796011	0.369569
667.000172	0.369894
667.204315	0.370406
667.408439	0.371018
667.612545	0.371248
667.816634	0.371134
668.020703	0.371326
668.224755	0.371498
668.428788	0.371240
668.632803	0.371335
668.836800	0.371482
669.040779	0.371760
669.244739	0.371838
669.448681	0.372186
669.652605	0.372478
669.856511	0.372848
670.060399	0.373030
670.264268	0.373449
670.468119	0.373636
670.671952	0.373960
670.875767	0.374070
671.079563	0.374577
671.283341	0.374772
671.487101	0.375164
671.690843	0.375285
671.894567	0.375595
672.098272	0.376009
672.301959	0.376367
672.505628	0.376588
672.709278	0.376883
672.912911	0.376957
673.116525	0.377009
673.320121	0.377290
673.523699	0.377432
673.727258	0.377426
673.930799	0.377801
674.134322	0.378000
674.337827	0.378230
674.541314	0.378299
674.744782	0.378530
674.948232	0.378923
675.151664	0.379179
675.355078	0.379461
675.558474	0.379880
675.761851	0.379768
675.965210	0.380144
676.168551	0.380391
676.371873	0.380742
676.575178	0.381300
676.778464	0.381314
676.981732	0.381535
677.184981	0.381961
677.388213	0.382301
677.591426	0.382550
677.794621	0.382704
677.997798	0.382922
678.200956	0.383381
678.404097	0.383335
678.607219	0.383924
678.810323	0.383857
679.013408	0.384225
679.216476	0.384471
679.419525	0.384768
679.622556	0.384977
679.825569	0.385334
680.028563	0.385576
680.231540	0.385787
680.434498	0.385841
680.637438	0.386339
680.840359	0.386406
681.043263	0.386751
681.246148	0.386926
681.449015	0.387192
681.651864	0.387433
681.854694	0.387507
682.057506	0.387878
682.260301	0.388130
682.463076	0.388473
682.665834	0.388624
682.868573	0.388506
683.071295	0.388619
683.273998	0.388556
683.476682	0.388894
683.679349	0.388840
683.881997	0.388923
684.084627	0.389067
684.287239	0.389169
684.489833	0.389401
684.692408	0.389600
684.894965	0.390009
685.097504	0.390455
685.300025	0.390680
685.502527	0.391158
685.705012	0.391414
685.907478	0.391682
686.109925	0.391924
686.312355	0.392161
686.514766	0.392698
686.717159	0.392995
686.919534	0.393468
687.121891	0.393217
687.324230	0.393283
687.526550	0.393467
687.728852	0.393593
687.931136	0.394007
688.133401	0.394220
688.335649	0.394082
688.537878	0.393947
688.740089	0.393935
688.942281	0.394466
689.144456	0.394825
689.346612	0.394826
689.548750	0.395358
689.750870	0.395276
689.952971	0.395073
690.155055	0.395326
690.357120	0.395677
690.559167	0.395784
690.761195	0.396035
690.963206	0.396266
691.165198	0.396396
691.367172	0.396274
691.569128	0.396366
691.771065	0.397046
691.972984	0.397371
692.174885	0.397606
692.376768	0.397676
692.578633	0.397821
692.780479	0.397701
692.982308	0.398118
693.184118	0.398238
693.385909	0.398353
693.587683	0.398294
693.789438	0.398321
693.991175	0.398424
694.192894	0.398945
694.394595	0.399183
694.596277	0.399319
694.797941	0.399724
694.999587	0.400102
695.201215	0.400240
695.402824	0.400827
695.604416	0.401100
695.805989	0.401212
696.007543	0.401041
696.209080	0.401061
696.410598	0.401466
696.612099	0.401474
696.813580	0.401527
697.015044	0.401863
697.216490	0.401742
697.417917	0.402034
697.619326	0.402286
697.820717	0.402600
698.022089	0.402606
698.223444	0.402919
698.424780	0.403129
698.626098	0.403250
698.827397	0.403614
699.028679	0.403646
699.229942	0.403530
699.431187	0.403573
699.632414	0.403427
699.833622	0.403584
700.034813	0.403506
700.235985	0.403348
700.437139	0.403243
700.638274	0.403153
700.839392	0.403355
701.040491	0.403729
701.241572	0.404024
701.442635	0.404047
701.643679	0.404362
701.844706	0.404411
702.045714	0.404482
702.246704	0.404910
702.447675	0.405343
702.648629	0.405567
702.849564	0.405670
703.050481	0.405707
703.251380	0.405804
703.452260	0.405749
703.653122	0.405833
703.853966	0.405821
704.054792	0.405521
704.255600	0.405548
704.456389	0.405133
704.657160	0.404857
704.857913	0.404853
705.058648	0.405190
705.259365	0.405395
705.460063	0.405407
705.660743	0.405514
705.861405	0.405717
706.062048	0.405466
706.262674	0.405624
706.463281	0.405984
706.663870	0.406089
706.864441	0.406096
707.064993	0.405870
707.265527	0.406000
707.466043	0.406344
707.666541	0.406509
707.867021	0.406412
708.067482	0.406552
708.267925	0.406300
708.468350	0.406263
708.668757	0.406496
708.869145	0.406862
709.069516	0.406871
709.269868	0.406883
709.470201	0.406843
709.670517	0.406982
709.870814	0.407161
710.071093	0.407105
710.271354	0.407132
710.471597	0.406875
710.671821	0.406584
710.872028	0.406231
711.072216	0.405936
711.272385	0.405875
711.472537	0.406080
711.672670	0.405752
711.872785	0.406031
712.072882	0.406029
712.272961	0.405924
712.473021	0.405847
712.673063	0.405999
712.873087	0.405917
713.073093	0.405944
713.273081	0.405939
713.473050	0.405927
713.673001	0.405854
713.872934	0.405930
714.072849	0.405969
714.272745	0.406164
714.472623	0.406232
714.672483	0.406375
714.872325	0.406465
715.072148	0.406359
715.271954	0.406449
715.471741	0.406565
715.671509	0.406311
715.871260	0.406358
716.070992	0.406277
716.270707	0.406109
716.470403	0.406058
716.670080	0.405941
716.869740	0.405920
717.069381	0.405811
717.269004	0.405255
717.468609	0.405250
717.668195	0.404963
717.867764	0.404950
718.067314	0.404857
718.266846	0.404818
718.466360	0.404728
718.665855	0.404512
718.865332	0.404282
719.064791	0.404617
719.264232	0.404468
719.463655	0.404565
719.663059	0.404492
719.862445	0.404450
720.061813	0.404507
720.261163	0.404240
720.460494	0.404173
720.659807	0.404404
720.859102	0.403957
721.058379	0.403977
721.257638	0.403641
721.456878	0.403165
721.656100	0.402985
721.855304	0.402680
722.054490	0.402766
722.253657	0.402595
722.452806	0.402428
722.651937	0.402274
722.851050	0.402041
723.050145	0.401831
723.249221	0.401785
723.448279	0.401929
723.647319	0.401720
723.846340	0.401678
724.045344	0.401508
724.244329	0.401454
724.443296	0.401535
724.642245	0.401265
724.841175	0.401370
725.040088	0.401299
725.238982	0.401204
725.437857	0.401015
725.636715	0.400507
725.835554	0.400419
726.034376	0.399982
726.233179	0.399911
726.431963	0.399881
726.630730	0.399797
726.829478	0.399610
727.028208	0.399319
727.226920	0.399343
727.425614	0.399250
727.624289	0.398808
727.822946	0.398789
728.021585	0.398497
728.220206	0.398117
728.418808	0.397785
728.617392	0.397546
728.815958	0.397278
729.014506	0.396971
729.213036	0.396611
729.411547	0.396696
729.610040	0.396369
729.808515	0.396399
730.006972	0.396510
730.205410	0.396159
730.403831	0.396070
730.602233	0.395897
730.800616	0.395920
730.998982	0.396274
731.197329	0.395936
731.395658	0.396042
731.593969	0.395861
731.792262	0.395493
731.990536	0.395746
732.188793	0.395504
732.387031	0.395214
732.585250	0.395039
732.783452	0.394992
732.981635	0.394912
733.179800	0.394734
733.377947	0.394416
733.576076	0.394218
733.774186	0.393849
733.972278	0.393748
734.170352	0.393589
734.368408	0.393174
734.566446	0.392437
734.764465	0.392335
734.962466	0.391949
735.160449	0.391537
735.358413	0.391379
735.556360	0.391128
735.754288	0.390727
735.952198	0.390477
736.150090	0.390150
736.347963	0.390397
736.545818	0.389949
736.743655	0.389812
736.941474	0.389527
737.139275	0.389070
737.337057	0.388850
737.534821	0.388902
737.732567	0.388832
737.930295	0.388752
738.128005	0.388101
738.325696	0.387544
738.523369	0.387068
738.721024	0.386735
738.918660	0.386473
739.116279	0.386402
739.313879	0.385911
739.511461	0.385785
739.709024	0.385270
739.906570	0.385254
740.104097	0.385401
740.301606	0.385238
740.499097	0.384898
740.696569	0.384984
740.894024	0.384492
741.091460	0.384354
741.288878	0.383746
741.486277	0.383696
741.683659	0.383238
741.881022	0.383179
742.078367	0.382955
742.275694	0.383000
742.473002	0.382921
742.670293	0.382608
742.867565	0.382647
743.064819	0.382489
743.262054	0.382527
743.459272	0.382480
743.656471	0.382171
743.853652	0.382171
744.050815	0.382143
744.247959	0.381784
744.445085	0.381890
744.642194	0.381309
744.839283	0.380949
745.036355	0.380424
745.233408	0.380011
745.430444	0.379579
745.627461	0.379465
745.824459	0.379065
746.021440	0.378686
746.218402	0.378093
746.415346	0.377921
746.612272	0.378088
746.809180	0.377934
747.006069	0.377596
747.202940	0.377460
747.399793	0.376908
747.596628	0.376749
747.793444	0.376662
747.990243	0.376644
748.187023	0.376404
748.383784	0.375927
748.580528	0.375596
748.777253	0.375508
748.973960	0.375217
749.170649	0.374948
749.367320	0.374396
749.563973	0.374183
749.760607	0.373612
749.957223	0.373526
750.153821	0.373381
750.350400	0.373219
750.546962	0.373034
750.743505	0.372870
750.940030	0.372599
751.136536	0.372483
751.333025	0.372404
751.529495	0.372451
751.725947	0.371744
751.922381	0.371646
752.118796	0.371434
752.315194	0.371211
752.511573	0.370791
752.707934	0.370815
752.904276	0.370474
753.100601	0.369770
753.296907	0.369385
753.493195	0.369416
753.689465	0.369187
753.885716	0.368806
754.081949	0.368357
754.278164	0.368164
754.474361	0.368016
754.670540	0.367896
754.866700	0.367975
755.062843	0.367861
755.258967	0.367544
755.455072	0.367312
755.651160	0.367073
755.847229	0.367031
756.043280	0.366947
756.239313	0.366512
756.435328	0.366433
756.631324	0.366068
756.827302	0.365969
757.023262	0.365892
757.219204	0.365704
757.415127	0.365682
757.611033	0.365615
757.806920	0.365535
758.002788	0.365309
758.198639	0.365323
758.394471	0.365089
758.590286	0.364861
758.786081	0.364890
758.981859	0.364697
759.177619	0.364453
759.373360	0.364296
759.569083	0.364022
759.764788	0.363917
759.960474	0.363506
760.156143	0.363483
760.351793	0.363245
760.547425	0.362905
760.743038	0.362478
760.938634	0.362707
761.134211	0.362545
761.329770	0.362080
761.525311	0.361623
761.720833	0.361532
761.916338	0.360934
762.111824	0.360558
762.307292	0.360490
762.502741	0.360373
762.698173	0.359816
762.893586	0.359349
763.088981	0.359496
763.284358	0.359775
763.479716	0.359310
763.675057	0.359676
763.870379	0.359797
764.065683	0.359580
764.260968	0.359422
764.456236	0.359175
764.651485	0.359238
764.846716	0.359048
765.041929	0.358922
765.237123	0.359035
765.432299	0.358616
765.627457	0.358341
765.822597	0.358460
766.017719	0.358508
766.212822	0.358838
766.407907	0.358783
766.602974	0.358707
766.798023	0.358403
766.993054	0.358381
767.188066	0.358332
767.383060	0.358296
767.578036	0.357951
767.772993	0.358036
767.967933	0.357372
768.162854	0.357019
768.357757	0.356774
768.552642	0.356468
768.747508	0.356201
768.942356	0.356222
769.137186	0.356321
769.331998	0.356257
769.526792	0.355697
769.721567	0.356022
769.916324	0.356204
770.111063	0.356184
770.305784	0.356276
770.500486	0.356214
770.695171	0.356379
770.889837	0.356205
771.084484	0.356040
771.279114	0.356222
771.473725	0.356400
771.668318	0.356139
771.862893	0.356100
772.057450	0.356019
772.251988	0.356020
772.446509	0.355563
772.641011	0.355266
772.835494	0.355363
773.029960	0.355185
773.224407	0.354637
773.418836	0.354537
773.613247	0.354780
773.807640	0.354820
774.002014	0.354868
774.196370	0.354999
774.390708	0.355034
774.585028	0.354958
774.779330	0.355099
774.973613	0.355087
775.167878	0.355072
775.362125	0.354401
775.556354	0.354128
775.750564	0.353917
775.944756	0.353641
776.138930	0.353697
776.333086	0.353373
776.527223	0.353446
776.721343	0.353716
776.915444	0.353678
777.109526	0.354112
777.303591	0.353985
777.497637	0.353926
777.691666	0.354007
777.885676	0.353887
778.079667	0.354152
778.273641	0.353986
778.467596	0.353837
778.661533	0.354016
778.855452	0.353668
779.049352	0.354078
779.243235	0.353991
779.437099	0.354002
779.630945	0.354130
779.824773	0.354316
780.018582	0.354312
780.212373	0.354511
780.406146	0.354557
780.599901	0.354690
780.793638	0.354659
780.987356	0.354949
781.181056	0.355240
781.374738	0.355293
781.568402	0.355137
781.762047	0.355129
781.955674	0.354998
782.149283	0.354738
782.342874	0.354864
782.536447	0.355011
782.730001	0.354948
782.923537	0.354970
783.117055	0.354992
783.310555	0.354968
783.504036	0.355002
783.697499	0.354956
783.890944	0.355294
784.084371	0.355240
784.277780	0.355034
784.471170	0.354979
784.664542	0.355007
784.857896	0.355231
785.051231	0.355151
785.244549	0.355233
785.437848	0.355233
785.631129	0.355079
785.824392	0.355192
786.017636	0.355280
786.210863	0.355317
786.404071	0.355297
786.597260	0.355171
786.790432	0.355519
786.983585	0.355716
787.176721	0.355939
787.369838	0.356063
787.562936	0.356162
787.756017	0.356454
787.949079	0.356742
788.142123	0.356762
788.335149	0.357049
788.528156	0.356806
788.721146	0.357021
788.914117	0.357207
789.107070	0.357557
789.300005	0.357698
789.492921	0.357728
789.685819	0.357511
789.878699	0.357749
790.071561	0.357940
790.264405	0.358263
790.457230	0.358458
790.650037	0.358437
790.842826	0.358441
791.035597	0.358613
791.228349	0.358878
791.421084	0.359484
791.613800	0.359656
791.806497	0.359703
791.999177	0.360269
792.191838	0.360162
792.384481	0.360655
792.577106	0.361026
792.769713	0.361351
792.962301	0.361210
793.154871	0.361523
793.347423	0.361760
793.539957	0.362178
793.732473	0.361977
793.924970	0.362496
794.117449	0.362385
794.309910	0.362388
794.502353	0.362573
794.694777	0.362870
794.887183	0.363051
795.079571	0.363255
795.271941	0.363490
795.464293	0.363851
795.656626	0.363579
795.848941	0.363761
796.041238	0.364354
796.233516	0.364641
796.425777	0.365056
796.618019	0.364950
796.810243	0.365333
797.002449	0.365377
797.194636	0.365669
797.386805	0.366271
797.578956	0.366628
797.771089	0.366410
797.963204	0.366212
798.155300	0.366494
798.347378	0.366729
798.539438	0.366873
798.731480	0.367249
798.923503	0.367385
799.115509	0.367553
799.307496	0.368094
799.499465	0.368733
799.691415	0.369515
799.883348	0.369807
800.075262	0.370347
800.267158	0.370562
800.459035	0.370691
800.650895	0.371102
800.842736	0.371258
801.034559	0.370962
801.226364	0.371185
801.418150	0.371455
801.609919	0.371432
801.801669	0.371546
801.993401	0.371938
802.185114	0.372000
802.376810	0.372068
802.568487	0.372344
802.760146	0.372815
802.951787	0.373033
803.143409	0.372989
803.335014	0.373710
803.526600	0.373994
803.718168	0.373903
803.909717	0.374382
804.101249	0.375014
804.292762	0.375261
804.484257	0.375708
804.675734	0.375862
804.867192	0.376373
805.058632	0.376316
805.250054	0.376695
805.441458	0.377121
805.632844	0.377605
805.824211	0.377880
806.015561	0.378500
806.206891	0.378852
806.398204	0.379229
806.589499	0.379495
806.780775	0.379939
806.972033	0.380323
807.163273	0.380654
807.354495	0.380807
807.545698	0.381073
807.736883	0.381319
807.928050	0.381557
808.119199	0.381853
808.310329	0.382111
808.501441	0.382335
808.692535	0.382665
808.883611	0.383123
809.074669	0.383503
809.265708	0.383691
809.456729	0.383958
809.647732	0.384444
809.838717	0.384934
810.029683	0.385490
810.220632	0.386000
810.411562	0.386550
810.602474	0.387028
810.793367	0.387659
810.984242	0.388304
811.175100	0.388801
811.365938	0.389142
811.556759	0.389259
811.747562	0.389549
811.938346	0.390042
812.129112	0.390299
812.319860	0.390853
812.510589	0.390880
812.701300	0.390984
812.891994	0.391456
813.082668	0.391640
813.273325	0.391964
813.463964	0.392242
813.654584	0.392514
813.845186	0.392925
814.035769	0.392807
814.226335	0.392973
814.416882	0.393192
814.607411	0.393466
814.797922	0.394196
814.988415	0.394617
815.178889	0.395027
815.369345	0.395783
815.559783	0.396219
815.750203	0.397009
815.940605	0.397838
816.130988	0.398729
816.321353	0.399387
816.511700	0.399859
816.702028	0.400595
816.892339	0.401424
817.082631	0.401530
817.272905	0.401897
817.463161	0.402021
817.653398	0.402557
817.843617	0.402765
818.033819	0.403165
818.224001	0.403718
818.414166	0.404412
818.604312	0.404608
818.794440	0.405142
818.984550	0.405812
819.174642	0.406573
819.364716	0.406914
819.554771	0.407303
819.744808	0.407526
819.934827	0.407881
820.124827	0.408219
820.314810	0.408580
820.504774	0.408946
820.694720	0.409338
820.884647	0.410054
821.074557	0.410603
821.264448	0.411308
821.454321	0.411982
821.644176	0.412379
821.834012	0.412942
822.023831	0.413709
822.213631	0.414633
822.403413	0.415002
822.593176	0.414984
822.782922	0.415423
822.972649	0.415970
823.162358	0.416228
823.352049	0.416727
823.541721	0.416988
823.731376	0.417610
823.921012	0.417780
824.110629	0.418444
824.300229	0.419261
824.489811	0.419935
824.679374	0.420334
824.868919	0.421008
825.058445	0.421285
825.247954	0.421921
825.437444	0.422211
825.626916	0.422708
825.816370	0.422825
826.005806	0.423186
826.195223	0.423871
826.384622	0.424223
826.574003	0.424670
826.763366	0.425561
826.952711	0.425884
827.142037	0.426255
827.331345	0.426885
827.520635	0.427558
827.709906	0.428415
827.899160	0.428827
828.088395	0.429698
828.277612	0.430288
828.466810	0.430608
828.655991	0.431310
828.845153	0.432279
829.034297	0.432897
829.223423	0.433554
829.412531	0.434071
829.601620	0.434272
829.790691	0.434871
829.979744	0.435395
830.168779	0.435957
830.357795	0.436355
830.546793	0.436748
830.735773	0.437096
830.924735	0.437534
831.113679	0.437967
831.302604	0.438515
831.491511	0.439171
831.680400	0.439953
831.869271	0.440754
832.058123	0.441204
832.246957	0.441412
832.435773	0.442008
832.624571	0.443181
832.813351	0.443532
833.002112	0.444109
833.190855	0.444026
833.379580	0.444248
833.568287	0.444463
833.756975	0.445227
833.945645	0.445947
834.134297	0.446440
834.322931	0.446092
834.511547	0.446602
834.700144	0.447104
834.888723	0.447968
835.077284	0.448750
835.265826	0.449442
835.454351	0.449597
835.642857	0.450243
835.831345	0.451006
836.019815	0.451946
836.208266	0.452674
836.396699	0.453251
836.585114	0.453906
836.773511	0.454015
836.961890	0.454833
837.150250	0.455551
837.338592	0.456080
837.526916	0.456500
837.715222	0.457522
837.903510	0.458252
838.091779	0.458917
838.280030	0.459371
838.468263	0.460336
838.656477	0.460787
838.844674	0.461792
839.032852	0.462493
839.221012	0.463020
839.409153	0.463170
839.597277	0.463689
839.785382	0.464224
839.973469	0.465163
840.161538	0.465825
840.349589	0.465885
840.537621	0.466277
840.725635	0.466675
840.913631	0.467573
841.101609	0.468181
841.289568	0.469040
841.477509	0.470078
841.665432	0.470488
841.853337	0.470784
842.041224	0.471538
842.229092	0.472539
842.416942	0.472926
842.604774	0.473453
842.792588	0.474236
842.980383	0.474480
843.168160	0.474903
843.355919	0.475734
843.543660	0.476449
843.731382	0.477260
843.919087	0.477864
844.106773	0.478933
844.294441	0.479367
844.482090	0.480103
844.669722	0.480458
844.857335	0.481267
845.044930	0.481583
845.232507	0.482310
845.420065	0.482955
845.607605	0.482936
845.795127	0.483764
845.982631	0.484270
846.170117	0.484521
846.357584	0.485314
846.545033	0.485618
846.732464	0.486007
846.919877	0.486349
847.107272	0.487118
847.294648	0.488088
847.482006	0.487946
847.669346	0.488485
847.856667	0.489054
848.043971	0.489767
848.231256	0.490404
848.418523	0.491134
848.605771	0.491913
848.793002	0.492570
848.980214	0.493304
849.167408	0.494165
849.354584	0.494814
849.541742	0.495347
849.728881	0.495741
849.916002	0.495983
850.103105	0.496434
850.290190	0.497203
850.477256	0.497882
850.664304	0.497901
850.851334	0.498736
851.038346	0.499314
851.225340	0.499996
851.412315	0.501126
851.599272	0.502455
851.786211	0.503027
851.973132	0.503489
852.160034	0.504224
852.346918	0.505234
852.533784	0.505593
852.720632	0.506302
852.907462	0.507236
853.094273	0.507284
853.281066	0.507287
853.467841	0.507703
853.654598	0.508190
853.841336	0.508000
854.028056	0.508474
854.214758	0.509354
854.401442	0.510123
854.588107	0.510222
854.774755	0.510771
854.961384	0.511393
855.147995	0.512293
855.334587	0.513348
855.521162	0.514003
855.707718	0.514295
855.894256	0.514514
856.080775	0.514734
856.267277	0.515514
856.453760	0.516256
856.640225	0.517289
856.826672	0.517749
857.013101	0.517895
857.199511	0.518592
857.385903	0.519367
857.572277	0.520132
857.758633	0.520342
857.944970	0.520544
858.131290	0.520891
858.317591	0.520686
858.503873	0.521125
858.690138	0.521437
858.876384	0.522084
859.062612	0.522943
859.248822	0.523124
859.435014	0.524025
859.621188	0.524691
859.807343	0.525238
859.993480	0.525687
860.179599	0.526669
860.365699	0.527404
860.551781	0.527760
860.737846	0.527776
860.923891	0.528546
861.109919	0.529071
861.295929	0.529715
861.481920	0.529939
861.667893	0.530695
861.853848	0.530433
862.039784	0.530901
862.225702	0.531433
862.411603	0.532256
862.597484	0.532540
862.783348	0.533150
862.969193	0.533431
863.155021	0.533994
863.340830	0.534894
863.526620	0.536171
863.712393	0.536623
863.898147	0.536883
864.083883	0.537211
864.269601	0.537768
864.455301	0.538441
864.640982	0.539487
864.826645	0.540326
865.012290	0.540445
865.197917	0.540650
865.383526	0.540973
865.569116	0.541445
865.754688	0.541898
865.940242	0.542527
866.125777	0.542339
866.311295	0.542786
866.496794	0.543412
866.682275	0.544266
866.867737	0.544851
867.053182	0.545258
867.238608	0.546233
867.424016	0.546784
867.609406	0.546600
867.794778	0.547573
867.980131	0.547760
868.165466	0.547835
868.350783	0.547814
868.536082	0.547854
868.721362	0.548511
868.906625	0.548596
869.091869	0.549449
869.277094	0.550714
869.462302	0.550788
869.647491	0.551245
869.832662	0.552419
870.017815	0.552586
870.202950	0.552725
870.388066	0.552978
870.573165	0.552853
870.758245	0.552604
870.943306	0.553112
871.128350	0.553573
871.313375	0.553469
871.498382	0.552639
871.683371	0.553199
871.868342	0.553857
872.053294	0.554288
872.238229	0.554570
872.423144	0.554568
872.608042	0.554217
872.792922	0.554386
872.977783	0.554932
873.162626	0.555868
873.347451	0.555845
873.532258	0.555814
873.717046	0.555700
873.901816	0.556482
874.086568	0.557315
874.271302	0.557885
874.456017	0.558439
874.640715	0.558948
874.825394	0.559317
875.010055	0.560252
875.194697	0.560792
875.379322	0.561556
875.563928	0.562063
875.748516	0.562336
875.933085	0.562557
876.117637	0.562534
876.302170	0.562686
876.486685	0.562790
876.671182	0.563256
876.855661	0.563449
877.040121	0.563937
877.224563	0.563895
877.408987	0.564135
877.593393	0.564164
877.777780	0.564741
877.962150	0.564752
878.146501	0.564965
878.330833	0.564677
878.515148	0.565083
878.699444	0.564971
878.883722	0.565601
879.067982	0.566009
879.252224	0.566874
879.436447	0.566826
879.620653	0.567139
879.804840	0.567325
879.989008	0.567579
880.173159	0.567680
880.357291	0.567949
880.541405	0.568235
880.725501	0.568079
880.909579	0.568007
881.093638	0.568669
881.277680	0.568401
881.461703	0.568457
881.645707	0.568803
881.829694	0.568983
882.013662	0.568841
882.197612	0.568558
882.381544	0.568963
882.565458	0.568601
882.749353	0.568451
882.933230	0.569642
883.117089	0.570062
883.300930	0.569989
883.484753	0.570280
883.668557	0.570750
883.852343	0.571526
884.036111	0.571360
884.219861	0.571974
884.403592	0.571733
884.587305	0.571123
884.771000	0.571253
884.954677	0.571345
885.138335	0.571976
885.321976	0.571866
885.505598	0.571426
885.689201	0.571026
885.872787	0.571208
886.056354	0.571558
886.239904	0.571563
886.423434	0.571510
886.606947	0.571584
886.790442	0.571089
886.973918	0.571437
887.157376	0.571213
887.340816	0.571474
887.524237	0.571138
887.707641	0.571630
887.891026	0.571960
888.074393	0.571413
888.257741	0.571438
888.441072	0.571236
888.624384	0.570880
888.807678	0.571027
888.990954	0.571370
889.174211	0.570936
889.357451	0.570367
889.540672	0.570313
889.723875	0.570532
889.907059	0.570058
890.090226	0.570346
890.273374	0.570625
890.456504	0.570179
890.639616	0.570443
890.822709	0.570512
891.005785	0.570683
891.188842	0.570378
891.371881	0.570226
891.554901	0.570295
891.737904	0.569857
891.920888	0.570061
892.103854	0.570777
892.286802	0.570578
892.469731	0.571036
892.652643	0.571105
892.835536	0.571108
893.018410	0.570889
893.201267	0.571274
893.384106	0.570338
893.566926	0.569621
893.749728	0.569316
893.932511	0.568302
894.115277	0.567672
894.298024	0.567466
894.480753	0.567411
894.663464	0.567451
894.846157	0.567597
895.028831	0.568329
895.211487	0.568676
895.394125	0.568473
895.576745	0.569160
895.759346	0.569271
895.941930	0.568701
896.124495	0.568052
896.307041	0.567730
896.489570	0.566287
896.672080	0.565375
896.854573	0.564470
897.037046	0.563618
897.219502	0.562947
897.401940	0.562995
897.584359	0.562762
897.766760	0.562287
897.949143	0.562015
898.131507	0.562353
898.313854	0.562860
898.496182	0.563161
898.678492	0.563457
898.860783	0.563028
899.043057	0.562064
899.225312	0.561977
899.407549	0.562179
899.589768	0.561711
899.771968	0.561432
899.954151	0.561059
900.136315	0.560234
900.318461	0.559449
900.500588	0.559482
900.682698	0.559810
900.864789	0.559042
901.046862	0.558678
901.228917	0.558855
901.410953	0.558214
901.592971	0.557530
901.774972	0.556693
901.956953	0.556551
902.138917	0.556024
902.320862	0.554449
902.502790	0.553987
902.684699	0.553991
902.866589	0.553700
903.048462	0.553386
903.230316	0.552919
903.412152	0.553025
903.593970	0.552480
903.775770	0.551659
903.957551	0.551720
904.139314	0.551761
904.321059	0.550733
904.502786	0.550132
904.684494	0.549480
904.866185	0.549168
905.047857	0.548446
905.229510	0.547042
905.411146	0.546960
905.592763	0.545740
905.774363	0.545314
905.955943	0.545069
906.137506	0.544092
906.319051	0.543712
906.500577	0.543204
906.682085	0.543301
906.863575	0.543589
907.045046	0.542893
907.226500	0.543045
907.407935	0.542367
907.589352	0.541563
907.770750	0.541711
907.952131	0.541311
908.133493	0.540870
908.314837	0.540009
908.496163	0.540267
908.677470	0.539703
908.858760	0.538893
909.040031	0.538050
909.221284	0.536686
909.402518	0.535282
909.583735	0.535308
909.764933	0.534093
909.946113	0.533130
910.127275	0.530870
910.308418	0.530498
910.489544	0.530452
910.670651	0.529153
910.851740	0.529091
911.032810	0.528841
911.213863	0.527902
911.394897	0.527742
911.575913	0.527374
911.756911	0.527447
911.937890	0.526539
912.118851	0.525704
912.299794	0.524867
912.480719	0.524122
912.661626	0.523434
912.842514	0.522215
913.023384	0.521112
913.204236	0.519250
913.385070	0.518272
913.565886	0.518093
913.746683	0.516842
913.927462	0.516921
914.108223	0.516351
914.288965	0.515078
914.469690	0.514379
914.650396	0.514495
914.831084	0.514788
915.011754	0.514434
915.192405	0.512879
915.373038	0.512563
915.553653	0.512085
915.734250	0.511957
915.914829	0.511263
916.095389	0.510475
916.275931	0.508571
916.456455	0.507521
916.636961	0.506265
916.817448	0.505568
916.997917	0.504342
917.178368	0.502296
917.358801	0.500481
917.539216	0.500298
917.719612	0.499137
917.899990	0.499032
918.080350	0.498047
918.260692	0.497006
918.441015	0.495559
918.621320	0.494549
918.801607	0.494171
918.981876	0.493291
919.162127	0.491577
919.342359	0.490359
919.522573	0.488826
919.702769	0.487591
919.882947	0.486931
920.063106	0.486398
920.243247	0.486084
920.423370	0.485560
920.603475	0.485154
920.783562	0.484880
920.963630	0.485205
921.143680	0.484285
921.323712	0.483766
921.503725	0.482329
921.683721	0.481457
921.863698	0.479545
922.043657	0.478885
922.223598	0.477002
922.403520	0.475827
922.583424	0.473378
922.763311	0.472930
922.943178	0.472185
923.123028	0.472157
923.302859	0.470960
923.482673	0.470049
923.662467	0.467420
923.842244	0.467600
924.022003	0.466531
924.201743	0.466248
924.381465	0.464993
924.561169	0.463118
924.740854	0.461915
924.920522	0.460544
925.100171	0.460740
925.279802	0.460258
925.459414	0.458620
925.639009	0.456779
925.818585	0.455048
925.998143	0.453115
926.177683	0.452575
926.357205	0.451723
926.536708	0.451586
926.716193	0.448972
926.895660	0.447899
927.075109	0.447043
927.254539	0.446714
927.433951	0.446395
927.613345	0.446188
927.792721	0.444990
927.972079	0.443242
928.151418	0.441636
928.330739	0.441221
928.510042	0.440635
928.689327	0.439653
928.868593	0.438326
929.047841	0.436486
929.227071	0.434126
929.406283	0.432965
929.585476	0.432342
929.764652	0.430879
929.943809	0.429733
930.122948	0.427739
930.302068	0.425265
930.481171	0.424329
930.660255	0.422757
930.839321	0.423969
931.018369	0.422032
931.197398	0.420034
931.376409	0.418592
931.555402	0.417227
931.734377	0.416832
931.913334	0.416004
932.092272	0.414451
932.271192	0.413568
932.450094	0.411323
932.628978	0.410469
932.807844	0.408548
932.986691	0.407007
933.165520	0.406075
933.344331	0.404463
933.523123	0.403519
933.701898	0.402300
933.880654	0.401487
934.059392	0.400583
934.238111	0.399585
934.416813	0.397541
934.595496	0.396425
934.774161	0.394731
934.952808	0.393619
935.131437	0.391650
935.310047	0.389505
935.488639	0.387800
935.667213	0.384831
935.845769	0.383456
936.024306	0.383567
936.202825	0.382113
936.381326	0.380296
936.559809	0.378847
936.738274	0.377514
936.916720	0.376894
937.095148	0.375633
937.273558	0.373845
937.451950	0.372044
937.630323	0.370563
937.808678	0.368858
937.987015	0.369061
938.165334	0.367756
938.343635	0.366733
938.521917	0.365482
938.700181	0.363072
938.878427	0.363222
939.056655	0.362044
939.234864	0.360652
939.413055	0.359457
939.591228	0.357937
939.769383	0.355525
939.947519	0.353117
940.125638	0.350454
940.303738	0.350281
940.481820	0.348252
940.659883	0.347860
940.837929	0.346334
941.015956	0.345575
941.193965	0.343493
941.371955	0.343699
941.549928	0.343241
941.727882	0.342206
941.905818	0.339525
942.083736	0.338279
942.261636	0.335410
942.439517	0.335011
942.617380	0.333765
942.795225	0.330763
942.973052	0.328091
943.150860	0.325534
943.328651	0.324403
943.506423	0.322869
943.684176	0.321150
943.861912	0.319715
944.039629	0.317160
944.217328	0.314499
944.395009	0.313780
944.572672	0.312065
944.750317	0.311582
944.927943	0.310363
945.105551	0.308292
945.283141	0.306366
945.460712	0.305008
945.638265	0.303524
945.815801	0.302480
945.993317	0.300682
946.170816	0.299506
946.348297	0.297881
946.525759	0.296035
946.703203	0.296423
946.880629	0.295103
947.058036	0.294817
947.235425	0.293791
947.412797	0.292816
947.590149	0.292201
947.767484	0.290480
947.944800	0.289758
948.122099	0.285810
948.299379	0.283736
948.476640	0.282307
948.653884	0.279951
948.831109	0.276920
949.008316	0.274587
949.185505	0.272833
949.362676	0.271319
949.539828	0.268655
949.716962	0.269461
949.894078	0.267088
950.071176	0.265581
950.248256	0.264401
950.425317	0.263797
950.602360	0.262556
950.779385	0.260329
950.956391	0.258235
951.133380	0.254816
951.310350	0.252042
951.487302	0.249115
951.664235	0.247763
951.841151	0.243865
952.018048	0.240820
952.194927	0.238271
952.371788	0.236714
952.548631	0.236700
952.725455	0.237677
952.902261	0.236088
953.079049	0.237605
953.255819	0.236535
953.432570	0.235501
953.609303	0.235471
953.786018	0.234722
953.962715	0.233505
954.139394	0.231369
954.316054	0.229558
954.492696	0.228539
954.669320	0.226920
954.845926	0.225568
955.022513	0.225884
955.199083	0.226162
955.375634	0.226116
955.552166	0.223406
955.728681	0.219504
955.905177	0.217809
956.081655	0.220106
956.258115	0.218444
956.434557	0.216746
956.610980	0.213691
956.787385	0.211050
956.963772	0.208673
957.140141	0.209405
957.316492	0.210216
957.492824	0.208951
957.669138	0.202117
957.845434	0.202069
958.021712	0.201491
958.197971	0.201279
958.374212	0.198617
958.550435	0.197815
958.726640	0.196705
958.902826	0.195866
959.078995	0.196465
959.255145	0.199203
959.431277	0.195642
959.607390	0.193629
959.783486	0.192937
959.959563	0.196059
960.135622	0.196357
960.311662	0.194790
960.487685	0.194732
960.663689	0.194110
960.839675	0.195087
961.015643	0.195730
961.191593	0.196126
961.367524	0.195725
961.543437	0.194399
961.719332	0.192412
961.895209	0.192231
962.071067	0.190484
962.246907	0.189590
962.422730	0.185372
962.598533	0.184644
962.774319	0.182643
962.950086	0.179479
963.125835	0.176825
963.301566	0.177340
963.477279	0.175894
963.652973	0.175481
963.828650	0.172988
964.004308	0.174041
964.179947	0.173952
964.355569	0.172567
964.531172	0.175169
964.706757	0.175448
964.882324	0.175019
965.057873	0.176178
965.233403	0.173576
965.408916	0.173972
965.584410	0.172056
965.759885	0.170790
965.935343	0.172917
966.110782	0.171123
966.286203	0.169747
966.461606	0.168328
966.636991	0.167231
966.812357	0.170274
966.987705	0.168752
967.163035	0.169492
967.338347	0.170168
967.513641	0.167389
967.688916	0.166988
967.864173	0.167854
968.039412	0.167221
968.214632	0.167104
968.389835	0.165618
968.565019	0.168290
968.740185	0.169057
968.915333	0.167387
969.090462	0.167536
969.265573	0.169190
969.440667	0.167904
969.615741	0.170656
969.790798	0.171091
969.965836	0.170544
970.140856	0.169633
970.315858	0.169006
970.490842	0.170956
970.665808	0.171335
970.840755	0.169748
971.015684	0.170603
971.190595	0.168028
971.365487	0.168090
971.540362	0.168022
971.715218	0.168965
971.890056	0.168879
972.064875	0.165990
972.239677	0.167311
972.414460	0.168614
972.589225	0.168796
972.763972	0.169276
972.938700	0.168832
973.113411	0.169506
973.288103	0.168833
973.462777	0.168944
973.637432	0.168973
973.812070	0.165703
973.986689	0.167761
974.161290	0.169212
974.335873	0.170000
974.510437	0.169328
974.684984	0.171043
974.859512	0.171646
975.034022	0.173435
975.208513	0.174711
975.382987	0.179443
975.557442	0.177343
975.731879	0.173854
975.906298	0.172286
976.080698	0.172467
976.255080	0.171898
976.429445	0.172089
976.603790	0.171719
976.778118	0.173296
976.952427	0.171779
977.126719	0.169876
977.300992	0.171301
977.475246	0.172612
977.649483	0.171843
977.823701	0.170163
977.997901	0.169995
978.172083	0.169842
978.346247	0.170417
978.520392	0.170428
978.694519	0.170429
978.868628	0.170558
979.042719	0.168755
979.216791	0.169671
979.390845	0.171603
979.564882	0.169971
979.738899	0.169370
979.912899	0.167623
980.086880	0.168445
980.260843	0.169575
980.434788	0.170764
980.608715	0.173771
980.782623	0.172867
980.956514	0.172669
981.130386	0.173162
981.304240	0.171581
981.478075	0.172804
981.651892	0.172492
981.825692	0.174008
981.999472	0.172083
982.173235	0.170141
982.346980	0.171961
982.520706	0.173278
982.694414	0.173198
982.868104	0.173287
983.041775	0.171841
983.215428	0.169451
983.389064	0.167634
983.562680	0.169517
983.736279	0.170051
983.909860	0.167876
984.083422	0.164511
984.256966	0.167168
984.430491	0.169218
984.603999	0.169391
984.777488	0.169945
984.950959	0.169580
985.124412	0.170383
985.297847	0.171520
985.471263	0.169780
985.644661	0.172211
985.818041	0.168883
985.991403	0.167833
986.164747	0.167756
986.338072	0.168684
986.511379	0.171191
986.684668	0.169541
986.857938	0.168835
987.031191	0.171840
987.204425	0.171748
987.377641	0.172972
987.550839	0.174425
987.724018	0.176294
987.897179	0.177163
988.070322	0.177472
988.243447	0.177604
988.416554	0.176288
988.589642	0.176428
988.762712	0.175137
988.935764	0.176902
989.108798	0.176086
989.281813	0.176528
989.454811	0.175055
989.627790	0.172347
989.800751	0.171036
989.973693	0.171205
990.146617	0.171367
990.319524	0.172325
990.492412	0.169202
990.665281	0.168846
990.838133	0.167150
991.010966	0.167662
991.183781	0.167855
991.356578	0.170478
991.529356	0.171911
991.702117	0.170292
991.874859	0.169587
992.047583	0.170157
992.220288	0.171110
992.392976	0.173774
992.565645	0.174319
992.738296	0.175792
992.910929	0.175989
993.083543	0.175519
993.256139	0.177611
993.428718	0.177869
993.601277	0.176581
993.773819	0.174789
993.946342	0.174365
994.118848	0.175841
994.291335	0.174294
994.463803	0.172825
994.636254	0.172586
994.808686	0.172064
994.981100	0.172531
995.153496	0.175873
995.325874	0.177262
995.498233	0.174078
995.670574	0.172445
995.842897	0.173479
996.015202	0.172391
996.187488	0.172934
996.359757	0.173515
996.532007	0.172208
996.704239	0.172311
996.876452	0.171215
997.048648	0.172241
997.220825	0.171406
997.392984	0.170945
997.565124	0.172125
997.737247	0.173105
997.909351	0.174761
998.081437	0.177334
998.253505	0.175095
998.425554	0.175197
998.597586	0.177404
998.769599	0.178458
998.941594	0.178072
999.113571	0.179428
999.285529	0.179316
999.457469	0.177200
999.629391	0.176502
999.801295	0.177311
999.973181	0.175647
1000.145048	0.172831
1000.316897	0.173763
1000.488728	0.175886
1000.660541	0.172777
1000.832335	0.170833
1001.004111	0.170575
1001.175869	0.170770
1001.347609	0.169160
1001.519331	0.171142
1001.691034	0.171891
1001.862719	0.171380
1002.034386	0.169904
1002.206035	0.172060
1002.377665	0.174625
1002.549277	0.175314
1002.720871	0.173900
1002.892447	0.174698
1003.064004	0.176888
1003.235544	0.177045
1003.407065	0.177145
1003.578568	0.176646
1003.750052	0.177096
1003.921519	0.175653
1004.092967	0.176201
1004.264397	0.178968
1004.435809	0.180181
1004.607202	0.178061
1004.778577	0.177258
1004.949934	0.178406
1005.121273	0.180007
1005.292594	0.179649
1005.463896	0.179046
1005.635180	0.178866
1005.806446	0.174818
1005.977694	0.175294
1006.148923	0.175095
1006.320135	0.175531
1006.491328	0.174238
1006.662503	0.174198
1006.833659	0.173456
1007.004798	0.174226
1007.175918	0.174913
1007.347020	0.176545
1007.518103	0.175486
1007.689169	0.173978
1007.860216	0.175590
1008.031245	0.175526
1008.202256	0.176166
1008.373248	0.176638
1008.544223	0.177965
1008.715179	0.176849
1008.886117	0.177655
1009.057036	0.179368
1009.227938	0.181824
1009.398821	0.180399
1009.569686	0.179360
1009.740533	0.177190
1009.911361	0.178059
1010.082172	0.177829
1010.252964	0.176122
1010.423738	0.175729
1010.594493	0.175280
1010.765231	0.175713
1010.935950	0.176344
1011.106651	0.175573
1011.277334	0.175961
1011.447998	0.175935
1011.618645	0.175081
1011.789273	0.176751
1011.959882	0.175368
1012.130474	0.173117
1012.301048	0.172319
1012.471603	0.174112
1012.642140	0.175943
1012.812658	0.176823
1012.983159	0.174968
1013.153641	0.174673
1013.324105	0.174207
1013.494551	0.175948
1013.664979	0.177675
1013.835388	0.178493
1014.005779	0.175350
1014.176152	0.174252
1014.346507	0.174144
1014.516843	0.176358
1014.687162	0.176093
1014.857462	0.175564
1015.027744	0.174789
1015.198007	0.173944
1015.368252	0.173364
1015.538480	0.174940
1015.708689	0.176134
1015.878879	0.176123
1016.049052	0.176495
1016.219206	0.177868
1016.389342	0.177910
1016.559460	0.177851
1016.729559	0.179378
1016.899641	0.179391
1017.069704	0.178630
1017.239749	0.179531
1017.409775	0.179953
1017.579784	0.179296
1017.749774	0.178669
1017.919746	0.179779
1018.089700	0.180761
1018.259635	0.179206
1018.429553	0.178060
1018.599452	0.179768
1018.769333	0.176792
1018.939195	0.176128
1019.109040	0.176130
1019.278866	0.174794
1019.448674	0.174804
1019.618464	0.174709
1019.788235	0.175692
1019.957989	0.176096
1020.127724	0.173479
1020.297441	0.173080
1020.467139	0.173425
1020.636820	0.172149
1020.806482	0.171981
1020.976126	0.171941
1021.145752	0.169996
1021.315359	0.170878
1021.484948	0.171934
1021.654519	0.172294
1021.824072	0.173459
1021.993607	0.172407
1022.163123	0.172537
1022.332621	0.174983
1022.502101	0.175430
1022.671563	0.176789
1022.841007	0.174725
1023.010432	0.171326
1023.179839	0.170586
1023.349228	0.171707
1023.518598	0.173391
1023.687951	0.172387
1023.857285	0.170068
1024.026601	0.169261
1024.195899	0.169292
1024.365178	0.168350
1024.534439	0.170660
1024.703682	0.172566
1024.872907	0.171971
1025.042114	0.171257
1025.211302	0.171429
1025.380472	0.171207
1025.549624	0.171641
1025.718758	0.169928
1025.887873	0.171336
1026.056970	0.172729
1026.226049	0.172282
1026.395110	0.172285
1026.564153	0.173788
1026.733177	0.176753
1026.902183	0.177293
1027.071171	0.175096
1027.240141	0.176505
1027.409092	0.176579
1027.578026	0.175794
1027.746940	0.176146
1027.915837	0.174325
1028.084716	0.172882
1028.253576	0.170602
1028.422418	0.171496
1028.591242	0.171252
1028.760048	0.171054
1028.928835	0.171500
1029.097604	0.171609
1029.266355	0.170487
1029.435088	0.172656
1029.603803	0.170950
1029.772499	0.171774
1029.941177	0.171290
1030.109837	0.174142
1030.278478	0.174952
1030.447102	0.175854
1030.615707	0.176902
1030.784294	0.178942
1030.952863	0.177474
1031.121413	0.178827
1031.289945	0.177627
1031.458460	0.179135
1031.626955	0.178567
1031.795433	0.178074
1031.963892	0.176110
1032.132334	0.174136
1032.300756	0.172630
1032.469161	0.174243
1032.637548	0.174939
1032.805916	0.176469
1032.974266	0.175449
1033.142598	0.176376
1033.310911	0.176091
1033.479207	0.176417
1033.647484	0.176667
1033.815743	0.177141
1033.983983	0.175934
1034.152206	0.173218
1034.320410	0.172338
1034.488596	0.171275
1034.656764	0.171781
1034.824914	0.171017
1034.993045	0.170720
1035.161158	0.171083
1035.329253	0.171161
1035.497330	0.171261
1035.665388	0.173243
1035.833428	0.173966
1036.001450	0.176309
1036.169454	0.174789
1036.337440	0.175450
1036.505407	0.175065
1036.673356	0.175049
1036.841287	0.173340
1037.009200	0.173019
1037.177094	0.173171
1037.344970	0.172640
1037.512828	0.171630
1037.680668	0.171390
1037.848489	0.170839
1038.016293	0.171588
1038.184078	0.170213
1038.351845	0.172084
1038.519593	0.173430
1038.687324	0.174853
1038.855036	0.173804
1039.022730	0.171021
1039.190406	0.173058
1039.358063	0.175223
1039.525702	0.174579
1039.693323	0.176465
1039.860926	0.176630
1040.028511	0.175980
1040.196077	0.174386
1040.363625	0.174719
1040.531155	0.177050
1040.698667	0.175159
1040.866161	0.173985
1041.033636	0.175211
1041.201093	0.174677
1041.368532	0.174312
1041.535952	0.173042
1041.703355	0.174103
1041.870739	0.173466
1042.038105	0.172753
1042.205452	0.172043
1042.372782	0.169867
1042.540093	0.169099
1042.707386	0.168539
1042.874661	0.167858
1043.041918	0.168769
1043.209156	0.167076
1043.376376	0.168875
1043.543578	0.169322
1043.710762	0.170479
1043.877927	0.171967
1044.045074	0.172197
1044.212203	0.171771
1044.379314	0.173803
1044.546407	0.174997
1044.713481	0.174931
1044.880537	0.174304
1045.047575	0.173067
1045.214595	0.171914
1045.381596	0.170714
1045.548579	0.170862
1045.715544	0.171788
1045.882491	0.169791
1046.049420	0.168037
1046.216330	0.166936
1046.383222	0.166180
1046.550096	0.167068
1046.716951	0.167474
1046.883789	0.169490
1047.050608	0.170565
1047.217409	0.170149
1047.384192	0.169509
1047.550956	0.169834
1047.717703	0.170915
1047.884431	0.171752
1048.051140	0.172621
1048.217832	0.172436
1048.384505	0.172259
1048.551161	0.170860
1048.717798	0.171502
1048.884416	0.172728
1049.051017	0.175574
1049.217599	0.174905
1049.384163	0.174786
1049.550709	0.175701
1049.717237	0.174735
1049.883746	0.174566
1050.050237	0.174724
1050.216710	0.174367
1050.383165	0.174563
1050.549601	0.171820
1050.716019	0.172486
1050.882420	0.171230
1051.048801	0.170833
1051.215165	0.171563
1051.381510	0.172494
1051.547837	0.172807
1051.714146	0.174127
1051.880437	0.173455
1052.046709	0.174586
1052.212964	0.173288
1052.379200	0.174222
1052.545417	0.173255
1052.711617	0.175897
1052.877798	0.175499
1053.043961	0.173448
1053.210106	0.171942
1053.376233	0.170778
1053.542341	0.167813
1053.708432	0.169773
1053.874504	0.168233
1054.040557	0.167452
1054.206593	0.164826
1054.372610	0.165517
1054.538609	0.167881
1054.704590	0.168773
1054.870553	0.170783
1055.036497	0.172700
1055.202424	0.172853
1055.368331	0.175687
1055.534221	0.177772
1055.700093	0.178419
1055.865946	0.177164
1056.031781	0.177056
1056.197598	0.176820
1056.363397	0.176409
1056.529177	0.177022
1056.694939	0.176230
1056.860683	0.175313
1057.026409	0.173989
1057.192116	0.172673
1057.357806	0.172319
1057.523477	0.172291
1057.689130	0.170761
1057.854764	0.170904
1058.020381	0.170249
1058.185979	0.168375
1058.351559	0.170436
1058.517120	0.168759
1058.682664	0.171346
1058.848189	0.171393
1059.013696	0.171955
1059.179185	0.173907
1059.344656	0.175128
1059.510108	0.175216
1059.675542	0.176541
1059.840958	0.174490
1060.006356	0.175363
1060.171735	0.175833
1060.337096	0.175743
1060.502439	0.174830
1060.667764	0.172050
1060.833071	0.172563
1060.998359	0.173726
1061.163629	0.176099
1061.328881	0.174998
1061.494115	0.178496
1061.659330	0.175526
1061.824527	0.176433
1061.989706	0.174704
1062.154867	0.176382
1062.320010	0.174953
1062.485134	0.173084
1062.650240	0.172822
1062.815328	0.174156
1062.980398	0.172818
1063.145449	0.173049
1063.310482	0.173149
1063.475497	0.176829
1063.640494	0.176986
1063.805473	0.175670
1063.970433	0.177640
1064.135375	0.179863
1064.300299	0.179948
1064.465204	0.177440
1064.630092	0.178587
1064.794961	0.178900
1064.959812	0.177327
1065.124645	0.178369
1065.289459	0.178852
1065.454256	0.179090
1065.619034	0.174851
1065.783793	0.175654
1065.948535	0.175748
1066.113258	0.173079
1066.277964	0.172670
1066.442651	0.169195
1066.607319	0.167670
1066.771970	0.169608
1066.936602	0.169163
1067.101216	0.170508
1067.265812	0.171976
1067.430389	0.174252
1067.594949	0.176051
1067.759490	0.174378
1067.924013	0.179051
1068.088518	0.180765
1068.253004	0.178846
1068.417472	0.178771
1068.581922	0.178486
1068.746354	0.174787
1068.910768	0.173021
1069.075163	0.174583
1069.239540	0.176516
1069.403899	0.176095
1069.568240	0.175433
1069.732562	0.173950
1069.896866	0.174132
1070.061152	0.173885
1070.225420	0.175298
1070.389670	0.175080
1070.553901	0.175893
1070.718114	0.176364
1070.882309	0.172859
1071.046486	0.175589
1071.210644	0.179421
1071.374784	0.180702
1071.538906	0.180078
1071.703010	0.178749
1071.867096	0.179566
1072.031163	0.180109
1072.195212	0.178693
1072.359243	0.182531
1072.523256	0.180527
1072.687250	0.178602
1072.851226	0.179352
1073.015184	0.179815
1073.179124	0.179301
1073.343045	0.181374
1073.506949	0.180330
1073.670834	0.181594
1073.834701	0.182880
1073.998549	0.181699
1074.162380	0.180914
1074.326192	0.178621
1074.489986	0.178763
1074.653761	0.180463
1074.817519	0.177292
1074.981258	0.175616
1075.144979	0.176280
1075.308682	0.172967
1075.472367	0.173627
1075.636033	0.174609
1075.799681	0.174875
1075.963311	0.177904
1076.126923	0.179005
1076.290516	0.181120
1076.454092	0.181032
1076.617649	0.179278
1076.781187	0.181814
1076.944708	0.183354
1077.108210	0.186664
1077.271695	0.184803
1077.435160	0.181391
1077.598608	0.180419
1077.762038	0.180639
1077.925449	0.183298
1078.088842	0.186910
1078.252217	0.184183
1078.415573	0.183314
1078.578912	0.179746
1078.742232	0.180397
1078.905534	0.184164
1079.068817	0.185314
1079.232083	0.184361
1079.395330	0.181852
1079.558559	0.178516
1079.721770	0.182268
1079.884962	0.179595
1080.048136	0.182455
1080.211293	0.183732
1080.374430	0.180902
1080.537550	0.181470
1080.700651	0.182468
1080.863735	0.183001
1081.026800	0.182059
1081.189846	0.180453
1081.352875	0.183398
1081.515885	0.182838
1081.678877	0.182116
1081.841851	0.180860
1082.004807	0.183111
1082.167744	0.182972
1082.330663	0.184138
1082.493564	0.186196
1082.656447	0.187575
1082.819312	0.188334
1082.982158	0.186272
1083.144986	0.186814
1083.307796	0.188067
1083.470587	0.186168
1083.633361	0.188315
1083.796116	0.185940
1083.958853	0.182861
1084.121571	0.179513
1084.284272	0.178124
1084.446954	0.179162
1084.609618	0.180499
1084.772264	0.183852
1084.934892	0.182382
1085.097501	0.181766
1085.260092	0.183651
1085.422665	0.186456
1085.585220	0.186884
1085.747756	0.186134
1085.910274	0.186872
1086.072774	0.185167
1086.235256	0.182311
1086.397720	0.183089
1086.560165	0.180690
1086.722592	0.178617
1086.885001	0.178865
1087.047392	0.182725
1087.209764	0.182145
1087.372119	0.183332
1087.534455	0.186958
1087.696772	0.186433
1087.859072	0.185054
1088.021353	0.185777
1088.183616	0.189749
1088.345861	0.189237
1088.508088	0.185552
1088.670296	0.186536
1088.832486	0.184577
1088.994658	0.182832
1089.156812	0.184953
1089.318948	0.187751
1089.481065	0.186623
1089.643164	0.186387
1089.805245	0.187940
1089.967308	0.190902
1090.129352	0.191702
1090.291378	0.191509
1090.453386	0.188281
1090.615376	0.188196
1090.777347	0.185643
1090.939301	0.191151
1091.101236	0.191614
1091.263153	0.190440
1091.425051	0.184924
1091.586932	0.183565
1091.748794	0.183034
1091.910638	0.186182
1092.072463	0.183315
1092.234271	0.183039
1092.396060	0.180131
1092.557831	0.180001
1092.719584	0.176879
1092.881319	0.181757
1093.043035	0.180069
1093.204733	0.180456
1093.366413	0.177260
1093.528075	0.177283
1093.689718	0.179583
1093.851343	0.179646
1094.012950	0.177498
1094.174539	0.178347
1094.336110	0.177206
1094.497662	0.179801
1094.659196	0.181838
1094.820712	0.182497
1094.982210	0.182025
1095.143689	0.180996
1095.305151	0.184104
1095.466594	0.186836
1095.628018	0.187074
1095.789425	0.187521
1095.950813	0.188142
1096.112183	0.187589
1096.273535	0.190569
1096.434869	0.196977
1096.596184	0.197009
1096.757482	0.188781
1096.918761	0.187641
1097.080021	0.192133
1097.241264	0.190188
1097.402488	0.191279
1097.563694	0.189968
1097.724882	0.187650
1097.886052	0.184881
1098.047203	0.189384
1098.208336	0.194233
1098.369451	0.191133
1098.530548	0.186475
1098.691627	0.191514
1098.852687	0.189021
1099.013729	0.189177
1099.174753	0.190186
1099.335758	0.187977
1099.496746	0.180819
1099.657715	0.176055
1099.818666	0.178359
1099.979599	0.182493
1100.140513	0.176256
1100.301409	0.175687
1100.462287	0.173162
1100.623147	0.174895
1100.783989	0.172811
1100.944812	0.176541
1101.105617	0.178306
1101.266404	0.175962
1101.427173	0.176138
1101.587923	0.175638
1101.748656	0.175487
1101.909370	0.177151
1102.070066	0.175877
1102.230743	0.181288
1102.391403	0.183608
1102.552044	0.186864
1102.712667	0.190064
1102.873271	0.187870
1103.033858	0.192524
1103.194426	0.194024
1103.354976	0.195499
1103.515508	0.196617
1103.676021	0.190368
1103.836517	0.183155
1103.996994	0.181781
1104.157453	0.180207
1104.317893	0.179021
1104.478316	0.178547
1104.638720	0.177183
1104.799106	0.177643
1104.959474	0.175438
1105.119823	0.177716
1105.280155	0.182160
1105.440468	0.183690
1105.600763	0.185242
1105.761039	0.189947
1105.921298	0.185651
1106.081538	0.184745
1106.241760	0.184790
1106.401964	0.186291
1106.562149	0.188503
1106.722316	0.189389
1106.882465	0.189486
1107.042596	0.187192
1107.202709	0.182035
1107.362803	0.187562
1107.522879	0.191397
1107.682937	0.189763
1107.842977	0.186246
1108.002999	0.188736
1108.163002	0.189224
1108.322987	0.187394
1108.482954	0.191059
1108.642902	0.191142
1108.802833	0.190945
1108.962745	0.190689
1109.122639	0.189625
1109.282515	0.194389
1109.442372	0.190995
1109.602211	0.189558
1109.762032	0.192388
1109.921835	0.187534
1110.081620	0.190831
1110.241386	0.188678
1110.401134	0.190316
1110.560864	0.189368
1110.720576	0.187233
1110.880269	0.187450
1111.039945	0.187897
1111.199602	0.186663
1111.359240	0.187980
1111.518861	0.185921
1111.678463	0.185804
1111.838047	0.183906
1111.997613	0.183221
1112.157161	0.185252
1112.316690	0.185105
1112.476202	0.186592
1112.635695	0.187463
1112.795169	0.188235
1112.954626	0.192381
1113.114064	0.196707
1113.273484	0.197340
1113.432886	0.201590
1113.592270	0.198589
1113.751635	0.203694
1113.910983	0.200228
1114.070312	0.194274
1114.229622	0.204947
1114.388915	0.203451
1114.548189	0.205349
1114.707445	0.208531
1114.866683	0.205844
1115.025903	0.202698
1115.185104	0.198272
1115.344287	0.196330
1115.503452	0.203821
1115.662599	0.194189
1115.821727	0.193616
1115.980838	0.188946
1116.139930	0.189412
1116.299004	0.191146
1116.458059	0.194425
1116.617097	0.199116
1116.776116	0.202416
1116.935117	0.200737
1117.094099	0.198396
1117.253064	0.192825
1117.412010	0.186873
1117.570938	0.187121
1117.729848	0.184969
1117.888740	0.186415
1118.047613	0.182215
1118.206468	0.180658
1118.365305	0.177252
1118.524124	0.174672
1118.682924	0.179961
1118.841707	0.184431
1119.000471	0.181342
1119.159216	0.181370
1119.317944	0.181618
1119.476653	0.182578
1119.635344	0.188031
1119.794017	0.186373
1119.952672	0.188904
1120.111308	0.188319
1120.269927	0.188396
1120.428527	0.187035
1120.587108	0.181572
1120.745672	0.174887
1120.904217	0.176206
1121.062744	0.169454
1121.221253	0.171263
1121.379744	0.171598
1121.538216	0.171692
1121.696671	0.171847
1121.855107	0.167014
1122.013524	0.174214
1122.171924	0.184536
1122.330305	0.177091
1122.488668	0.176077
1122.647013	0.180173
1122.805340	0.178015
1122.963648	0.179594
1123.121938	0.180445
1123.280210	0.185186
1123.438464	0.181521
1123.596700	0.179730
1123.754917	0.186307
1123.913116	0.189687
1124.071297	0.182675
1124.229459	0.183861
1124.387604	0.180633
1124.545730	0.179044
1124.703838	0.175599
1124.861928	0.174730
1125.019999	0.171027
1125.178052	0.169977
1125.336088	0.166834
1125.494104	0.173307
1125.652103	0.176755
1125.810083	0.175862
1125.968045	0.172901
1126.125989	0.173207
1126.283915	0.170572
1126.441823	0.168167
1126.599712	0.168637
1126.757583	0.175381
1126.915436	0.172868
1127.073270	0.169026
1127.231087	0.170534
1127.388885	0.173656
1127.546665	0.177260
1127.704426	0.181662
1127.862170	0.187909
1128.019895	0.186876
1128.177602	0.184737
1128.335291	0.188473
1128.492961	0.184321
1128.650614	0.184763
1128.808248	0.178860
1128.965864	0.179873
1129.123461	0.185385
1129.281041	0.181775
1129.438602	0.181197
1129.596145	0.175273
1129.753670	0.170042
1129.911176	0.175628
1130.068665	0.174598
1130.226135	0.180346
1130.383587	0.169544
1130.541020	0.166203
1130.698436	0.170506
1130.855833	0.166135
1131.013212	0.169547
1131.170573	0.173942
1131.327915	0.174866
1131.485239	0.174464
1131.642545	0.173705
1131.799833	0.180872
1131.957103	0.181464
1132.114354	0.176805
1132.271588	0.179910
1132.428803	0.177737
1132.585999	0.170716
1132.743178	0.176584
1132.900338	0.175871
1133.057480	0.180093
1133.214604	0.181183
1133.371710	0.180466
1133.528797	0.180335
1133.685866	0.179514
1133.842917	0.182785
1133.999950	0.188923
1134.156964	0.186093
1134.313960	0.182773
1134.470938	0.181846
1134.627898	0.182043
1134.784840	0.179463
1134.941763	0.178286
1135.098668	0.180947
1135.255555	0.183565
1135.412424	0.181977
1135.569274	0.177639
1135.726107	0.182252
1135.882921	0.175161
1136.039716	0.181654
1136.196494	0.184893
1136.353253	0.185811
1136.509995	0.183086
1136.666717	0.173008
1136.823422	0.169188
1136.980109	0.164520
1137.136777	0.161872
1137.293427	0.166087
1137.450059	0.157612
1137.606672	0.155720
1137.763267	0.151032
1137.919844	0.149269
1138.076403	0.147241
1138.232944	0.147082
1138.389466	0.151516
1138.545971	0.148350
1138.702457	0.150575
1138.858924	0.144621
1139.015374	0.139499
1139.171805	0.139354
1139.328218	0.147008
1139.484613	0.150469
1139.640990	0.155686
1139.797348	0.160384
1139.953688	0.164846
1140.110010	0.160177
1140.266314	0.170771
1140.422600	0.170041
1140.578867	0.186714
1140.735116	0.182386
1140.891347	0.180456
1141.047559	0.174965
1141.203754	0.172599
1141.359930	0.173670
1141.516088	0.170283
1141.672228	0.172386
1141.828349	0.180768
1141.984452	0.168588
1142.140537	0.168254
1142.296604	0.177704
1142.452653	0.185950
1142.608683	0.185093
1142.764695	0.189900
1142.920689	0.194835
1143.076665	0.188318
1143.232622	0.191924
1143.388562	0.191694
1143.544483	0.190610
1143.700385	0.188382
1143.856270	0.176947
1144.012136	0.175332
1144.167985	0.163443
1144.323814	0.159189
1144.479626	0.162149
1144.635420	0.152064
1144.791195	0.154305
1144.946952	0.148627
1145.102691	0.136627
1145.258411	0.137966
1145.414113	0.142950
1145.569798	0.147615
1145.725463	0.142021
1145.881111	0.135501
1146.036741	0.141351
1146.192352	0.141689
1146.347945	0.149399
1146.503519	0.165335
1146.659076	0.167484
1146.814614	0.162471
1146.970134	0.171493
1147.125636	0.174271
1147.281120	0.178025
1147.436585	0.180755
1147.592032	0.177912
1147.747461	0.171125
1147.902872	0.163134
1148.058265	0.162818
1148.213639	0.163758
1148.368995	0.159618
1148.524333	0.170505
1148.679653	0.167493
1148.834954	0.158863
1148.990237	0.162449
1149.145502	0.163185
1149.300749	0.157744
1149.455977	0.165012
1149.611188	0.155786
1149.766380	0.153222
1149.921553	0.148342
1150.076709	0.155380
1150.231846	0.162898
1150.386966	0.158168
1150.542066	0.164514
1150.697149	0.175958
1150.852214	0.169474
1151.007260	0.170398
1151.162288	0.161826
1151.317298	0.164547
1151.472289	0.165710
1151.627263	0.159737
1151.782218	0.158981
1151.937155	0.152518
1152.092073	0.147706
1152.246974	0.148984
1152.401856	0.159892
1152.556720	0.159962
1152.711566	0.158625
1152.866393	0.155322
1153.021203	0.152513
1153.175994	0.154914
1153.330767	0.150813
1153.485521	0.155039
1153.640258	0.158467
1153.794976	0.153931
1153.949676	0.166918
1154.104358	0.162345
1154.259021	0.156466
1154.413667	0.165450
1154.568294	0.165730
1154.722903	0.170204
1154.877493	0.165570
1155.032066	0.161417
1155.186620	0.153558
1155.341156	0.157193
1155.495674	0.160807
1155.650173	0.161522
1155.804654	0.159497
1155.959118	0.159769
1156.113562	0.162465
1156.267989	0.161122
1156.422397	0.164663
1156.576788	0.172176
1156.731160	0.158600
1156.885513	0.152959
1157.039849	0.156006
1157.194166	0.149519
1157.348465	0.149998
1157.502746	0.148698
1157.657009	0.149105
1157.811253	0.141939
1157.965479	0.138907
1158.119687	0.140362
1158.273877	0.150547
1158.428048	0.145661
1158.582201	0.155649
1158.736337	0.145551
1158.890453	0.144760
1159.044552	0.151629
1159.198632	0.148660
1159.352694	0.149662
1159.506738	0.141499
1159.660764	0.132586
1159.814771	0.138556
1159.968761	0.132052
1160.122732	0.136681
1160.276685	0.128421
1160.430619	0.116015
1160.584535	0.118455
1160.738434	0.124002
1160.892313	0.129413
1161.046175	0.132536
1161.200019	0.120740
1161.353844	0.116460
1161.507651	0.117989
1161.661440	0.121441
1161.815210	0.124220
1161.968962	0.119992
1162.122697	0.113327
1162.276412	0.111332
1162.430110	0.104265
1162.583789	0.107452
1162.737451	0.117700
1162.891094	0.115291
1163.044718	0.124388
1163.198325	0.126871
1163.351913	0.118948
1163.505483	0.120364
1163.659035	0.124040
1163.812569	0.135612
1163.966084	0.142213
1164.119581	0.131593
1164.273060	0.134713
1164.426521	0.135455
1164.579964	0.138291
1164.733388	0.141110
1164.886794	0.131103
1165.040182	0.124608
1165.193551	0.119203
1165.346903	0.121346
1165.500236	0.117589
1165.653551	0.106559
1165.806848	0.092986
1165.960126	0.085272
1166.113386	0.097545
1166.266628	0.092309
1166.419852	0.099911
1166.573058	0.096301
1166.726245	0.090727
1166.879414	0.092499
1167.032565	0.093736
1167.185698	0.097786
1167.338812	0.103457
1167.491909	0.089725
1167.644987	0.097000
1167.798046	0.094993
1167.951088	0.085606
1168.104111	0.084664
1168.257117	0.089549
1168.410103	0.099243
1168.563072	0.102429
1168.716023	0.101464
1168.868955	0.109860
1169.021869	0.110359
1169.174765	0.113689
1169.327642	0.133845
1169.480501	0.140270
1169.633343	0.130081
1169.786165	0.138703
1169.938970	0.135179
1170.091757	0.136710
1170.244525	0.136586
1170.397275	0.142042
1170.550007	0.125199
1170.702720	0.119277
1170.855415	0.110592
1171.008092	0.119021
1171.160751	0.109550
1171.313392	0.112203
1171.466014	0.084368
1171.618619	0.132331
1171.771205	0.132331
1171.923772	0.132331
