sample name	sample
index	1255
start time	 04-29-2021  12:58:55 PM
880	0.603085
Peak Time (s)	100.537
Peak Height 	0.6031
calc peak height	100,103
Baseline Time (s)	11.035
Baseline Value 	-0.00338
subtract baseline	10,4
Abs	0.361053
Peak Time (s)	102.036
Peak Height 	0.3611
calc peak height	100,103
Baseline Time (s)	8.537
Baseline Value 	0.004552
subtract baseline	10,3
PK_550	0.202901
Peak Time (s)	101.037
Peak Height 	0.2029
calc peak height	100,103
Baseline Time (s)	11.035
Baseline Value 	6.6436E-4
subtract baseline	10,2
PK_880	0.347330
Peak Time (s)	102.535
Peak Height 	0.3473
calc peak height	100,103
Baseline Time (s)	8.537
Baseline Value 	0.001005
subtract baseline	10,1


Time (s)	A880-A510	A880-A775	A880-A975	A880	I510	I775	I975	I880	
0.034000	0.001821	0.000525	-0.006662	0.001781	6217.714992	44033.621048	3903.009959	22728.574077
0.537500	-0.000215	-0.000744	-0.003478	0.002806	6194.721731	43817.271648	3907.924456	22681.921610
1.037500	0.000800	0.000081	-0.005539	0.003808	6194.819659	43800.644270	3900.958319	22636.417714
1.535000	-0.001592	-0.000629	0.000651	0.000701	6200.170347	44026.543824	3922.250667	22777.823827
2.035500	0.000505	0.000168	-0.000309	0.001737	6208.135039	44003.957145	3917.640974	22730.552872
2.535500	-0.000437	-0.000415	-0.001806	0.001551	6202.466457	43966.545279	3914.624778	22739.060156
3.044500	0.002709	-0.000012	0.002316	0.001481	6226.681786	44011.233222	3924.301929	22742.242566
3.536500	0.001144	0.000019	-0.004751	0.002291	6208.780857	43937.688621	3906.196486	22705.347442
4.036500	0.002755	0.000263	0.003183	0.001934	6223.606802	43994.401369	3925.261751	22721.600880
4.537000	0.000767	-0.000382	-0.004475	0.001253	6213.754164	43997.778719	3909.192611	22752.656569
5.037500	0.000066	-0.000965	-0.001589	0.000633	6213.149800	44001.311178	3917.236227	22780.971944
5.537500	0.000782	0.000268	-0.002436	0.001304	6213.483998	44054.431024	3913.746411	22750.337081
6.035000	0.002133	0.000633	-0.000360	0.001079	6225.373204	44110.253599	3919.040695	22760.588739
6.537500	-0.000457	-0.000551	-0.001119	-0.000126	6214.919166	44112.326166	3920.069941	22815.678703
7.035500	0.001542	-0.000112	0.000512	0.000080	6228.453475	44134.364258	3923.366533	22806.244425
7.538500	0.000680	-0.000461	-0.005123	-0.000223	6224.224309	44129.975335	3911.086040	22820.084884
8.036000	0.000454	-0.001177	0.000326	-0.001182	6229.770902	44153.007807	3925.864388	22864.072511
8.536500	0.000000	0.000688	0.000000	0.000545	6213.309488	44166.066927	3921.105865	22784.977783
9.036500	-0.000986	-0.000275	0.002539	-0.000015	6210.106881	44127.914670	3928.297933	22810.595134
9.536500	-0.000186	-0.000176	-0.004264	-0.000104	6216.791697	44145.690878	3912.782457	22814.651419
10.037000	-0.001615	-0.001086	-0.005299	-0.001242	6214.606558	44167.389984	3913.017700	22866.817637
10.535000	0.002127	0.000060	0.001089	0.000044	6233.154887	44154.104634	3924.789543	22807.886256
11.035000	0.001868	0.000000	0.001014	0.000000	6231.528262	44152.541561	3924.717486	22809.898230
11.535500	0.001893	0.000160	-0.003869	0.000191	6230.268741	44149.608172	3913.010401	22801.157518
12.036000	0.000349	0.000467	-0.001288	0.000298	6217.793799	44168.589626	3918.700654	22796.258107
12.536000	0.001122	-0.000228	0.000697	-0.000257	6227.821590	44155.306859	3924.577745	22821.658190
13.036500	0.001178	0.000318	0.000750	-0.001212	6235.480888	44297.945780	3926.919248	22865.447973
13.536500	0.003153	0.000083	0.001832	-0.000564	6245.556062	44213.953764	3927.928509	22835.728915
14.040000	-0.002382	-0.000075	-0.003571	0.001210	6190.445973	44030.817463	3911.359446	22754.597734
14.537000	0.000517	0.000398	-0.003285	0.001908	6206.947754	44009.571235	3910.414204	22722.769751
15.034500	0.000435	0.000676	-0.000501	-0.000610	6225.301166	44274.727620	3922.620918	22837.846892
15.535000	0.001439	-0.001207	-0.001600	-0.001471	6239.422645	44177.524248	3922.066135	22877.307413
16.038000	-0.000020	-0.000038	-0.001437	0.000452	6213.858416	44106.130272	3918.003342	22789.241651
16.535500	0.001243	-0.000302	0.003250	-0.001427	6237.604760	44259.431648	3933.254724	22875.327326
17.036000	0.002263	-0.000583	-0.002445	-0.003932	6264.445309	44471.397801	3925.814950	22990.650315
17.536000	0.001735	-0.000363	-0.001327	-0.000297	6232.766734	44146.222601	3919.983459	22823.471059
18.036000	-0.001412	0.000018	-0.001449	0.000609	6202.214079	44096.520370	3917.612727	22782.030390
18.537000	0.001101	-0.001106	-0.000377	-0.000348	6228.353521	44080.697253	3922.299726	22825.813619
19.037000	-0.000689	-0.000217	-0.005147	-0.000113	6213.075637	44142.690087	3910.779497	22815.059643
19.537000	0.002345	-0.000177	-0.001068	0.000485	6231.466303	44089.825089	3918.777514	22787.710848
20.034500	0.001266	0.000493	0.000643	0.000819	6220.790520	44121.628632	3921.958618	22772.464003
20.535000	-0.000751	-0.000203	-0.007258	0.000163	6210.532387	44117.850352	3905.332613	22802.442863
21.035000	0.000746	-0.000058	-0.001718	0.000385	6220.138329	44110.524011	3917.509341	22792.287974
21.538000	-0.001095	-0.000222	0.001596	0.000124	6208.242157	44119.717382	3925.781521	22804.230046
22.036500	-0.001327	-0.000779	-0.005256	-0.000369	6210.204117	44113.658488	3911.115785	22826.790999
22.536500	0.000786	-0.000209	-0.000910	0.000394	6220.368177	44095.430885	3919.353469	22791.879751
23.037000	-0.000897	-0.000721	-0.001600	-0.000269	6212.684471	44109.714203	3919.290811	22822.212094
23.537000	0.001281	-0.000068	-0.001766	0.000070	6226.553077	44139.435675	3918.123855	22806.688446
24.037000	0.002574	0.000418	0.000475	0.000625	6232.133169	44132.844215	3922.018505	22781.302531
24.537500	-0.001488	-0.001010	-0.001852	-0.000783	6212.111481	44131.056818	3919.895858	22845.779817
25.037000	-0.000888	-0.000897	-0.001938	0.000068	6210.215827	44061.142364	3917.733774	22806.799139
25.535500	0.000228	-0.000338	-0.002915	0.000160	6217.929870	44105.381219	3915.273703	22802.579072
26.038500	0.001448	-0.000126	0.000385	0.000454	6224.912223	44097.568968	3922.207013	22789.130592
26.536000	0.000093	-0.000291	-0.001528	0.000846	6211.742054	44044.853129	3916.885221	22771.234873
27.036000	0.003028	0.000635	0.005211	-0.001239	6249.735523	44330.665772	3937.412194	22866.685223
27.536500	0.001688	-0.000322	-0.002132	-0.002462	6248.844195	44355.891203	3923.129326	22922.859319
28.036500	-0.001282	0.000576	-0.000949	-0.001205	6216.834286	44321.756327	3922.959461	22865.107823
28.537000	0.000544	-0.000191	-0.003540	0.002457	6203.024624	43902.193150	3908.578630	22697.794167
29.039500	0.001325	-0.000050	0.002347	-0.001372	6237.800862	44278.102827	3931.013371	22872.766230
29.537500	0.002480	0.000446	0.002022	-0.000543	6240.281809	44246.402099	3928.323031	22834.756225
30.035000	0.002899	0.000717	-0.001633	-0.000364	6242.103103	44255.149897	3919.433788	22826.565422
30.538000	0.001394	-0.000358	-0.000257	0.002195	6211.383645	43911.181698	3916.704821	22709.703237
31.035500	0.001137	0.000348	-0.000100	0.001671	6213.393284	44027.247632	3918.274045	22733.572907
31.535500	0.002744	0.000032	0.001111	-0.001247	6247.639814	44274.059244	3927.840374	22867.049737
32.036000	0.002253	0.000517	-0.005228	-0.000944	6241.601459	44291.355382	3912.497483	22853.157389
32.536500	-0.001519	-0.000603	-0.003400	0.001562	6194.273300	43947.737173	3910.943286	22738.537627
33.036500	0.002090	-0.000066	-0.004124	-0.001479	6244.424658	44286.770242	3916.262444	22877.697107
33.537500	0.002968	0.000104	-0.008050	0.000823	6233.627676	44084.454641	3902.033990	22772.285023
34.036500	-0.000615	0.000011	-0.000817	0.000898	6206.023470	44068.498130	3918.403803	22768.830622
34.534500	0.001343	0.000112	0.001958	0.002075	6211.905892	43966.824883	3922.095520	22715.185369
35.034500	0.000929	0.000448	-0.002791	0.000937	6217.350309	44106.177514	3913.772180	22767.053551
35.535500	0.000158	0.000196	0.000224	0.000596	6214.115241	44114.648510	3921.506774	22782.666177
36.035500	-0.001515	-0.000117	-0.001200	0.000682	6200.895021	44076.858822	3918.020469	22778.722126
36.536000	0.000155	-0.000609	-0.002543	0.001597	6206.562862	43943.918993	3912.828814	22736.964290
37.036500	-0.001467	-0.000090	-0.007215	-0.000118	6207.261547	44155.203934	3906.069810	22815.291055
37.536500	0.000267	-0.000409	0.003302	0.000178	6218.085210	44096.867706	3929.624323	22801.732425
38.036500	0.000279	-0.000465	-0.005017	-0.000061	6219.974886	44114.211526	3910.957332	22812.688479
38.537000	0.000040	-0.000210	-0.007490	0.000559	6213.504009	44079.709227	3903.903663	22784.353368
39.034500	-0.000721	-0.000267	-0.001198	0.000441	6208.669243	44085.506882	3918.580433	22789.742076
39.537500	0.000184	-0.000541	-0.004630	0.000146	6217.701800	44087.394402	3911.369293	22803.207787
40.038500	-0.001525	-0.000221	-0.002691	0.000403	6202.909898	44093.393914	3915.227191	22791.442984
40.538500	0.000710	0.000224	0.001430	0.001341	6212.665448	44046.718200	3922.572375	22748.631422
41.036000	0.000746	-0.000247	-0.003180	0.000846	6216.665853	44049.018974	3913.090876	22771.238729
41.536000	0.001070	-0.000128	-0.003006	0.000796	6219.480603	44065.086411	3913.603949	22773.518478
42.036500	-0.001863	-0.000115	-0.001845	0.000942	6196.342576	44052.422983	3915.934935	22766.849481
42.536000	0.000288	0.000587	-0.005900	0.001106	6211.252614	44103.341098	3906.277855	22759.352756
43.037000	-0.001343	0.000675	0.001749	0.001538	6195.772649	44070.807948	3922.854957	22739.644893
43.542500	0.003413	-0.000479	0.002376	-0.003183	6267.511597	44409.700757	3935.317347	22956.066888
44.037500	0.002221	-0.000574	-0.001174	-0.001146	6242.891020	44206.814687	3922.301982	22862.421080
44.540500	-0.000395	0.000120	0.002252	-0.000959	6221.668113	44254.993945	3929.828306	22853.822412
45.037500	0.002307	0.000655	0.001164	-0.000203	6236.389213	44234.061324	3925.537860	22819.211880
45.541000	0.003114	0.000586	0.002708	-0.000113	6241.831357	44218.885471	3928.918076	22815.061446
46.036000	-0.000095	-0.000400	0.001568	-0.000011	6216.786558	44115.722596	3926.028711	22810.417543
46.536000	-0.001951	-0.000316	-0.006197	0.004750	6167.292481	43674.981124	3897.341361	22593.746599
47.036500	0.001759	0.000128	-0.003126	0.002156	6214.423500	43960.685770	3910.212923	22711.489396
47.542500	-0.000129	-0.000075	0.004634	0.001599	6204.414583	43994.109259	3929.417706	22736.872783
48.037000	0.001150	-0.000002	-0.001963	0.000015	6225.980038	44150.923062	3917.797482	22809.221566
48.537000	-0.000487	-0.000484	-0.006123	0.003076	6190.665792	43816.276719	3901.292128	22669.617790
49.038000	0.001657	0.000259	0.005516	-0.000970	6237.277034	44269.193345	3937.495887	22854.329543
49.535500	0.005310	0.001219	0.001786	-0.002387	6275.950610	44495.875644	3932.073877	22919.416107
50.036000	-0.001703	-0.001507	-0.005783	0.006046	6159.524138	43442.582598	3895.352603	22535.173691
50.536000	0.018226	-0.013903	0.021220	0.388041	4340.878468	19292.522813	3348.974522	11069.274245
51.036000	0.016055	-0.018156	-0.016158	0.203328	5070.752276	27700.727822	3523.479474	15380.140720
51.536000	-0.005614	-0.023310	-0.025754	-0.071978	6757.887964	49035.990157	4035.284541	26392.260297
52.037000	-0.001264	-0.025977	-0.015169	-0.148748	7541.173445	57606.227989	4284.452721	30927.492065
52.537000	0.016368	-0.012436	0.012514	-0.084984	7077.873503	51639.732062	4175.430017	27105.284730
53.037500	0.035454	0.001537	0.033842	-0.042359	6859.769872	48532.561602	4115.203599	24845.910668
53.535000	0.047630	0.006121	0.048608	0.008978	6522.119872	43882.516367	4018.432313	22403.304880
54.035000	0.060394	0.015684	0.058252	0.064498	6186.624131	39774.471188	3908.009130	20067.192849
54.535000	0.075952	0.029235	0.080476	0.087716	6129.933515	38964.277373	3905.743282	19175.428633
55.035500	0.108427	0.045938	0.104876	0.089846	6360.507889	40192.519375	3957.770197	19095.958591
55.536000	0.129409	0.058020	0.129495	0.126425	6239.983777	38151.210887	3929.500883	17790.691626
56.036500	0.151942	0.071591	0.152961	0.159542	6160.620858	36602.864095	3907.243686	16700.095454
56.536500	0.171165	0.081952	0.175208	0.207274	5956.244773	33829.907681	3850.804692	15267.575192
57.036500	0.188026	0.087782	0.194115	0.248492	5791.944080	31415.142012	3804.039390	14151.093191
57.537000	0.204042	0.100615	0.206254	0.260386	5819.109588	31476.740013	3804.540535	13848.156454
58.037500	0.223256	0.109874	0.227154	0.268156	5895.877723	31574.576239	3831.783529	13654.655535
58.537500	0.234236	0.117971	0.243639	0.342265	5496.501844	27541.228153	3718.104930	11973.264041
59.035000	0.251312	0.128279	0.262346	0.375438	5403.624033	26281.141885	3691.859164	11308.733431
59.535500	0.263439	0.137541	0.270934	0.408295	5288.971918	25048.490470	3649.742027	10698.704703
60.035500	0.277355	0.143762	0.290291	0.425112	5273.355735	24516.345479	3654.038257	10403.874816
60.536000	0.283806	0.150830	0.288650	0.441428	5221.032233	24062.365734	3624.182299	10128.544781
61.036500	0.290773	0.151941	0.298242	0.461272	5154.511213	23172.004803	3607.682883	9807.338935
61.536500	0.302165	0.155546	0.308640	0.490207	5066.990316	22027.488726	3578.820108	9364.499362
62.036500	0.306904	0.159783	0.317852	0.516277	4965.227384	21093.137122	3553.618082	8989.996088
62.537000	0.305385	0.163545	0.324236	0.580619	4680.794290	18733.669097	3474.073717	8156.453106
63.040000	0.311400	0.157206	0.330164	0.559144	4794.295633	19292.752429	3510.362375	8421.052627
63.535000	0.307668	0.162816	0.329016	0.610148	4575.177350	17672.884859	3443.212716	7813.352865
64.035000	0.311812	0.169254	0.328375	0.624430	4537.538238	17409.728605	3425.435144	7655.592604
64.536000	0.313625	0.173517	0.328732	0.631819	4517.203152	17306.149437	3417.267486	7575.979982
65.049500	0.320811	0.176161	0.330961	0.628715	4554.928086	17497.137503	3423.449690	7609.253548
65.541500	0.317515	0.179210	0.329063	0.628660	4542.951478	17601.358003	3421.304734	7609.851612
66.039500	0.319879	0.181518	0.325101	0.626913	4558.159893	17738.595347	3418.738953	7628.689816
66.536500	0.314833	0.183913	0.338118	0.631841	4521.506035	17652.704514	3428.172753	7575.749295
67.037000	0.322796	0.185839	0.332080	0.623121	4583.286858	18017.038363	3431.339364	7669.826729
67.537500	0.321665	0.188475	0.343256	0.623244	4578.563904	18104.366731	3444.599956	7668.491449
68.035500	0.329096	0.190632	0.334700	0.621716	4612.632860	18233.322412	3436.129216	7685.167157
68.538000	0.323138	0.190889	0.335733	0.624162	4580.654623	18156.601164	3434.443316	7658.504169
69.036500	0.327013	0.191350	0.338220	0.616790	4623.596200	18432.966412	3446.325602	7739.336924
69.536000	0.329344	0.194446	0.339863	0.614751	4640.582233	18616.865500	3450.833562	7761.936800
70.037000	0.328875	0.195021	0.336542	0.611375	4651.977798	18759.854759	3450.901332	7799.594137
70.536500	0.326739	0.194074	0.344450	0.606076	4664.466130	18918.875659	3467.389404	7859.290526
71.035500	0.326336	0.194597	0.339226	0.601866	4679.614861	19093.623325	3466.105532	7907.239258
71.536500	0.329554	0.197459	0.338680	0.601272	4694.915719	19222.414503	3466.166469	7914.044969
72.040000	0.329509	0.196215	0.346152	0.597506	4709.985050	19317.056888	3480.564204	7957.389860
72.537000	0.327620	0.197487	0.341233	0.596438	4706.650424	19405.412192	3475.588168	7969.757600
73.035500	0.329653	0.196074	0.327047	0.593461	4727.099496	19464.665236	3461.353774	8004.370897
73.535000	0.327778	0.197288	0.339248	0.595024	4713.037554	19451.416948	3474.853518	7986.160537
74.036500	0.329428	0.197681	0.341342	0.595351	4718.438243	19453.931645	3477.128766	7982.367880
74.535500	0.322005	0.197449	0.338707	0.600105	4669.371747	19265.770729	3467.678509	7927.433707
75.036500	0.324586	0.196738	0.340703	0.593939	4704.476996	19471.751121	3478.126975	7998.799122
75.536500	0.332858	0.198952	0.334621	0.596555	4727.558303	19456.461503	3466.998566	7968.398498
76.036500	0.324671	0.197929	0.335169	0.595963	4696.636418	19440.135702	3468.444935	7975.263438
76.537000	0.326304	0.196995	0.336985	0.600865	4683.489323	19220.276658	3464.539320	7918.710294
77.037000	0.327409	0.199234	0.341466	0.597585	4701.144248	19428.101229	3474.413465	7956.478507
77.534500	0.328552	0.199358	0.349315	0.597372	4706.638714	19440.863497	3484.859229	7958.937389
78.035500	0.326553	0.199627	0.342074	0.597987	4696.063527	19427.792987	3474.678764	7951.838691
78.535000	0.327058	0.198767	0.336006	0.601878	4682.452981	19248.698768	3462.032668	7907.099474
79.036000	0.328040	0.199667	0.340365	0.599886	4694.400488	19357.467201	3470.064648	7929.956448
79.536500	0.331715	0.201283	0.345581	0.601963	4700.851157	19340.050413	3474.075077	7906.123294
80.036500	0.335247	0.201531	0.340551	0.602961	4711.132611	19311.808096	3466.395550	7894.717323
80.536500	0.330975	0.200862	0.345134	0.606065	4681.373406	19170.505835	3468.270560	7859.415661
81.034000	0.334755	0.200855	0.349963	0.602727	4710.086535	19295.219683	3478.737651	7897.399193
81.537000	0.337047	0.201412	0.349740	0.603793	4715.075405	19276.070962	3477.071134	7885.229894
82.037500	0.334429	0.200998	0.347643	0.603630	4705.094849	19266.677748	3474.583417	7887.094683
82.534500	0.331291	0.201782	0.348558	0.607345	4677.517324	19157.067446	3470.998167	7844.920619
83.038500	0.337715	0.201427	0.353965	0.603487	4719.053527	19288.167655	3482.946124	7888.722224
83.535500	0.334715	0.202543	0.349188	0.603575	4706.477989	19326.842719	3476.641754	7887.722405
84.036500	0.337195	0.202959	0.339921	0.603796	4715.668752	19334.163511	3464.545483	7885.194219
84.535500	0.337672	0.205670	0.345209	0.607798	4701.347316	19285.603263	3466.170221	7839.810340
85.036500	0.334919	0.203678	0.341746	0.602969	4709.767159	19392.523178	3467.899930	7894.633187
85.536500	0.335716	0.203611	0.348024	0.603136	4712.329975	19383.682507	3475.706874	7892.723007
86.036500	0.333373	0.201531	0.340995	0.600190	4714.787700	19416.452506	3470.479826	7926.460627
86.534500	0.335337	0.203030	0.339669	0.604107	4706.841339	19325.089453	3463.835260	7881.651412
87.038000	0.336577	0.203371	0.344734	0.601410	4722.897406	19439.918281	3473.698664	7912.462337
87.534500	0.339381	0.204721	0.353984	0.602526	4729.824421	19448.797788	3484.225555	7899.690613
88.036000	0.334866	0.202724	0.350584	0.600517	4719.549637	19449.254640	3482.411413	7922.703317
88.536000	0.335851	0.202862	0.342515	0.602445	4715.696914	19381.460635	3469.541796	7900.611742
89.036500	0.336322	0.202922	0.360237	0.600073	4727.333296	19473.625146	3495.712803	7927.800841
89.536000	0.334193	0.204735	0.350742	0.601156	4714.193711	19501.381973	3481.785331	7915.371014
90.036500	0.336502	0.202750	0.348957	0.599599	4730.022648	19485.132565	3481.488480	7933.253376
90.539500	0.337080	0.203497	0.353857	0.602163	4721.872427	19416.171327	3484.533372	7903.837648
91.037000	0.340591	0.202487	0.347443	0.599189	4748.625671	19490.704614	3480.056001	7937.974289
91.535000	0.339295	0.203152	0.356922	0.600712	4736.946353	19458.083994	3490.466373	7920.462039
92.036000	0.339515	0.203784	0.357117	0.601707	4733.748391	19444.299697	3489.411582	7909.056366
92.535500	0.335631	0.201326	0.357847	0.600347	4723.375235	19402.718545	3492.173308	7924.654977
93.036500	0.337465	0.203471	0.352178	0.600816	4728.975683	19466.249037	3484.099413	7919.268170
93.536000	0.343029	0.203656	0.362084	0.601470	4749.275738	19448.455873	3496.312806	7911.772377
94.036500	0.342610	0.201587	0.354169	0.600088	4753.283455	19422.420084	3487.661372	7927.625801
94.536500	0.341651	0.203143	0.345980	0.604511	4731.001083	19314.171510	3471.326503	7877.063455
95.037000	0.340371	0.202045	0.356781	0.600853	4740.809896	19410.805639	3490.094538	7918.845687
95.536500	0.341887	0.204562	0.355091	0.604051	4733.865835	19385.031638	3483.679948	7882.295287
96.037000	0.342616	0.201595	0.352354	0.601737	4746.449822	19360.357633	3483.128246	7908.716636
96.535000	0.345040	0.203942	0.362517	0.604380	4745.543621	19349.224282	3493.018022	7878.554642
97.036000	0.342753	0.203753	0.358760	0.603659	4739.058367	19369.293152	3489.004442	7886.762141
97.535500	0.345119	0.202312	0.352761	0.602827	4752.327254	19346.316034	3482.238070	7896.257543
98.036000	0.341624	0.202591	0.363890	0.602750	4738.144459	19359.713371	3497.013424	7897.126538
98.536000	0.339033	0.202176	0.362792	0.602472	4728.616829	19354.559959	3495.920470	7900.312201
99.036000	0.348184	0.202634	0.357692	0.603666	4761.616487	19326.814173	3487.589762	7886.677103
99.536500	0.346959	0.202892	0.354137	0.603355	4757.796275	19348.239150	3483.343126	7890.224539
100.036500	0.344064	0.202336	0.358528	0.602518	4749.221735	19358.875255	3490.203105	7899.787503
100.537000	0.343214	0.202824	0.357084	0.603085	4743.341882	19355.879006	3487.554681	7893.307263
101.037000	0.345492	0.202901	0.360751	0.602341	4755.904623	19386.868291	3493.379563	7901.801914
101.537500	0.346807	0.202686	0.356219	0.602796	4759.496469	19361.548815	3486.797791	7896.602267
102.036000	0.345139	0.201537	0.361053	0.601437	4758.204735	19369.487154	3494.982440	7912.150791
102.534500	0.347330	0.202642	0.360960	0.601530	4766.989607	19407.754183	3494.734200	7911.084042
103.036000	0.347034	0.202497	0.354056	0.600966	4768.117552	19423.622638	3486.360527	7917.546594
103.536000	0.344730	0.201784	0.365600	0.600230	4761.541041	19424.484595	3502.691644	7925.995190
104.036500	0.343386	0.202081	0.353976	0.599759	4757.890250	19453.619649	3487.840636	7931.407056
104.539000	0.344466	0.202001	0.353719	0.599860	4761.986705	19446.741499	3487.369857	7930.245043
105.064500	0.347526	0.203937	0.359740	0.600179	4773.498924	19508.218613	3494.909109	7926.586305
105.534000	0.343179	0.202498	0.358766	0.598922	4760.529650	19501.279086	3495.286280	7941.052048
106.037500	0.348902	0.204996	0.354376	0.600067	4779.775032	19552.854005	3487.961597	7927.868762
106.535000	0.342937	0.203156	0.360584	0.598966	4759.332236	19524.671380	3497.653931	7940.542061
107.038000	0.346606	0.203099	0.355965	0.597633	4780.361313	19573.359529	3493.275953	7955.920991
107.535500	0.343958	0.203022	0.357938	0.597118	4771.365121	19590.153241	3496.586970	7961.879756
108.036000	0.341146	0.202817	0.356149	0.596786	4760.958713	19595.000536	3494.645928	7965.721233
