sample name	sample
index	1436
start time	 05-10-2021  12:46:56 PM
880	0.435445
Peak Time (s)	91.035
Peak Height 	0.4354
calc peak height	90,93
Baseline Time (s)	9.536
Baseline Value 	-0.004582
subtract baseline	10,4
Abs	0.291124
Peak Time (s)	91.035
Peak Height 	0.2911
calc peak height	90,93
Baseline Time (s)	11.537
Baseline Value 	0.00194
subtract baseline	10,3
PK_550	0.152019
Peak Time (s)	90.038
Peak Height 	0.152
calc peak height	90,93
Baseline Time (s)	11.537
Baseline Value 	9.0237E-4
subtract baseline	10,2
PK_880	0.267084
Peak Time (s)	92.036
Peak Height 	0.2671
calc peak height	90,93
Baseline Time (s)	11.537
Baseline Value 	0.001943
subtract baseline	10,1


Time (s)	A880-A510	A880-A775	A880-A975	A880	I510	I775	I975	I880	
0.035000	0.000298	-0.000367	0.002453	0.002622	6481.963894	43944.237508	3945.983463	22608.912470
0.535500	-0.000111	-0.000732	-0.004411	0.003591	6470.446537	43818.382722	3925.770780	22564.856531
1.036000	-0.000365	0.000354	-0.001916	0.003678	6467.613901	43912.612714	3931.948475	22560.944215
1.538500	-0.002165	0.000643	0.000592	0.006018	6433.295136	43719.542925	3932.378010	22455.049096
2.036500	-0.000960	-0.000095	0.002333	0.000567	6488.623709	44164.461557	3951.032004	22702.557224
2.536000	0.001213	-0.000719	-0.003163	0.000330	6508.874109	44127.780178	3937.362825	22713.404960
3.036500	0.003346	-0.000067	0.002853	-0.001472	6542.171107	44361.192273	3957.744341	22795.950532
3.537000	-0.001854	-0.000325	0.001313	0.005345	6441.423271	43691.916890	3935.972503	22485.462987
4.035000	0.001187	0.000366	0.000233	0.000502	6507.211910	44214.447676	3945.724482	22705.553466
4.535000	0.000274	-0.000641	0.003207	0.000426	6500.165869	44126.086422	3953.691462	22709.021883
5.035500	-0.000568	0.000606	-0.001476	0.000970	6488.536206	44192.789714	3940.071962	22684.169838
5.536000	0.000176	-0.000577	0.002519	-0.000027	6503.147768	44175.093030	3953.074332	22729.712694
6.038500	0.001133	0.000384	-0.001705	0.000477	6506.959482	44218.467347	3940.754385	22706.665307
6.536500	-0.000302	-0.000139	0.001882	0.000278	6496.569823	44187.766857	3950.610284	22715.799770
7.036500	0.000482	0.000263	-0.002210	0.000534	6501.005368	44201.659773	3939.299598	22704.092449
7.536500	-0.001429	-0.000251	-0.002331	-0.000109	6490.361849	44213.845054	3940.651154	22733.466483
8.037500	0.001322	0.000120	-0.001362	-0.000146	6513.798896	44252.652010	3943.260813	22735.158700
8.537000	-0.000805	-0.000020	0.000228	-0.000088	6495.419446	44233.853791	3947.248624	22732.538618
9.035000	-0.000432	-0.000295	-0.001796	-0.000574	6502.632882	44253.872691	3943.243909	22754.757070
9.535500	0.000966	0.000257	-0.001258	0.000000	6509.576400	44251.838961	3943.152022	22728.494095
10.035500	0.001424	0.000613	-0.002949	0.000128	6512.358788	44273.543285	3938.438204	22722.657133
10.539000	0.001502	0.000264	0.004794	0.000228	6512.169010	44230.797061	3958.377481	22718.055338
11.036500	-0.003626	-0.000903	0.002653	0.003412	6442.747714	43819.185792	3944.448133	22572.985010
11.536500	0.000000	0.000000	0.000000	-0.000005	6501.486112	44227.878742	3946.437115	22728.732183
12.037000	-0.000395	0.000249	0.003311	-0.000050	6498.548681	44255.855976	3955.212746	22730.793488
12.537000	0.001820	0.000718	0.002594	0.000260	6514.585577	44270.956481	3952.519170	22716.623466
13.037500	-0.001187	-0.000087	-0.006337	0.005461	6445.977199	43703.221171	3916.106402	22480.184169
13.535500	0.000112	-0.000414	-0.001831	-0.000203	6504.093890	44207.319036	3942.191373	22737.797281
14.035000	-0.000301	0.000311	0.000296	0.002442	6478.453967	44025.269035	3940.846875	22617.080925
14.535500	-0.001162	0.000385	-0.000169	0.002465	6471.071356	44030.058595	3939.584348	22616.021425
15.038500	-0.003368	-0.000443	-0.000350	0.005258	6429.640788	43689.009502	3931.911362	22489.385384
15.536000	-0.003175	-0.001445	0.001219	0.004623	6436.464342	43654.461995	3937.590408	22518.078869
16.036500	0.002918	0.000339	-0.003818	0.000605	6520.936540	44202.017271	3934.959869	22700.811589
16.536500	0.000209	-0.000339	0.000487	-0.000174	6504.658925	44211.688184	3948.146305	22736.444404
17.037000	-0.002059	-0.000172	-0.004622	0.005800	6435.963440	43663.480516	3919.601640	22464.884770
17.537000	0.002566	0.000268	0.000508	0.000994	6514.684296	44158.430825	3945.158356	22683.062061
18.040000	0.002001	0.000620	-0.001211	0.001981	6501.609683	44098.236484	3938.140681	22638.072963
18.535000	-0.001016	0.000198	0.005282	0.001371	6481.429690	44116.078848	3956.657395	22665.876847
19.035500	-0.001150	0.000763	-0.000018	0.003890	6459.315109	43931.165460	3936.291216	22551.322174
19.535500	-0.001217	-0.000073	-0.001086	0.001703	6476.974233	44058.893208	3939.182699	22650.719431
20.036000	0.000295	0.001261	0.000236	0.003044	6478.404311	44058.233474	3939.134982	22589.723797
20.536000	-0.001420	0.000104	0.001714	0.001915	6473.520039	44055.621090	3945.902025	22641.088752
21.036500	0.000547	0.000457	0.000767	0.002993	6480.939657	43987.036851	3940.640568	22592.033899
21.537000	0.001305	0.000503	0.000274	0.001710	6498.043974	44112.873235	3942.691898	22650.429270
22.037000	0.000015	-0.000665	0.001716	0.001230	6491.235538	44047.548846	3947.689950	22672.277976
22.537500	-0.000368	0.000363	-0.002778	0.002260	6479.419211	44047.454069	3933.376822	22625.357551
23.037500	-0.000392	0.000275	-0.003474	0.003082	6472.353209	43961.467746	3929.476543	22587.998884
23.535000	0.002547	0.000566	0.004100	0.001951	6506.455170	44095.855290	3952.032692	22639.408060
24.035500	-0.002683	-0.000549	-0.000003	0.000809	6472.205774	44098.445775	3944.311765	22691.515438
24.536000	-0.000816	-0.000357	0.002468	0.001359	6483.201872	44064.588305	3949.315671	22666.401964
25.036000	-0.001276	-0.000566	-0.002431	0.000825	6483.826049	44095.427516	3937.975755	22690.802136
25.536000	0.001770	0.000373	0.002023	0.002040	6499.177305	44069.267471	3946.380241	22635.383029
26.039500	-0.000197	-0.000475	0.002742	0.001214	6489.602836	44067.096959	3950.409451	22673.028275
26.536500	-0.002461	-0.001110	0.000814	0.000722	6474.783759	44053.579047	3946.664836	22695.499616
27.037000	0.001228	0.000027	0.001007	0.001451	6499.563630	44092.254532	3945.266699	22662.212998
27.537500	0.002459	0.000314	-0.000351	-0.001482	6534.731232	44398.521814	3949.373974	22796.431465
28.037500	-0.000665	0.000422	0.002282	0.000148	6494.609296	44253.405439	3951.993995	22721.717262
28.535000	0.001736	0.000883	0.005378	0.000655	6510.538926	44249.004981	3958.790267	22698.534994
29.035500	0.000668	-0.000579	-0.001784	-0.000342	6509.940442	44204.824628	3942.673118	22744.133284
29.536000	-0.001682	0.000084	-0.001078	0.003333	6459.522723	43919.623982	3934.992850	22576.583648
30.036000	0.001198	-0.000743	0.002874	-0.000375	6514.686964	44192.336361	3954.917858	22745.643061
30.536500	0.001125	-0.000709	0.000761	-0.000167	6512.325240	44175.886761	3948.843686	22736.145223
31.036000	0.000016	0.000178	0.002210	0.003389	6473.193598	43923.209909	3943.355024	22574.029618
31.536500	-0.001435	-0.000354	0.004139	0.002532	6468.241537	43953.952147	3950.615689	22612.977416
32.037000	0.000971	0.000444	0.003979	0.000444	6505.881439	44227.428885	3955.670306	22708.203657
32.537500	0.002179	0.000518	0.002761	0.000750	6513.482386	44205.345896	3951.675593	22694.228019
33.035000	0.002616	0.000789	0.002712	0.001133	6513.925085	44194.632794	3950.542134	22676.703496
33.535000	-0.000205	-0.000653	0.005965	0.001962	6483.266498	43979.503014	3956.896925	22638.921749
34.035500	0.001130	0.000725	0.001516	0.002422	6490.597132	44066.415894	3944.068638	22618.010173
34.535500	0.001714	-0.000064	0.004088	0.001985	6499.169350	44033.070098	3951.915639	22637.884207
35.036500	0.000703	0.001181	0.005114	0.003422	6478.650217	44014.902316	3950.838607	22572.530013
35.536500	0.000783	0.000439	0.005216	0.002336	6488.409227	44047.398588	3953.949617	22621.899300
36.037000	-0.000111	-0.000248	0.001258	0.001540	6487.588602	44057.769006	3945.688643	22658.166642
36.537000	0.000534	0.000546	0.002006	0.002611	6484.024918	44031.521179	3944.849489	22609.392166
37.040000	0.000905	0.000674	0.009034	0.002966	6484.157284	44010.083147	3962.338025	22593.242660
37.535000	0.000704	0.000856	0.003663	0.002434	6486.929345	44077.643965	3949.629047	22617.432715
38.035000	0.000033	0.000247	-0.000584	0.002407	6481.534436	44022.539078	3938.660743	22618.665810
38.535000	-0.001264	-0.000845	-0.000860	0.000931	6483.031907	44058.901723	3941.767485	22685.935544
39.036000	0.000415	0.000557	-0.000222	0.003147	6478.545966	43981.881827	3937.683948	22585.037927
39.536000	-0.002383	0.000146	0.003474	0.002135	6463.659495	44038.697995	3949.915673	22631.045556
40.036000	-0.000049	0.000453	0.003097	0.002743	6478.045310	44010.213281	3947.344419	22603.376973
40.536500	0.000342	0.000542	-0.000050	0.002215	6485.731387	44068.648057	3940.539213	22627.412028
41.036500	0.000390	0.000375	0.001902	0.002818	6481.091637	43995.871167	3944.042267	22600.002798
41.540000	0.000456	0.000042	-0.000187	0.001642	6491.487867	44075.529100	3941.670553	22653.514583
42.035000	0.000201	0.000314	0.001140	0.002365	6483.294513	44032.793057	3943.236921	22620.561073
42.535000	0.001785	0.000285	0.001367	0.001987	6499.745848	44065.959555	3944.810569	22637.805334
43.035500	0.001214	-0.000919	0.003741	0.001792	6496.587709	43970.458418	3951.511270	22646.694399
43.535500	-0.000485	0.000300	0.003472	0.002432	6477.003335	44025.219358	3949.136630	22617.547866
44.036000	0.004003	0.001124	0.005750	-0.001989	6552.165448	44524.423200	3966.759726	22819.701268
44.536500	0.003699	0.001040	0.001478	0.000549	6528.020180	44274.079459	3948.846389	22703.404176
45.039000	-0.003360	-0.000113	0.004450	0.004980	6431.999202	43746.093701	3945.044539	22501.959836
45.536500	0.001463	0.000685	0.000573	0.000746	6507.478221	44221.573442	3945.972654	22694.397674
46.037000	0.003126	-0.000214	0.000483	-0.000178	6529.329405	44224.052250	3948.148336	22736.661076
46.537500	0.002518	-0.000212	-0.003270	-0.000513	6527.006813	44256.032198	3939.265566	22751.967906
47.035500	-0.001962	0.000322	-0.002013	0.005051	6442.961307	43780.248976	3928.172462	22498.732846
47.535000	-0.001853	0.000544	0.005816	0.003145	6459.664081	43980.801058	3953.402202	22585.112317
48.035500	0.000961	0.000389	0.001863	0.001860	6493.893417	44087.820729	3946.431934	22643.576664
48.535500	0.002865	0.000580	-0.000451	0.000680	6519.857657	44217.848299	3943.479600	22697.384920
49.040500	-0.002151	-0.000077	-0.000066	0.004693	6444.355910	43776.427501	3934.096891	22514.931927
49.536000	0.002114	0.000558	0.002777	-0.000086	6519.981771	44288.619749	3953.904844	22732.409359
50.036500	0.003141	0.000351	0.009414	-0.001128	6537.501168	44368.217018	3974.216198	22780.153273
50.537000	0.003104	0.000358	0.007588	0.001852	6511.983926	44085.586497	3961.463256	22643.939436
51.034000	0.004220	-0.006186	0.015459	0.066731	6011.985412	37845.986490	3820.463082	19898.354767
51.534500	-0.000634	-0.022677	0.012717	0.139976	5491.634074	31329.955151	3659.114667	17253.792278
52.035000	-0.007684	-0.041497	-0.024754	-0.171055	8168.882382	58578.439942	4399.516529	32319.919518
52.535000	-0.012803	-0.094313	-0.031647	-0.273426	9503.755620	65303.429098	4789.062484	40151.319107
53.035500	-0.002581	-0.067815	-0.010340	-0.237960	9128.046784	64028.881185	4725.749017	37226.894037
53.535500	0.004841	-0.042407	-0.000669	-0.190322	8572.827061	60980.625534	4565.823165	33656.414208
54.036500	0.006811	-0.023519	0.005877	-0.111262	7642.099991	53471.286546	4296.630430	28530.529575
54.536500	0.006393	-0.020612	0.006033	-0.109089	7613.613844	53556.817538	4289.768127	28402.442622
55.036000	0.004921	-0.019486	0.005203	-0.130908	7842.068447	56302.874009	4362.778575	29718.530102
55.537000	0.024202	-0.013786	0.026914	-0.115851	7890.852228	55165.363323	4386.670065	28803.235404
56.034500	0.041906	-0.000143	0.048399	-0.041887	7278.419000	48392.868008	4207.810805	24740.392306
56.535000	0.055016	0.008571	0.075410	0.031852	6701.465488	42072.349030	4065.756064	21323.318625
57.035000	0.069903	0.020152	0.085045	0.109627	6182.310230	36540.251224	3884.177905	18295.760440
57.536000	0.090747	0.031128	0.107744	0.137510	6128.737584	35257.342234	3871.492441	17335.752211
58.036000	0.106437	0.041024	0.117761	0.156651	6102.787030	34576.620809	3849.534195	16711.542546
58.536000	0.120644	0.048882	0.125533	0.150536	6258.597127	35611.075738	3883.140621	16907.974101
59.039000	0.134744	0.059912	0.155920	0.209162	5926.487099	32219.769564	3815.913276	15133.844242
59.536500	0.157513	0.073812	0.171552	0.237836	5884.948228	31240.455448	3786.310963	14349.535696
60.037000	0.174278	0.084892	0.190601	0.271318	5770.357478	29817.672724	3754.569857	13496.916514
60.534000	0.186275	0.093154	0.203523	0.296846	5680.783018	28770.087298	3727.697337	12889.596159
61.036000	0.194599	0.096944	0.215044	0.321609	5575.650725	27552.387376	3700.297010	12333.635557
61.537000	0.203621	0.103028	0.221419	0.332621	5563.189667	27274.645842	3690.896949	12096.386457
62.035500	0.212897	0.110167	0.240965	0.376548	5355.160370	25298.231351	3643.095498	11207.712275
62.535500	0.216741	0.117263	0.242356	0.367876	5428.388044	26124.876083	3662.499238	11376.095054
63.035500	0.219723	0.121395	0.243028	0.366455	5454.656146	26423.205302	3666.591485	11404.006719
63.539500	0.224300	0.125294	0.241822	0.364148	5496.267845	26761.216214	3668.753723	11449.529297
64.036500	0.228417	0.127690	0.249764	0.364497	5519.325683	26873.777704	3683.806459	11442.629101
64.536500	0.230667	0.130964	0.244055	0.365282	5528.345690	27011.341070	3670.916788	11427.127442
65.037000	0.234700	0.131620	0.249164	0.365909	5549.427486	27012.942760	3679.792879	11414.763461
65.534500	0.234230	0.134277	0.247594	0.368870	5528.190300	26996.079010	3670.819341	11356.632558
66.037500	0.236640	0.137003	0.255631	0.372265	5522.127340	26959.060915	3680.013164	11290.460229
66.534500	0.240691	0.137572	0.253054	0.374169	5535.362925	26885.340934	3671.135507	11253.559422
67.035000	0.243809	0.139147	0.256432	0.376438	5540.618404	26847.092966	3673.326664	11209.825768
67.535000	0.247433	0.140888	0.262202	0.378739	5548.824406	26816.269576	3680.206561	11165.684524
68.041500	0.246820	0.142749	0.263053	0.380050	5536.900022	26846.580066	3679.291219	11140.651696
68.635500	0.251523	0.146747	0.265390	0.384764	5536.827540	26807.128684	3674.573113	11051.227521
69.036500	0.250248	0.144835	0.267833	0.385158	5526.526125	26680.810674	3678.638318	11043.811594
69.537500	0.251910	0.146145	0.268123	0.388777	5514.494277	26554.877738	3672.045960	10975.877897
70.037000	0.255317	0.147402	0.265710	0.392849	5510.419167	26402.330616	3659.346829	10900.128107
70.537500	0.255857	0.147913	0.276312	0.395976	5494.621506	26261.430000	3674.001135	10842.434275
71.035000	0.255099	0.147881	0.268475	0.397598	5480.169929	26172.784948	3655.500567	10812.664985
71.535500	0.256389	0.147443	0.274416	0.400454	5470.700997	25997.209712	3661.490132	10760.524758
72.045000	0.258650	0.149242	0.276441	0.404199	5461.761378	25894.134289	3658.144550	10692.672669
72.535500	0.258958	0.150011	0.279243	0.406634	5449.004313	25806.250980	3658.855754	10648.868925
73.036000	0.254628	0.149471	0.268741	0.413473	5383.030096	25421.000257	3625.837696	10527.160028
73.570500	0.261318	0.151706	0.277936	0.410280	5441.320014	25703.719365	3649.290854	10583.739072
74.856500	0.261299	0.152086	0.278778	0.418449	5392.932884	25299.139322	3635.337459	10439.788107
75.132500	0.263711	0.153265	0.287830	0.417796	5410.941474	25393.653240	3653.871610	10451.207887
75.228500	0.265628	0.152966	0.280040	0.416251	5431.431950	25458.182268	3641.897661	10478.257561
75.534500	0.265457	0.152758	0.281685	0.416765	5427.366178	25420.759764	3644.053289	10469.244591
76.035000	0.263799	0.153113	0.282608	0.417052	5415.845856	25424.245275	3645.267962	10464.210390
76.535000	0.264046	0.153247	0.287045	0.418204	5410.509398	25371.672076	3651.570749	10444.075981
77.035500	0.262971	0.152763	0.281167	0.423507	5373.182300	25074.675399	3630.313345	10351.999088
77.536000	0.266228	0.154722	0.284389	0.420409	5410.371004	25333.950870	3642.261904	10405.652520
78.036000	0.263686	0.152936	0.279744	0.418197	5408.426041	25355.926614	3637.640644	10444.190079
78.536500	0.264870	0.155813	0.285118	0.420083	5404.299694	25407.161357	3644.273505	10411.324524
79.036500	0.267354	0.154131	0.282467	0.420817	5414.611880	25282.512586	3637.836812	10398.569946
79.537000	0.267004	0.156275	0.282404	0.421271	5409.864568	25369.648234	3636.857693	10390.689422
80.037500	0.267732	0.156164	0.286208	0.421423	5413.261843	25356.032853	3643.796408	10388.053759
80.537000	0.264050	0.155984	0.286527	0.421492	5391.219943	25343.154293	3644.272971	10386.850053
81.036000	0.263044	0.155220	0.285848	0.426156	5358.264406	25064.911724	3634.136161	10306.433105
81.535500	0.266082	0.156024	0.281539	0.422337	5398.175862	25301.703459	3633.213606	10372.221001
82.035500	0.265904	0.156939	0.285952	0.423737	5388.937914	25276.777553	3638.907233	10348.045109
82.536000	0.262743	0.155737	0.282504	0.422710	5376.492271	25267.725578	3634.328800	10365.765308
83.036000	0.265390	0.155232	0.281975	0.425053	5378.260204	25121.805218	3628.928807	10325.371957
83.537000	0.265809	0.154040	0.285029	0.423163	5391.741498	25157.507818	3638.245622	10357.948405
84.037000	0.264389	0.154690	0.282842	0.423368	5382.249789	25180.267753	3633.724735	10354.408096
84.537000	0.265818	0.155996	0.283024	0.425761	5376.632690	25124.667726	3629.568780	10313.217216
85.034500	0.264871	0.153715	0.288871	0.427109	5363.321361	24940.068036	3638.048765	10290.118275
85.537500	0.268836	0.154967	0.285292	0.427061	5386.644226	25006.032841	3631.386984	10290.934211
86.035500	0.267639	0.154869	0.284674	0.427878	5374.913078	24959.572442	3628.695284	10276.970390
86.587000	0.269106	0.155435	0.291276	0.429152	5376.033316	24923.726653	3638.734871	10255.233139
87.036000	0.264197	0.153468	0.282547	0.431454	5334.443554	24708.684562	3618.081309	10216.127959
87.536000	0.266478	0.153472	0.286695	0.428922	5362.129827	24836.160759	3630.526348	10259.156285
88.036500	0.267474	0.152261	0.283278	0.428693	5369.221175	24786.711526	3624.563222	10263.056357
88.536500	0.268078	0.152623	0.285525	0.430049	5364.864783	24736.793596	3626.227105	10239.979191
89.037000	0.268744	0.151531	0.292567	0.429518	5371.800939	24708.586691	3640.490504	10248.995828
89.537000	0.265880	0.152717	0.285743	0.431162	5345.767329	24685.670346	3624.555184	10221.077518
90.037500	0.264802	0.152019	0.288412	0.431278	5338.915266	24644.987297	3629.327977	10219.118665
90.540000	0.265879	0.151260	0.285741	0.431622	5343.123977	24589.919579	3623.696113	10213.291930
91.035500	0.263828	0.149920	0.291124	0.435445	5309.634187	24334.048008	3626.605326	10148.828361
91.535500	0.264116	0.149963	0.284933	0.432305	5329.118311	24491.449237	3620.925299	10201.731313
92.036000	0.267084	0.151652	0.290424	0.435175	5329.680332	24432.914795	3625.801254	10153.355766
92.536000	0.265443	0.149277	0.288656	0.433803	5328.144619	24383.321257	3625.064057	10176.447673
93.036000	0.263972	0.149591	0.289135	0.442475	5270.946677	23974.602762	3609.929797	10031.762015
93.540000	0.265564	0.149783	0.290448	0.436532	5313.307903	24273.847515	3623.318426	10130.604192
94.037000	0.269133	0.150026	0.291437	0.437434	5328.480151	24241.488792	3623.477997	10115.505373
94.540000	0.269570	0.149782	0.291778	0.439132	5321.294137	24146.475250	3620.959106	10087.194298
95.035000	0.260770	0.148081	0.292482	0.444859	5240.012984	23786.854679	3611.693761	9992.494435
95.535000	0.268777	0.148983	0.289935	0.440823	5307.199734	24025.177351	3614.428289	10059.094059
96.035500	0.267297	0.148384	0.291745	0.441148	5297.009339	23980.388461	3617.165898	10053.708635
