sample name	sample
index	1443
start time	 05-10-2021  01:06:54 PM
880	0.196498
Peak Time (s)	92.537
Peak Height 	0.1965
calc peak height	90,93
Baseline Time (s)	10.036
Baseline Value 	-0.003111
subtract baseline	10,4
Abs	0.133785
Peak Time (s)	90.035
Peak Height 	0.1338
calc peak height	90,93
Baseline Time (s)	10.036
Baseline Value 	-5.579E-4
subtract baseline	10,3
PK_550	0.081913
Peak Time (s)	91.036
Peak Height 	0.08191
calc peak height	90,93
Baseline Time (s)	11.037
Baseline Value 	8.6078E-4
subtract baseline	10,2
PK_880	0.124874
Peak Time (s)	90.035
Peak Height 	0.1249
calc peak height	90,93
Baseline Time (s)	10.536
Baseline Value 	0.001486
subtract baseline	10,1


Time (s)	A880-A510	A880-A775	A880-A975	A880	I510	I775	I975	I880	
0.036000	-0.003847	-0.000745	0.002264	0.004843	6438.658967	43699.433369	3939.175177	22485.519269
0.539000	-0.002061	-0.000398	0.000838	0.004235	6458.495621	43789.182957	3937.059139	22513.028996
1.036500	-0.003532	-0.000973	0.004731	0.003836	6449.605706	43772.610713	3948.201079	22531.102788
1.536500	-0.001581	0.000058	0.000464	0.004271	6462.190286	43828.715566	3936.002937	22511.414507
2.034000	-0.001220	-0.001035	0.001622	0.001589	6487.584303	43978.498325	3945.954389	22633.121272
2.537500	-0.002578	-0.001122	0.005159	0.000781	6482.979040	44046.726550	3957.323758	22669.946093
3.034500	0.001959	0.000353	0.003309	-0.000692	6533.598444	44326.690084	3956.333879	22737.277097
3.535000	-0.004051	-0.000439	0.000655	0.003001	6452.218030	43901.500384	3939.777658	22568.937509
4.035500	0.000155	-0.000927	-0.000198	-0.000270	6514.768092	44164.791149	3946.055297	22717.945662
4.535500	-0.000004	-0.001236	0.006052	0.000043	6510.786067	44105.787808	3961.620503	22703.649993
5.038500	0.000701	-0.000448	0.001374	0.000547	6512.485669	44132.719721	3948.023691	22680.631484
5.535500	-0.001324	-0.000181	0.001269	-0.000081	6500.718453	44217.704029	3949.387951	22709.304277
6.036500	0.000446	0.000033	0.005135	-0.000154	6516.250494	44245.014827	3959.722961	22712.670693
6.536500	0.001137	0.000259	0.004417	0.000130	6519.683492	44239.542516	3957.086035	22699.698000
7.037500	0.000255	-0.000098	0.004055	0.000004	6513.307974	44217.570013	3956.465668	22705.463044
7.537500	0.000286	0.000649	-0.000749	0.000411	6510.136346	44249.907111	3942.853673	22686.871834
8.034500	-0.000466	-0.000350	0.000777	-0.000010	6507.349561	44194.934609	3947.918808	22706.094256
8.535500	-0.007705	0.000087	-0.002374	0.000712	6440.921874	44167.845554	3937.864193	22673.108561
9.035500	-0.004297	-0.000644	-0.003189	0.000351	6472.214421	44132.775569	3936.688888	22689.581071
9.536000	-0.004972	0.000104	-0.004015	0.000817	6462.714410	44159.502531	3933.359763	22668.314763
10.036000	0.000152	0.000217	0.000000	0.000000	6512.465164	44247.832950	3945.868665	22705.624543
10.536000	0.000000	-0.000157	0.002139	-0.000073	6511.798545	44219.209808	3951.641475	22708.941115
11.036500	0.000843	0.000000	0.003184	-0.000382	6521.525933	44263.575538	3955.191109	22723.090020
11.537000	0.000860	-0.000490	0.001620	-0.000179	6519.948173	44197.616904	3950.559796	22713.788278
12.037500	-0.001763	0.000066	0.000983	0.000825	6489.435539	44155.130490	3946.280539	22667.945102
12.537500	0.001465	0.000495	0.002997	0.000805	6516.753472	44197.761833	3951.587905	22668.859098
13.035000	0.000881	0.001087	0.002061	-0.001010	6527.160325	44427.054410	3953.891780	22751.836905
13.535500	0.002123	-0.000389	0.000906	0.000515	6524.764015	44141.344600	3946.885207	22682.092288
14.035500	-0.001558	-0.000727	-0.001215	0.000781	6491.524874	44084.122998	3940.683309	22669.966218
14.535500	-0.002718	-0.000624	0.001101	0.002451	6467.871615	43935.951230	3942.358846	22593.930812
15.036500	0.000680	-0.000868	-0.002278	-0.000099	6517.757057	44154.151326	3940.208330	22710.132761
15.586000	-0.001251	-0.001151	0.001519	-0.000231	6502.605214	44139.918381	3950.433567	22716.199363
16.036500	-0.001798	-0.000648	0.001997	0.000194	6494.432660	44147.283486	3950.570314	22696.750370
16.537000	-0.000773	0.000080	0.000652	0.000129	6503.590418	44222.570696	3947.229086	22699.714153
17.037500	-0.001205	0.000374	0.003886	0.000420	6497.514858	44222.803297	3954.925518	22686.421283
17.535000	-0.004603	-0.000406	0.001189	0.005068	6430.570458	43710.154417	3935.817356	22475.384292
18.035500	-0.003397	-0.000296	0.003438	0.000914	6475.022797	44112.340595	3952.458991	22663.891857
18.535000	-0.000634	0.000326	0.006256	0.001383	6494.223366	44126.818867	3958.624223	22642.507717
19.035500	-0.000385	0.000223	0.005677	0.001569	6494.760436	44099.540790	3956.615324	22634.068897
19.536000	-0.000876	-0.000783	0.003200	0.000854	6496.631732	44071.906955	3951.990914	22666.615146
20.036500	-0.000390	0.000254	0.000860	0.001317	6496.825117	44126.247317	3944.677885	22645.517914
20.536500	-0.001537	-0.000805	0.001261	0.000509	6493.978943	44102.426498	3947.827592	22682.355947
21.037000	-0.001330	-0.000351	-0.001514	0.000782	6493.422702	44119.648387	3939.907416	22669.907409
21.537500	-0.000686	0.000478	0.004958	0.001741	6490.787206	44107.286848	3954.273151	22626.210423
22.037500	-0.002161	0.000664	0.002024	0.001866	6477.400529	44113.147583	3946.281812	22620.550273
22.538000	-0.000622	-0.000740	-0.000343	0.001016	6497.407494	44060.595387	3942.336382	22659.247046
23.035000	-0.000430	0.000530	0.003972	0.001670	6493.530462	44118.996197	3951.877923	22629.445327
23.535000	-0.000889	0.000087	0.005420	0.001402	6491.922612	44102.406924	3956.376105	22641.658000
24.036000	-0.001848	-0.001060	0.000450	0.000529	6491.208216	44076.426525	3945.663098	22681.459456
24.536000	-0.000637	-0.000084	0.002958	0.001666	6491.830762	44061.227691	3949.238811	22629.650809
25.036500	-0.001434	-0.000922	0.001637	0.001107	6489.830312	44034.809466	3947.248400	22655.090837
25.536500	-0.000671	-0.000056	0.001097	0.001507	6492.874466	44078.963854	3944.801256	22636.884083
26.037000	-0.000712	0.000198	0.005961	0.002015	6488.272612	44054.895987	3956.189249	22613.767964
26.537000	-0.000683	-0.000666	0.001945	0.001427	6493.440885	44028.734367	3947.216245	22640.504320
27.037500	0.000072	-0.000104	0.001288	0.001593	6498.384941	44066.256957	3945.073613	22632.956064
27.535000	-0.000814	-0.000100	-0.000807	0.001773	6489.451943	44049.650600	3939.174127	22624.783973
28.035500	0.000927	0.000534	0.005553	-0.001054	6527.919930	44378.471658	3963.199867	22753.828120
28.536000	-0.001009	-0.000326	-0.000406	0.000347	6499.775641	44163.332923	3943.909583	22689.763785
29.036500	-0.002402	-0.000630	0.002453	-0.000018	6491.143095	44169.116790	3952.320661	22706.440814
29.536500	0.000098	-0.000063	0.004590	0.000656	6506.480022	44158.892346	3956.154236	22675.648747
30.036500	-0.001542	-0.000953	-0.002445	0.000109	6497.292026	44126.353336	3939.238145	22700.640667
30.537000	-0.002367	-0.001259	0.004911	-0.000465	6495.192266	44151.803330	3959.950682	22726.883517
31.037000	-0.000939	0.000480	0.002319	0.000702	6497.374143	44206.081308	3950.084283	22673.551498
31.534500	-0.004430	-0.000606	0.000302	0.005377	6429.453184	43662.419687	3932.734214	22461.422609
32.043000	-0.002239	-0.000177	0.001880	0.002197	6473.990062	44002.183755	3945.045433	22605.485265
32.534500	0.000087	0.000577	0.000886	0.001034	6503.218570	44183.824715	3945.483610	22658.437244
33.038000	0.000734	0.000711	0.006367	0.000879	6509.967765	44211.264328	3960.245881	22665.490459
33.535500	-0.004790	-0.001241	-0.001529	0.004744	6431.695439	43662.192287	3929.655652	22490.009944
34.036000	-0.002581	-0.000653	0.001235	-0.000088	6490.235561	44173.588258	3949.318976	22709.660855
34.536500	-0.000017	-0.000300	-0.004346	0.000176	6509.560688	44182.047700	3934.158809	22697.605380
35.042000	0.001272	0.000170	0.005767	-0.000875	6529.334840	44326.713266	3963.292735	22745.661742
35.537000	-0.002953	-0.000163	0.001682	0.004389	6449.819496	43796.710258	3938.842417	22506.045687
36.037500	-0.000179	0.000355	0.006178	0.002519	6488.515504	44022.012279	3955.432739	22590.825770
36.537000	-0.001457	-0.000196	0.005525	0.002163	6480.799979	44003.574122	3954.656019	22607.032520
37.035000	-0.000995	-0.001107	0.005030	0.001241	6492.383494	44004.664999	3955.774897	22648.992410
37.535000	-0.003416	-0.000277	0.004796	0.003371	6454.427773	43881.957269	3949.586151	22552.184164
38.035500	-0.000743	-0.000442	0.004229	0.001506	6492.275290	44042.505956	3952.981240	22636.925088
38.536000	-0.002968	-0.000284	0.005451	0.001450	6474.134038	44062.709922	3956.332451	22639.482932
39.036500	0.000302	0.000093	0.007576	0.001984	6497.035597	44047.875984	3960.520423	22615.169362
39.536500	-0.001202	-0.000133	0.006056	0.002950	6476.360185	43935.203129	3953.984183	22571.286447
40.036500	-0.002299	-0.001384	0.003175	0.000698	6486.009952	44029.735229	3952.335172	22673.732738
40.540500	0.001952	-0.000340	0.002494	0.001759	6512.813247	44028.167268	3947.784093	22625.396595
41.034500	-0.001857	-0.000117	0.003135	0.001217	6485.365419	44100.666091	3950.874223	22650.097331
41.678000	-0.001995	-0.000303	0.002977	0.001401	6482.675178	44065.584003	3949.979915	22641.698548
42.035000	-0.001731	-0.000271	0.004410	0.001375	6485.100738	44071.121610	3953.798308	22642.907730
42.535500	-0.000589	-0.000166	0.001355	0.001020	6497.651473	44114.686962	3946.741403	22659.068310
43.059000	-0.000850	-0.000353	0.004421	0.001480	6491.599530	44053.403959	3953.551945	22638.109961
43.536000	-0.001448	-0.000424	0.005884	0.001327	6487.871564	44061.060130	3957.793779	22645.065025
44.036500	-0.000221	0.000110	0.002174	0.001828	6493.949199	44064.192392	3946.769427	22622.243513
44.536000	-0.000250	0.000158	0.003589	0.001925	6492.897243	44059.616333	3950.208170	22617.844642
45.037000	0.002956	0.000618	0.005588	0.000374	6533.010483	44250.401005	3959.522662	22688.527077
45.588000	-0.001537	-0.000390	0.004351	0.002824	6474.615869	43922.899690	3949.852344	22577.001526
46.175000	0.000068	0.000219	0.004368	0.000149	6510.500635	44233.879408	3956.905187	22698.801930
46.540500	0.000504	0.000070	0.002531	0.000491	6511.290627	44187.176613	3951.192091	22683.185630
47.038500	-0.000334	0.000076	0.006304	0.000290	6505.929958	44206.914407	3961.632450	22692.363230
47.539000	-0.002075	0.000411	0.004581	0.004898	6452.874619	43802.885149	3945.042507	22483.037917
48.036000	-0.002254	-0.000591	0.008147	0.001095	6483.058736	44067.193054	3964.375464	22655.628618
48.536500	0.000954	0.000140	0.005037	0.000220	6517.378193	44219.606307	3958.478164	22695.574457
49.162500	-0.000605	-0.000700	0.004022	-0.000256	6508.245436	44185.058397	3957.062366	22717.345551
49.537000	-0.001224	-0.000591	0.005966	0.002009	6484.040828	43980.807906	3956.218926	22614.045760
50.037500	-0.000272	0.000215	0.001501	0.001822	6493.577894	44074.806048	3945.034158	22622.544077
50.537500	-0.000167	0.000113	0.000123	0.000346	6506.865260	44205.108956	3945.287511	22689.814980
51.035000	0.001127	-0.000247	0.002923	0.000284	6518.298425	44176.844996	3952.759750	22692.661992
51.535500	-0.002638	-0.000777	-0.001008	0.004025	6455.453690	43773.256824	3932.842782	22522.549517
52.035500	0.000482	0.000118	0.004023	-0.001767	6530.197759	44406.801390	3961.043119	22786.546277
52.536000	-0.000228	0.000055	0.005184	0.000658	6503.726983	44169.961737	3957.713770	22675.592258
53.036000	-0.008257	-0.008261	0.006628	-0.003941	6474.980998	43818.574197	3973.720234	22886.527455
53.539000	0.033308	-0.026772	0.116799	0.502645	4092.724073	15141.145834	3280.278482	9096.500881
54.037000	-0.008668	-0.027471	0.030262	0.163469	5313.246686	29539.657646	3647.228162	16480.068627
54.537000	-0.015345	-0.048077	-0.027740	-0.198836	8435.948356	61361.840528	4491.776103	34229.986022
55.037000	-0.013757	-0.104139	-0.022272	-0.284816	9683.762567	65528.350166	4884.715650	41098.309970
55.537000	-0.010984	-0.050974	-0.013135	-0.208350	8617.289283	62258.771587	4587.518230	34924.827017
56.035000	-0.013551	-0.032347	-0.010246	-0.163943	8026.073576	58839.917271	4425.937204	31808.024211
56.535500	-0.015354	-0.026067	-0.012242	-0.152608	7871.846279	58193.113797	4377.247919	31062.235864
57.035000	-0.014041	-0.036647	-0.010283	-0.181186	8229.621180	60531.023213	4491.029284	32980.542295
57.586500	-0.006434	-0.029595	0.001590	-0.155559	8010.988286	58119.670581	4438.789986	31254.519000
58.041500	0.002619	-0.019958	0.020457	-0.094269	7426.152100	51932.211000	4287.700099	27517.035643
58.537000	0.011542	-0.008649	0.032949	-0.026938	6850.348816	46003.070139	4113.034284	23975.680633
59.037000	0.026174	0.005818	0.037191	-0.009664	6826.086499	45725.604108	4074.669268	23152.216286
59.537000	0.037044	0.015771	0.044773	0.019882	6658.747681	43838.327097	4012.560988	21817.518073
60.037500	0.044829	0.023046	0.055708	0.054016	6434.561524	41385.598210	3950.282327	20384.445678
60.537000	0.052082	0.023812	0.062548	0.061373	6433.708981	40806.506122	3948.933697	20090.054129
61.038000	0.057965	0.027916	0.062944	0.068547	6423.069118	40539.825300	3931.376185	19807.748004
61.535500	0.069855	0.035587	0.071464	0.066627	6538.497341	41379.291591	3958.530081	19882.816769
62.036000	0.072038	0.039387	0.079742	0.107029	6227.806471	38272.470297	3877.019129	18370.503010
62.536000	0.076311	0.040871	0.089352	0.122682	6140.455540	37138.320096	3862.344907	17821.342497
63.037000	0.081079	0.043356	0.102133	0.154427	5942.305363	34910.153406	3817.608867	16766.643487
63.536500	0.082815	0.045573	0.100632	0.173701	5819.934709	33678.952801	3770.789772	16162.903417
64.038500	0.083544	0.048230	0.106223	0.185484	5745.307244	33039.688894	3757.261557	15806.776041
64.537000	0.090480	0.053595	0.109126	0.189813	5762.734495	33111.578613	3754.175110	15678.352933
65.034500	0.094038	0.056681	0.106444	0.187270	5803.938377	33505.212533	3753.873972	15753.636323
65.546000	0.095271	0.058284	0.105437	0.182503	5845.026199	33956.795354	3762.035623	15895.953399
66.035000	0.097901	0.060672	0.101568	0.177564	5897.672930	34484.553674	3764.369242	16045.066952
66.535500	0.100902	0.063894	0.109631	0.176385	5927.138402	34805.801454	3784.783672	16080.909435
67.035000	0.100490	0.064695	0.105802	0.174434	5938.064290	35008.383109	3780.601190	16140.448832
67.539000	0.099714	0.065260	0.105410	0.172718	5944.758098	35177.278793	3783.549014	16193.043995
68.036500	0.103781	0.065880	0.110018	0.172506	5975.397564	35239.066602	3794.355560	16199.558017
68.539500	0.101896	0.066534	0.111221	0.172209	5963.987028	35309.906680	3797.742679	16208.678556
69.037000	0.102046	0.067621	0.115627	0.172703	5961.518285	35354.102268	3806.630940	16193.485373
69.537000	0.104276	0.067949	0.112113	0.174595	5963.949724	35237.637838	3794.369830	16135.538652
70.034500	0.107208	0.069714	0.115820	0.174591	5985.064228	35369.371322	3802.770253	16135.641798
70.535000	0.105394	0.071077	0.112225	0.174714	5971.115876	35462.181010	3794.352926	16131.903017
71.035500	0.107617	0.071861	0.116049	0.175253	5983.241304	35480.523128	3801.787140	16115.436129
71.535500	0.108916	0.073585	0.115932	0.178215	5971.270821	35387.887758	3794.817698	16025.331234
72.036000	0.114039	0.074556	0.120518	0.177530	6013.286880	35511.821589	3806.778807	16046.102928
72.539000	0.113326	0.074829	0.123063	0.177521	6008.164804	35533.009754	3812.627271	16046.385116
73.036500	0.113998	0.076448	0.120683	0.179160	6001.138873	35531.460542	3803.438784	15996.698837
73.540500	0.114824	0.076094	0.121323	0.180744	5995.646580	35386.334262	3801.292468	15948.868350
74.036500	0.115675	0.076650	0.121111	0.180583	6002.977164	35439.949649	3801.176309	15953.713679
74.534500	0.116174	0.077435	0.125763	0.182076	5995.773659	35387.029225	3808.375677	15908.778908
75.038500	0.115786	0.075828	0.123332	0.181415	5997.753406	35316.467818	3804.335347	15928.660458
75.538500	0.116526	0.076468	0.124529	0.183259	5989.754721	35226.794401	3802.861917	15873.265897
76.035500	0.117954	0.077102	0.126556	0.182996	6002.005942	35293.541841	3808.084385	15881.164804
76.541500	0.118302	0.076906	0.126273	0.182752	6006.307936	35297.109896	3807.996027	15888.484803
77.036000	0.119779	0.078164	0.123184	0.184645	6003.287054	35249.830169	3796.672344	15831.807334
77.536500	0.118797	0.077791	0.130355	0.185397	5990.725745	35166.296854	3811.286456	15809.366795
78.036500	0.118700	0.078403	0.121717	0.184429	5997.027151	35283.726621	3793.850508	15838.266066
78.537000	0.120962	0.078385	0.125870	0.183808	6017.985031	35328.663260	3804.666901	15856.833364
79.037000	0.122201	0.079412	0.128000	0.184865	6019.306361	35326.408484	3807.113821	15825.227468
79.534500	0.122496	0.080318	0.128559	0.185083	6019.873570	35377.796816	3807.893709	15818.732670
80.038000	0.122392	0.080411	0.128288	0.185055	6019.321974	35386.848645	3807.338237	15819.579439
80.535500	0.121201	0.081299	0.128762	0.185335	6008.605873	35432.225711	3807.779874	15811.204990
81.035000	0.123971	0.080335	0.128244	0.184111	6037.783244	35451.717373	3809.396418	15847.771604
81.541500	0.124461	0.081851	0.129407	0.185208	6033.333717	35483.156277	3809.548261	15815.010279
82.039000	0.123206	0.081873	0.127942	0.185773	6020.024908	35442.451675	3804.910562	15798.170362
82.536500	0.122997	0.081640	0.131117	0.184744	6026.011038	35502.068113	3814.537225	15828.857688
83.036500	0.121986	0.081211	0.128827	0.184208	6022.540045	35510.122779	3810.508686	15844.880554
83.536500	0.126494	0.081753	0.128602	0.184584	6052.860431	35522.546337	3809.130982	15833.620592
84.034500	0.123795	0.081532	0.127459	0.184718	6032.038573	35495.917318	3806.212990	15829.619328
84.538000	0.122371	0.082218	0.128408	0.184349	6024.322307	35575.125926	3809.227448	15840.659792
85.038000	0.122790	0.082306	0.130389	0.184836	6023.828815	35545.154385	3812.651611	15826.113762
85.535500	0.122197	0.081428	0.123718	0.185471	6014.860094	35431.738409	3796.012833	15807.149491
86.035500	0.124205	0.083067	0.131740	0.185841	6026.822671	35526.801647	3813.445768	15796.120277
86.536000	0.121296	0.081863	0.131058	0.185848	6005.568094	35436.114331	3811.865355	15795.929748
87.036500	0.124091	0.083176	0.130978	0.187209	6016.003159	35432.514159	3808.562446	15755.436589
87.536500	0.123039	0.081871	0.128783	0.187342	6007.379754	35325.130105	3803.254029	15751.506707
88.037000	0.121847	0.082296	0.129321	0.188312	5991.702452	35284.488236	3802.270847	15722.729652
88.537000	0.124273	0.082597	0.134218	0.190244	5995.268754	35163.201671	3809.031504	15665.614302
89.035000	0.121487	0.081544	0.131897	0.189722	5978.919843	35123.852444	3804.921906	15681.017419
89.535000	0.123387	0.082393	0.132237	0.191823	5977.474349	35031.195395	3800.916812	15619.132812
90.035500	0.124874	0.081543	0.133785	0.191714	5988.989186	34976.539503	3804.685991	15622.351409
90.535500	0.122195	0.081005	0.125711	0.191837	5968.802326	34927.798967	3786.186318	15618.733012
91.036000	0.123647	0.081913	0.129425	0.194333	5961.316995	34811.067312	3788.915510	15545.618106
91.536500	0.124289	0.081659	0.133030	0.194746	5962.958393	34762.145592	3796.096681	15533.557941
92.066500	0.121320	0.080807	0.133250	0.195275	5937.987608	34661.092583	3795.398697	15518.129466
92.537000	0.122259	0.080982	0.130673	0.196498	5935.968384	34584.635796	3786.860099	15482.506329
93.034500	0.124779	0.080850	0.131155	0.197497	5946.796295	34502.371924	3785.704866	15453.523287
93.534500	0.122347	0.080817	0.133660	0.198840	5919.997793	34402.497647	3788.304748	15414.631739
94.038000	0.123372	0.081281	0.132069	0.200332	5916.700668	34328.090411	3781.422838	15371.567860
94.535500	0.124283	0.081423	0.130174	0.201107	5917.658204	34282.362110	3775.498857	15349.252761
95.035500	0.123957	0.081176	0.131696	0.201704	5911.147653	34221.550845	3777.548242	15332.106621
95.538500	0.123759	0.080718	0.135543	0.203498	5897.137738	34059.775324	3782.107515	15280.680268
96.035500	0.124978	0.081022	0.132977	0.205110	5894.383958	33966.193017	3772.850811	15234.658319
96.536000	0.125408	0.081216	0.138968	0.205751	5892.898937	33934.221016	3784.719275	15216.383046
97.037000	0.125624	0.081172	0.140861	0.207542	5881.885991	33803.533255	3784.946479	15165.525155
97.537000	0.124456	0.081352	0.136987	0.209236	5861.972310	33696.129700	3772.593930	15117.612311
98.036500	0.123153	0.080642	0.134620	0.210485	5844.332010	33557.697913	3764.655955	15082.415781
