sample name	sample
index	975
start time	 04-14-2021  02:42:33 PM
880	0.556229
Peak Time (s)	102.535
Peak Height 	0.5562
calc peak height	100,103
Baseline Time (s)	9.536
Baseline Value 	-0.002463
subtract baseline	10,4
Abs	0.386818
Peak Time (s)	101.537
Peak Height 	0.3868
calc peak height	100,103
Baseline Time (s)	10.537
Baseline Value 	0.003191
subtract baseline	10,3
PK_550	0.217086
Peak Time (s)	102.535
Peak Height 	0.2171
calc peak height	100,103
Baseline Time (s)	9.036
Baseline Value 	3.4757E-4
subtract baseline	10,2
PK_880	0.362850
Peak Time (s)	102.038
Peak Height 	0.3628
calc peak height	100,103
Baseline Time (s)	11.037
Baseline Value 	-3.8726E-5
subtract baseline	10,1


Time (s)	A880-A510	A880-A775	A880-A975	A880	I510	I775	I975	I880	
0.036000	-0.000202	0.000174	-0.001624	0.002038	6295.680047	42040.978809	3945.833652	22080.739811
0.536500	-0.005502	-0.000862	-0.001264	0.006350	6221.379666	41562.198917	3936.194216	21891.234351
1.037000	-0.001323	-0.000884	0.001519	0.003046	6279.079796	41855.356394	3951.081287	22036.267139
1.534500	0.002399	-0.000824	0.000069	0.000871	6325.256935	42056.151202	3952.866355	22132.335246
2.037500	-0.000424	0.000155	-0.001667	0.001115	6301.156628	42122.449810	3947.993344	22121.527248
2.535000	-0.001935	0.000184	-0.005102	0.006664	6246.339186	41627.436715	3926.156953	21877.513765
3.040500	0.000355	-0.000761	0.004173	-0.002151	6332.982144	42335.175820	3970.592613	22266.674548
3.536000	-0.000710	0.000185	-0.000281	0.000885	6300.728109	42145.976249	3951.971463	22131.751380
4.036000	-0.000271	-0.000487	0.001341	0.000721	6305.445183	42100.043436	3956.380615	22138.985263
4.536000	-0.000793	0.000667	-0.001229	0.002343	6288.680253	42057.914227	3946.055589	22067.259956
5.036500	-0.002100	-0.000506	-0.000403	0.000093	6296.042508	42155.011983	3953.622418	22166.830145
5.536500	0.002533	0.000170	0.000121	0.000595	6328.489631	42170.821569	3953.676813	22144.574994
6.037000	-0.000273	-0.000459	0.001891	0.000404	6307.915705	42131.219069	3958.528497	22153.023681
6.534500	-0.001414	-0.000253	-0.000780	0.002376	6283.589404	41972.114856	3947.077622	22065.829686
7.034500	-0.001518	-0.000548	-0.003815	0.000295	6299.017193	42133.044754	3944.737996	22157.891961
7.535500	0.000975	0.000557	0.001134	0.000382	6317.895421	42225.056737	3956.709019	22154.037065
8.035500	0.001748	0.000537	-0.001063	0.000278	6324.802772	42232.641459	3951.540275	22158.644726
8.535500	0.000653	0.000491	-0.005117	0.003050	6294.451407	41978.391866	3934.850768	22036.088007
9.036000	-0.000326	0.000000	0.001747	-0.000253	6312.659756	42232.135425	3959.802007	22182.207845
9.536000	-0.000487	-0.000346	0.003781	0.000000	6309.408828	42177.923018	3964.234294	22170.963829
10.036500	0.000651	-0.000200	-0.004501	-0.000295	6320.675684	42217.828102	3944.502976	22184.058283
10.536500	-0.001384	0.000363	0.000000	0.000372	6299.467452	42208.355329	3953.928513	22154.460962
11.037500	0.000000	-0.000092	0.002539	-0.000046	6313.590315	42205.016615	3961.253936	22172.984793
11.537000	0.000986	0.000575	-0.002826	0.000357	6318.183571	42228.981686	3947.009628	22155.148394
12.035000	0.000701	-0.000337	-0.002134	-0.000460	6322.365602	42220.418459	3950.718249	22191.404035
12.535500	-0.000568	-0.000856	0.001209	0.002249	6291.174095	41929.303245	3952.280777	22071.411749
13.038000	0.001454	0.000260	0.001144	-0.000426	6328.032257	42271.364607	3958.735717	22189.880992
13.535500	0.001497	-0.000621	0.000612	-0.001017	6333.042422	42245.062563	3958.881844	22216.165596
14.036500	-0.002498	-0.000941	-0.002139	0.000658	6288.528668	42064.835481	3947.956747	22141.780896
14.536500	-0.001564	0.000319	-0.000468	0.002313	6282.905838	42029.220387	3947.996941	22068.596503
15.036500	0.000305	0.000423	-0.000248	-0.000301	6317.992213	42274.717347	3954.978484	22184.312524
15.534000	0.001770	0.000014	0.003118	-0.000208	6328.805499	42229.233622	3963.098891	22180.178304
16.037500	0.000567	-0.000098	-0.003750	-0.000479	6321.460192	42243.740367	3946.794972	22192.244694
16.535000	-0.002577	-0.000788	-0.000128	0.004427	6258.647573	41740.358211	3943.647968	21975.521837
17.034500	0.004312	0.000781	0.004427	-0.003117	6372.098815	42563.414471	3973.655545	22309.775156
17.535500	-0.000657	0.000793	-0.000633	0.000845	6301.450609	42204.538834	3951.202024	22133.505835
18.036000	0.001476	0.000165	0.000336	0.001010	6316.890503	42132.786903	3953.182141	22126.180598
18.536000	0.000812	0.000309	0.003755	0.000975	6311.946644	42148.990425	3961.739296	22127.734894
19.036000	-0.000661	-0.000903	-0.001750	-0.000206	6309.656216	42146.170123	3951.037633	22180.101356
19.537000	0.001550	0.000165	-0.002730	0.000571	6320.933300	42172.509337	3946.719163	22145.643819
20.036500	0.000600	0.000770	0.001866	0.000933	6310.615728	42194.432420	3957.156801	22129.597399
20.537000	-0.000649	0.000140	-0.000686	0.000464	6304.501383	42179.974803	3952.010676	22150.406547
21.037500	-0.001099	0.000301	0.000362	0.000661	6299.436868	42176.702062	3954.108827	22141.667011
21.535000	-0.000067	0.000204	-0.001867	0.000906	6305.590592	42145.701937	3948.014602	22130.780407
22.035500	0.000227	0.000690	0.001261	0.000855	6308.302968	42194.236697	3955.851533	22133.046202
22.538000	0.000092	0.000105	-0.002387	0.001430	6302.739280	42089.524061	3945.455741	22107.612880
23.036000	0.000899	0.000365	0.000441	0.000972	6312.652888	42154.270675	3953.536022	22127.863458
23.536500	0.001574	0.000629	-0.001016	0.001158	6316.501065	42161.354564	3949.487051	22119.641372
24.036500	-0.003698	-0.000136	-0.004037	-0.000037	6284.592000	42200.311338	3945.008321	22172.622685
24.537000	0.001047	0.000270	-0.002135	0.000946	6314.030248	42148.106733	3947.259968	22129.039554
25.037500	-0.000946	-0.000455	0.003126	0.000207	6304.182155	42149.357517	3962.085654	22161.769984
25.537500	0.000117	0.000130	-0.002692	0.000594	6309.492032	42167.245494	3946.757859	22144.630130
26.034500	-0.000609	-0.000051	-0.000570	0.000281	6306.245304	42179.225585	3952.747493	22158.505332
26.535500	0.000786	0.000460	0.003546	0.000566	6314.961597	42199.586803	3962.237875	22145.846049
27.035500	0.001815	0.000863	-0.002362	-0.000395	6330.637417	42323.167036	3949.995546	22188.481281
27.535500	0.003384	0.000755	0.001611	-0.001521	6351.992836	42415.632428	3962.616991	22238.591426
28.036000	-0.000274	-0.000295	0.003079	-0.001195	6320.476173	42290.678656	3965.464063	22224.070966
28.536000	-0.000453	-0.000188	-0.002149	-0.000295	6311.986961	42218.839529	3950.273462	22184.037196
29.036500	0.000592	0.000008	0.003595	-0.000765	6323.912729	42279.261911	3965.679924	22204.960472
29.537000	-0.000319	0.000514	0.003169	-0.000449	6314.250708	42296.435771	3963.826930	22190.894589
30.037500	0.000406	-0.000946	-0.001574	-0.001145	6325.440487	42227.262533	3953.789220	22221.860941
30.537000	0.000316	0.000643	0.000576	0.001925	6300.612543	42093.379192	3951.518861	22085.725161
31.035000	0.000138	-0.000040	-0.002756	0.001374	6303.536535	42081.595299	3944.690210	22110.105872
31.534500	-0.000705	0.000049	-0.002052	-0.000484	6311.500980	42257.488500	3950.979709	22192.472196
32.038000	0.002639	-0.000149	0.000156	-0.001137	6343.024511	42298.718014	3958.048698	22221.483909
32.535500	0.004111	0.001031	-0.004897	0.000056	6345.237614	42297.511084	3942.675080	22168.479438
33.036500	0.001001	0.000205	-0.000966	-0.000741	6326.949076	42294.917413	3954.291931	22203.872966
33.536000	0.003826	0.000630	0.001181	-0.001469	6355.093513	42399.578962	3961.417346	22236.276841
34.036500	-0.002773	-0.000024	0.003364	0.000902	6284.479695	42125.469791	3960.948064	22130.960350
34.536500	0.000821	0.000926	0.001381	0.002124	6303.011570	42101.036608	3953.011587	22076.938011
35.037500	-0.003202	-0.000784	-0.007019	0.000535	6283.995393	42090.027074	3936.338399	22147.217729
35.534500	0.000286	-0.000104	0.000680	0.001017	6307.497363	42107.947167	3954.015959	22125.897692
36.035000	-0.002270	-0.000333	0.000565	0.000879	6288.580448	42099.657484	3954.071112	22131.978224
36.535500	-0.000685	0.000172	-0.005458	0.002002	6292.189884	42044.051158	3936.568599	22082.349067
37.035000	0.002303	-0.000111	0.000820	0.000824	6324.864928	42124.689664	3954.836264	22134.413515
37.536000	-0.001730	-0.000382	-0.000604	0.000544	6295.412599	42125.522269	3952.012707	22146.832066
38.036500	0.002153	-0.000111	0.001828	0.000611	6325.365535	42143.921095	3957.858245	22143.854864
38.537000	-0.000703	0.000061	0.002877	0.000210	6306.066593	42195.706221	3961.458746	22161.638953
39.037000	-0.000324	0.000794	-0.001130	0.001127	6301.852744	42179.077836	3949.283136	22121.021835
39.539500	-0.000152	0.000055	0.001047	0.000609	6307.264057	42159.197823	3955.931094	22143.979007
40.037500	-0.000307	0.000324	0.001113	0.000567	6306.373321	42187.292519	3956.198338	22145.828787
40.535000	0.001449	0.000603	0.003278	0.001549	6312.447547	42123.720737	3959.129189	22102.340317
41.035000	0.001062	-0.000589	0.003420	-0.000148	6322.748320	42169.355269	3963.702354	22177.531093
41.537500	-0.000232	0.000351	-0.001174	0.000820	6304.975259	42166.815449	3949.929806	22134.617706
42.036000	0.001313	0.000087	0.000081	0.001044	6315.351973	42122.775137	3952.471161	22124.701593
42.538500	-0.000100	-0.000321	0.000605	0.001708	6299.057905	42026.102848	3952.124803	22095.325305
43.036500	-0.002428	0.000203	-0.004160	0.000942	6286.863455	42142.440860	3942.312042	22129.219314
43.537000	0.001298	0.000220	-0.001823	0.000849	6316.763721	42152.420729	3948.265390	22133.345384
44.037000	0.000253	0.000747	0.000880	-0.000623	6320.119493	42333.316169	3958.569070	22198.629043
44.540000	-0.004640	-0.001086	-0.002779	0.004561	6241.707835	41701.727806	3936.859511	21969.639600
45.035000	0.000787	0.000393	0.001608	-0.000261	6321.483315	42268.450774	3959.478405	22182.569594
45.540500	0.001797	0.000449	0.006864	-0.000350	6330.143579	42281.548311	3972.826909	22186.508290
46.038000	0.001453	0.000751	0.003016	-0.000087	6325.350020	42285.030690	3962.544866	22174.816733
46.538000	-0.001491	-0.000470	-0.003353	0.004769	6264.403707	41738.127860	3934.959335	21960.481071
47.036000	0.000216	0.000079	0.001747	-0.000658	6320.106795	42275.954490	3960.807497	22200.185264
47.539000	0.000328	0.000218	0.001838	0.001531	6303.797313	42090.598770	3955.607648	22103.144071
48.036000	0.001138	0.000059	0.001144	0.002257	6304.450097	42010.835001	3952.098208	22071.049068
48.539000	-0.004641	-0.000038	-0.002918	0.005025	6238.130565	41753.847303	3935.394207	21949.260214
49.037000	-0.000489	0.000369	0.000520	-0.000368	6312.278817	42275.918802	3957.043878	22187.299503
49.534500	0.002972	0.001045	0.004132	-0.002344	6355.258538	42516.960592	3970.973089	22275.265906
50.037500	-0.000733	-0.000455	-0.000702	0.002731	6286.124502	41922.070600	3946.396697	22050.153951
50.535000	0.001068	0.000500	0.000152	0.016374	6195.071543	40799.183059	3915.493384	21457.866266
51.035500	0.021975	-0.011062	0.026919	0.362276	4459.714294	19553.819472	3377.359013	11267.423611
51.538500	0.001767	-0.009323	-0.031387	-0.005891	6373.935624	41899.969007	3893.645513	22434.168207
52.036000	-0.007843	-0.030898	-0.042781	-0.180392	7977.679133	58351.289750	4355.024753	32094.758498
52.538500	-0.006332	-0.029415	-0.030588	-0.185679	8057.757339	59222.124339	4415.544202	32452.315700
53.036500	0.009183	-0.023043	-0.018197	-0.180981	8187.810760	59439.514114	4442.961192	32134.369633
53.539500	0.024690	-0.017841	-0.000922	-0.179107	8356.405245	59874.283870	4499.329936	32008.493064
54.033500	0.032386	-0.002499	0.013621	-0.079958	7320.540150	49879.804703	4212.946343	26066.820995
54.535000	0.039224	0.005938	0.025250	-0.013680	6755.246242	44024.478270	4055.511134	22787.670330
55.035000	0.050258	0.012508	0.038084	0.000236	6729.757607	43335.151742	4052.590129	22160.481783
55.540500	0.066297	0.022852	0.060449	0.053139	6418.194085	39562.852114	3973.066799	19951.432155
56.035500	0.075417	0.028455	0.066289	0.061306	6425.917071	39347.181711	3967.234413	19633.735182
56.541500	0.097925	0.040669	0.091086	0.073001	6514.772638	39390.721611	4000.489367	19189.110504
57.036000	0.109843	0.048301	0.093187	0.099802	6393.038216	37816.121096	3938.621978	18214.185566
57.539000	0.127914	0.058656	0.122157	0.127590	6315.781826	36443.282211	3941.504664	17264.964705
58.036500	0.139313	0.066629	0.137315	0.187261	5956.583813	32681.508769	3838.236747	15420.684502
58.540000	0.158470	0.075350	0.153964	0.214174	5902.496974	31460.741955	3815.888850	14668.250926
59.037500	0.174468	0.085606	0.171078	0.251528	5758.481959	29734.540303	3773.337668	13698.264626
59.534500	0.191208	0.096620	0.195133	0.283158	5662.176338	28491.536030	3757.915507	12939.680916
60.035500	0.200061	0.103137	0.204072	0.306905	5569.092247	27497.082151	3728.536113	12405.398068
60.535500	0.217830	0.111769	0.225427	0.321014	5591.672305	27189.091376	3742.787633	12101.517281
61.036000	0.227886	0.118290	0.235417	0.348609	5485.188346	26039.767702	3708.570688	11534.975878
61.535500	0.242537	0.127925	0.248636	0.368384	5454.876854	25506.296817	3696.178839	11150.556613
62.036000	0.249537	0.132704	0.259080	0.395645	5338.475827	24367.044931	3665.233387	10648.510002
62.536000	0.265249	0.138932	0.273527	0.430591	5232.887495	22994.921646	3629.095814	10049.345768
63.036500	0.276922	0.144138	0.289202	0.443585	5225.808153	22638.188615	3633.725114	9838.564492
63.536500	0.288770	0.152282	0.299160	0.481462	5090.575985	21333.680586	3586.886412	9258.957659
64.037500	0.298191	0.155520	0.303348	0.472602	5184.707436	21853.725295	3608.402953	9390.050961
64.537500	0.307349	0.159626	0.318702	0.497859	5101.603654	20953.867145	3592.014136	9023.302893
65.038000	0.317168	0.164288	0.323342	0.504089	5119.862894	20888.887309	3589.416957	8936.074818
65.538500	0.323103	0.168600	0.333217	0.531776	5011.476462	19947.496073	3560.967329	8563.194122
66.036000	0.331647	0.170987	0.338008	0.543076	4998.129164	19601.700101	3550.858990	8417.715241
66.535500	0.331250	0.171243	0.351019	0.573122	4856.170183	18496.057173	3525.110754	8048.804769
67.036500	0.335755	0.172596	0.347196	0.611777	4708.330954	17214.353154	3465.134968	7610.224130
67.536000	0.334055	0.170271	0.357093	0.637053	4599.495498	16334.391735	3444.827161	7343.844079
68.037000	0.335161	0.172690	0.354699	0.664217	4500.597317	15591.679344	3407.760424	7074.342558
68.539000	0.331167	0.176661	0.351933	0.670853	4461.925025	15514.171597	3396.488881	7011.023770
69.038000	0.329721	0.176704	0.358220	0.659933	4496.344188	15836.033919	3417.304375	7115.732841
69.535500	0.335525	0.181893	0.355708	0.650032	4555.085156	16292.573442	3426.499247	7212.977134
70.037500	0.336142	0.185763	0.356746	0.641454	4590.472082	16681.310665	3438.701831	7299.031403
70.535500	0.343755	0.189007	0.364968	0.634903	4646.474092	16995.096750	3457.983181	7365.909091
71.036000	0.341672	0.191607	0.369144	0.628455	4664.102336	17291.324269	3472.261142	7432.724272
71.539000	0.343549	0.190605	0.361121	0.618947	4710.930679	17575.522935	3474.284844	7533.082962
72.037000	0.342947	0.190909	0.357302	0.620225	4703.114064	17542.701154	3467.368369	7519.467417
72.539500	0.346593	0.192096	0.359974	0.610811	4758.125138	17903.930941	3483.902642	7620.723384
73.037000	0.345740	0.194502	0.368243	0.609764	4758.955496	18023.507764	3496.965948	7632.119579
73.539500	0.350430	0.195509	0.367049	0.606254	4794.363569	18181.356102	3500.256601	7670.525862
74.034500	0.353588	0.195916	0.367896	0.608947	4796.391292	18101.302018	3497.631914	7641.033612
74.537500	0.349268	0.196630	0.361064	0.603389	4801.801666	18322.051181	3495.826035	7702.106882
75.035500	0.356670	0.198009	0.369083	0.596822	4863.927112	18606.370368	3516.810928	7775.294614
75.535500	0.353289	0.196359	0.378763	0.591741	4871.625740	18730.736221	3538.777592	7832.675486
76.036000	0.350364	0.196381	0.365703	0.592730	4853.947791	18695.612037	3517.854376	7821.461701
76.535500	0.358044	0.199147	0.365099	0.585784	4920.833840	19052.284149	3527.216050	7900.823059
77.036500	0.355722	0.200345	0.370016	0.582172	4926.839537	19231.918807	3540.022165	7942.595606
77.534500	0.355939	0.198899	0.371325	0.578560	4944.776089	19313.448897	3547.527386	7984.717780
78.034000	0.356048	0.199972	0.366465	0.580722	4935.137983	19272.383905	3536.844658	7959.460490
78.540000	0.357348	0.199184	0.374243	0.574174	4972.231427	19490.683136	3558.825368	8036.349403
79.037500	0.356063	0.200516	0.373755	0.567181	4999.630983	19811.333547	3569.047455	8119.744363
79.535000	0.357833	0.200772	0.370701	0.563213	5027.539792	19976.387504	3570.495787	8167.662683
80.035500	0.354996	0.202278	0.367420	0.565634	5001.950117	19940.480154	3561.509184	8138.374922
80.535500	0.357342	0.202895	0.370090	0.556063	5060.394585	20344.393376	3580.949366	8255.122742
81.036500	0.355902	0.203772	0.372782	0.553896	5064.011333	20466.924371	3588.820104	8281.920970
81.536000	0.354077	0.202300	0.371069	0.549298	5077.864376	20593.644062	3593.533544	8339.210367
82.036500	0.349792	0.202542	0.372756	0.552482	5040.745535	20474.344517	3591.082492	8299.465917
82.537000	0.357234	0.204811	0.372432	0.546737	5106.714069	20801.220907	3599.997348	8371.391797
83.037000	0.355185	0.204005	0.365163	0.543926	5110.588384	20883.952398	3592.659600	8406.927155
83.537000	0.358357	0.205656	0.370156	0.544436	5124.171212	20931.203250	3600.038971	8400.464213
84.038000	0.358105	0.206339	0.368313	0.542758	5131.482082	21029.344952	3599.764963	8421.759551
84.535500	0.357675	0.205839	0.372937	0.541807	5134.159427	21048.152766	3609.046094	8433.864869
85.036000	0.354924	0.208085	0.371250	0.542780	5115.087616	21101.366472	3604.601326	8421.473155
85.535500	0.359240	0.206495	0.366467	0.541356	5144.548048	21094.439597	3599.032878	8439.622781
86.036500	0.353448	0.206463	0.367985	0.540282	5120.307125	21138.070025	3603.326474	8453.332300
86.536500	0.357647	0.206753	0.368257	0.540111	5142.750272	21157.417216	3604.064429	8455.524788
87.036500	0.354843	0.207374	0.370152	0.540554	5126.051747	21164.872098	3606.483015	8449.856031
87.537000	0.358176	0.208230	0.374114	0.540578	5143.066684	21199.867723	3613.086647	8449.546111
88.037500	0.356035	0.210325	0.368321	0.545831	5105.226233	21067.456798	3594.713651	8382.815158
88.537500	0.355868	0.209696	0.369065	0.546539	5100.789057	21011.705434	3594.772625	8373.888218
89.035000	0.354159	0.209561	0.370187	0.541622	5117.094489	21211.957806	3604.760226	8436.221506
89.535500	0.357237	0.211261	0.372238	0.542636	5127.653668	21240.868756	3606.489780	8423.306629
90.036000	0.359909	0.212143	0.374481	0.543248	5138.239083	21252.283358	3609.218369	8415.536202
90.536000	0.356206	0.211471	0.371004	0.542471	5123.217184	21256.689237	3604.708310	8425.411522
91.036500	0.357301	0.211512	0.375089	0.542572	5128.310800	21254.162839	3611.374290	8424.128973
91.536500	0.359099	0.210853	0.371911	0.541260	5144.316471	21281.737915	3608.244052	8440.846703
92.037000	0.357634	0.212107	0.380178	0.547649	5104.115926	21065.948456	3611.392933	8359.908968
92.537000	0.357177	0.212700	0.369998	0.546237	5108.961117	21149.905791	3596.804211	8377.691162
93.034500	0.359808	0.212572	0.375680	0.541038	5149.125593	21363.930083	3614.952706	8443.669923
93.537500	0.360862	0.215223	0.375839	0.543655	5141.049880	21365.411398	3610.813810	8410.360798
94.035500	0.360804	0.213403	0.380660	0.544428	5136.772443	21255.628884	3617.643890	8400.565374
94.536000	0.359380	0.214050	0.372526	0.543217	5135.676069	21334.233092	3606.001270	8415.922705
95.036000	0.358033	0.213576	0.373387	0.539193	5149.488251	21485.317558	3614.196953	8467.280777
95.536500	0.357919	0.213775	0.374782	0.539154	5149.105681	21495.522557	3616.621564	8467.783364
96.037000	0.356390	0.213515	0.372244	0.544139	5115.639558	21272.546943	3603.996056	8404.224923
96.536500	0.358875	0.213457	0.368710	0.538931	5155.209256	21491.421239	3606.785203	8470.636424
97.037500	0.359767	0.215952	0.373030	0.541438	5146.847567	21490.939998	3609.820335	8438.573118
97.537000	0.365098	0.216213	0.376806	0.541226	5175.695186	21511.183863	3616.539437	8441.275893
98.038000	0.358458	0.215235	0.374306	0.546439	5114.458301	21248.066738	3603.599881	8375.148236
98.535500	0.359757	0.215053	0.375909	0.542811	5139.709429	21394.047524	3612.350345	8421.085957
99.035500	0.361231	0.216393	0.380728	0.544812	5136.992211	21365.968281	3617.107663	8395.698751
99.536000	0.362345	0.215107	0.376900	0.544862	5142.476154	21309.298434	3610.567154	8395.060199
100.036000	0.357444	0.214886	0.378530	0.550913	5086.661600	21045.706807	3603.184236	8319.017483
100.536500	0.361084	0.216039	0.376427	0.548207	5118.831987	21207.453251	3604.187266	8352.897476
101.036500	0.362063	0.216277	0.377382	0.550935	5109.917022	21102.906839	3601.241698	8318.744652
101.537000	0.361560	0.214431	0.386818	0.550495	5109.595719	21044.158383	3617.797453	8324.236232
102.037500	0.362850	0.216583	0.377868	0.553837	5099.184814	20994.568909	3597.248929	8282.643024
102.535000	0.362080	0.217086	0.376213	0.556229	5083.244709	20916.170861	3590.609681	8253.079034
103.035000	0.358392	0.215073	0.373090	0.555869	5066.584080	20847.791078	3586.111792	8257.515505
103.535500	0.362978	0.216626	0.380121	0.558659	5075.562387	20796.831600	3593.027751	8223.203856
104.035500	0.364286	0.215512	0.380248	0.560539	5072.696548	20674.030119	3590.160987	8200.203998
104.536000	0.360995	0.214983	0.385496	0.562238	5047.893061	20583.206133	3595.976625	8179.507321
105.036000	0.361648	0.215312	0.383349	0.564511	5039.898970	20504.322724	3588.741437	8151.942397
105.542500	0.365981	0.215832	0.381959	0.567109	5048.455625	20420.394411	3582.274998	8120.602924
106.037000	0.362783	0.217797	0.384730	0.572479	5006.511506	20283.777120	3578.093945	8056.439712
106.542000	0.362021	0.216387	0.379662	0.573550	4997.643578	20184.885211	3568.317024	8043.736062
107.034500	0.363760	0.216381	0.386367	0.572344	5011.909576	20232.612031	3580.942377	8058.040453
107.537500	0.365799	0.218895	0.390080	0.575594	5006.028044	20203.322472	3581.688817	8019.570640
108.035000	0.361788	0.216101	0.376698	0.576881	4980.511889	20041.732456	3558.432808	8004.426819
108.535000	0.360742	0.215764	0.380320	0.577749	4971.363173	19994.264640	3562.737145	7994.223318
109.035500	0.363036	0.214878	0.377709	0.577215	4984.890663	19980.449490	3559.487289	8000.495883
109.541000	0.365236	0.216429	0.391339	0.579309	4985.400756	19959.125862	3577.740151	7975.960586
110.036500	0.366652	0.216806	0.388336	0.580751	4985.273233	19917.381233	3570.649661	7959.124732
110.536500	0.361086	0.214885	0.386734	0.583472	4945.881900	19736.713486	3563.823266	7927.519677
111.034000	0.366080	0.212785	0.374519	0.580214	4985.106825	19781.628042	3549.893384	7965.385261
111.537500	0.368416	0.215423	0.390963	0.583012	4982.892240	19775.427387	3571.230660	7932.849812
112.038000	0.368148	0.214559	0.381552	0.583404	4979.729111	19726.745024	3555.833822	7928.304390
