sample name	sample
index	65
start time	 02-11-2021  03:22:00 PM
880	0.454190
Peak Time (s)	91.035
Peak Height 	0.4542
calc peak height	90,93
Baseline Time (s)	8.537
Baseline Value 	-8.0454E-4
subtract baseline	10,4
Abs	0.301573
Peak Time (s)	90.038
Peak Height 	0.3016
calc peak height	90,93
Baseline Time (s)	9.035
Baseline Value 	0.006885
subtract baseline	10,3
PK_550	0.151567
Peak Time (s)	92.536
Peak Height 	0.1516
calc peak height	90,93
Baseline Time (s)	8.537
Baseline Value 	-1.26E-4
subtract baseline	10,2
PK_880	0.294143
Peak Time (s)	92.536
Peak Height 	0.2941
calc peak height	90,93
Baseline Time (s)	9.035
Baseline Value 	9.2066E-4
subtract baseline	10,1


Time (s)	A880-A510	A880-A775	A880-A975	A880	I510	I775	I975	I880	
0.038000	0.000292	0.000310	-0.010686	0.001286	4532.708167	19423.021938	3292.266030	10663.759497
0.536000	-0.002672	0.000333	-0.014119	0.001680	4520.439504	19408.946593	3289.036159	10656.755345
1.035500	-0.007150	-0.000960	-0.015864	0.000166	4509.689806	19417.342551	3288.841936	10683.726627
1.536000	-0.000842	0.001114	-0.004899	0.000338	4532.025441	19489.604966	3298.019681	10680.652747
2.036500	-0.000294	0.000215	0.000501	-0.000789	4538.178720	19498.281866	3303.682650	10700.790525
2.536500	-0.001231	0.000275	0.006476	-0.000933	4535.259174	19506.043707	3309.067926	10703.360673
3.036500	-0.003633	0.000274	-0.006936	-0.003970	4537.595305	19622.213371	3299.981242	10757.905004
3.537500	0.000967	0.001270	0.002481	-0.000044	4540.073386	19510.100530	3304.763279	10687.465347
4.034500	0.003480	0.001919	-0.004767	0.000017	4549.136922	19532.552754	3298.410899	10686.390687
4.537500	0.001273	0.001306	0.004412	0.000394	4539.590715	19494.760136	3306.073970	10679.654341
5.035000	-0.001540	-0.000526	-0.017944	-0.001607	4536.603727	19501.221700	3288.584315	10715.436059
5.536000	0.001559	-0.000339	-0.006411	-0.001345	4547.063842	19498.343701	3298.167393	10710.732171
6.035500	0.001012	0.000676	-0.000039	-0.001240	4544.652512	19533.051629	3303.603914	10708.854238
6.536000	-0.000069	0.001935	-0.012195	0.000128	4535.632258	19528.909350	3291.968508	10684.397334
7.036500	-0.001116	-0.000311	-0.004297	0.002787	4522.075468	19342.697569	3296.433260	10637.083486
7.536500	0.001786	0.000497	-0.004814	-0.000706	4545.543000	19505.884972	3298.993482	10699.302195
8.037000	-0.000264	-0.000220	-0.002431	-0.000452	4537.049243	19468.896724	3300.835802	10694.764052
8.537500	0.000827	0.000000	-0.003993	0.000000	4539.397429	19460.073614	3299.092358	10686.688485
9.035000	0.000000	0.000715	0.000000	0.000680	4533.857556	19461.394821	3301.964148	10674.550982
9.538000	0.001407	0.001159	0.002585	0.001234	4536.993461	19457.230204	3303.735996	10664.688989
10.035500	-0.001584	-0.000114	0.003198	-0.000667	4532.988609	19481.108134	3305.940012	10698.608897
10.535500	0.000623	-0.000123	-0.008463	0.000300	4537.546786	19444.022125	3294.996806	10681.342464
11.036000	-0.002269	0.000258	0.009603	-0.000019	4528.109327	19470.620400	3311.035581	10687.033210
11.536000	-0.001023	-0.000463	-0.007735	-0.000246	4533.502506	19451.825404	3296.086679	10691.089342
12.036500	0.001688	0.001086	-0.006447	0.001169	4538.263604	19456.921175	3295.977354	10665.841889
12.537000	0.001303	0.001664	-0.013037	0.001486	4535.680579	19466.816888	3290.109197	10660.194671
13.037000	-0.004577	0.000215	-0.003480	0.005614	4499.335277	19256.101025	3294.714380	10587.098385
13.537500	-0.000428	0.000204	-0.009193	0.001753	4528.358494	19401.274785	3293.136066	10655.443796
14.037500	-0.000454	0.000787	-0.007992	0.004232	4519.224897	19329.609408	3292.052132	10611.487337
14.535500	-0.002229	0.001074	-0.013870	0.003801	4514.345466	19356.716682	3287.466487	10619.116568
15.038500	0.002714	0.000502	-0.005998	0.006531	4522.388569	19232.437714	3291.794425	10570.953661
15.535500	-0.001692	0.000550	-0.000768	0.002190	4522.151754	19397.834409	3299.987560	10647.683717
16.036000	-0.000531	0.000105	-0.000065	0.001542	4528.755441	19405.525334	3301.158423	10659.206643
16.536000	0.002114	-0.000626	0.008930	0.001063	4540.224576	19395.992667	3309.474619	10667.731524
17.036500	-0.005351	-0.000369	-0.009249	0.005150	4498.218646	19251.584915	3290.214459	10595.277219
17.537000	-0.000973	-0.000031	-0.000358	0.002234	4524.609232	19374.177050	3300.304241	10646.895995
18.037500	-0.002657	-0.000197	-0.005819	0.002378	4517.955495	19362.463196	3295.480203	10644.339565
18.537500	-0.000487	-0.001130	-0.007341	0.002233	4526.387837	19332.688403	3294.304003	10646.917594
19.038000	-0.003428	0.000115	-0.005080	0.004314	4508.148856	19301.214526	3294.458101	10610.040128
19.535500	-0.001474	-0.000138	-0.000444	0.002631	4521.341011	19355.143997	3299.886876	10639.858452
20.035500	-0.003708	-0.000430	-0.006158	0.002674	4513.068801	19342.466122	3294.937745	10639.088479
20.536000	-0.004451	-0.001275	-0.004480	0.002520	4510.937370	19316.421361	3296.505541	10641.822477
21.036000	0.001393	-0.000102	-0.009531	0.003983	4526.863048	19305.498511	3290.960831	10615.897848
21.536500	-0.001776	-0.000270	-0.007212	0.003753	4516.159843	19307.810966	3293.120367	10619.962734
22.037000	0.000989	0.000878	-0.012386	0.003712	4526.377561	19352.659714	3288.784236	10620.687919
22.537000	-0.000816	0.000674	-0.004734	0.004037	4518.618013	19332.715723	3294.990041	10614.942488
23.034000	-0.001602	-0.000408	0.003709	0.002917	4519.832423	19334.152379	3303.247710	10634.778105
23.537500	0.001693	0.000119	-0.002739	0.003399	4530.096634	19335.860014	3297.244993	10626.238576
24.035000	-0.001506	-0.001528	-0.004660	0.002592	4521.361960	19304.173165	3296.289233	10640.542608
24.535500	-0.001076	-0.000190	-0.002179	0.003768	4518.650523	19310.291038	3297.410056	10619.709004
25.035500	-0.000997	-0.000900	0.000277	0.003207	4520.978699	19304.672809	3300.012502	10629.645899
25.536000	0.000538	0.000565	0.013216	0.004554	4521.663401	19309.131075	3310.181399	10605.806008
26.036000	-0.003249	0.001598	0.009087	0.004654	4507.570678	19344.305082	3306.439866	10604.041058
26.536000	-0.004324	-0.000105	-0.001276	0.003643	4507.338952	19318.216137	3298.294671	10621.921885
27.037000	0.000093	-0.000937	-0.016002	-0.000302	4537.811319	19435.966013	3289.118958	10692.087932
27.537500	-0.001145	-0.000189	-0.013725	0.007675	4504.263820	19163.793470	3284.360056	10550.862029
28.035000	-0.000163	0.000138	0.001964	0.002144	4527.896673	19383.965188	3302.399536	10648.499325
28.534500	0.001127	0.000585	-0.004190	0.003170	4528.866907	19362.119102	3296.196967	10630.302651
29.035000	0.001323	-0.000241	0.003245	0.002658	4531.453933	19350.209781	3303.068067	10639.366305
29.535500	-0.001402	0.000154	-0.007183	0.008051	4501.983274	19162.543693	3289.510846	10544.254156
30.036000	-0.000960	0.000399	0.001677	0.003237	4521.001180	19352.517458	3301.198996	10629.103154
30.536000	-0.001858	-0.001182	0.000542	0.004785	4512.126137	19234.786443	3298.876944	10601.728521
31.039000	-0.002695	-0.000702	-0.005368	0.004053	4511.742777	19280.301076	3294.435258	10614.658948
31.536500	-0.003683	-0.000852	0.003007	0.007702	4495.050724	19138.039629	3298.487156	10550.377819
32.037000	-0.000659	-0.000072	-0.001866	0.003423	4521.424215	19327.736848	3297.975356	10625.815703
32.537500	-0.000324	-0.000720	-0.000892	0.002796	4524.932116	19326.966151	3299.356520	10636.933201
33.037000	-0.005176	-0.000715	-0.004045	0.007663	4489.852955	19144.585514	3292.489328	10551.058064
33.537500	-0.001210	-0.001184	-0.007869	0.007551	4504.476177	19131.304650	3289.354270	10553.031201
34.035500	-0.003602	0.000062	-0.004729	0.005413	4503.562565	19257.886627	3293.820899	10590.640169
34.535500	-0.003172	0.000238	-0.013957	0.005140	4506.095885	19274.747154	3286.275036	10595.458422
35.036000	-0.001563	-0.000935	-0.004035	0.005167	4511.811652	19229.716582	3294.621890	10594.986187
35.536000	-0.003707	-0.000900	0.002673	0.006499	4499.280829	19181.176805	3299.237435	10571.513583
36.036500	-0.001991	0.000400	-0.006519	0.005988	4507.298240	19249.000363	3291.812981	10580.513195
36.537000	-0.005003	0.000396	0.003119	0.004962	4500.146020	19287.400492	3300.953837	10598.602812
37.037000	-0.004002	-0.001063	-0.009100	0.004632	4504.931921	19244.961705	3290.776902	10604.424888
37.538000	0.000310	0.000727	-0.009903	0.006371	4514.230344	19246.864880	3288.636524	10573.761537
38.035000	0.000771	0.001579	-0.011364	0.006477	4515.520893	19274.937329	3287.324491	10571.906494
38.535500	0.001841	0.000107	-0.014891	0.005234	4523.932731	19266.302233	3285.419047	10593.797581
39.035500	0.001086	0.000528	0.002282	0.006379	4517.020884	19239.124846	3299.003620	10573.631498
39.536000	-0.000626	-0.001139	-0.009142	0.004841	4516.389000	19234.295405	3290.565861	10600.738776
40.035500	-0.003138	-0.000557	-0.002747	0.004979	4506.797831	19250.949022	3295.883211	10598.301615
40.536000	-0.003484	-0.001130	0.000819	0.005106	4505.091856	19224.662670	3298.838403	10596.046230
41.036500	-0.001698	0.000883	-0.008866	0.006195	4507.605363	19259.374223	3289.656905	10576.863874
41.537000	-0.003089	-0.002378	-0.007607	0.003696	4511.607843	19230.762909	3292.833586	10620.971848
42.034500	-0.003266	0.000127	0.001598	0.005591	4504.127205	19253.621594	3299.092426	10587.495419
42.534500	0.000922	0.000424	0.002074	0.005882	4518.229020	19253.896291	3299.252687	10582.381353
43.035000	0.000674	-0.001430	-0.012807	0.004773	4521.360626	19225.895363	3287.542297	10601.926901
43.535500	0.003863	-0.000396	-0.005642	0.000640	4548.249151	19420.724424	3297.122001	10675.273670
44.036000	-0.005454	-0.000865	-0.004026	0.003396	4504.158431	19298.881196	3296.143708	10626.297446
44.538500	-0.001028	0.000916	-0.003480	0.004923	4514.630602	19308.406668	3295.304089	10599.278453
45.036000	-0.003300	0.000552	-0.002335	0.009520	4489.920645	19122.638701	3292.365285	10518.559253
45.537000	-0.004496	0.000189	-0.001912	0.010903	4480.745051	19057.702059	3291.551745	10494.430980
46.037000	-0.001857	0.000453	0.007076	0.004294	4513.907757	19314.701165	3304.988607	10610.400403
46.537000	-0.000827	-0.000265	-0.002194	0.003733	4519.683061	19308.765227	3297.426667	10620.318197
47.040500	-0.005682	-0.000776	-0.019491	0.007349	4489.166573	19154.048747	3279.874268	10556.568654
47.540000	-0.004197	-0.000557	-0.007742	0.009911	4485.331538	19066.831452	3287.480912	10511.724786
48.035500	-0.001707	-0.000109	-0.003841	0.003946	4515.711462	19306.610280	3295.831295	10616.550178
48.536000	0.001209	-0.000811	0.005970	0.003485	4528.011992	19297.554789	3304.728197	10624.709698
49.035500	-0.005908	-0.000554	0.000247	0.009738	4479.867507	19073.389531	3294.375303	10514.749693
49.536000	0.000523	-0.000806	-0.006042	0.001354	4533.305120	19378.165445	3296.166085	10662.550827
50.036500	-0.000299	0.000600	-0.002066	-0.006568	4559.567194	19734.844607	3306.500647	10804.852772
50.536500	0.029056	0.000120	-0.037363	0.234377	3934.968271	12576.597149	3126.525969	7452.643964
51.037000	0.010315	-0.002555	-0.017648	-0.032222	4700.624866	20627.400200	3315.472981	11283.900518
51.534500	-0.004962	-0.006587	0.007493	-0.067062	4781.744453	21926.997745	3373.437321	11981.479269
52.037500	-0.014555	-0.011112	0.002957	-0.070446	4755.602836	21877.197369	3372.247367	12052.269937
52.535000	-0.018574	-0.009150	-0.009444	-0.123304	4971.698360	24423.796572	3416.001878	13232.624056
53.035500	-0.007511	-0.009018	-0.004388	-0.142636	5118.983918	25408.146069	3444.416045	13701.483522
53.535500	-0.001744	-0.008162	0.008182	-0.103314	4956.970392	23504.474117	3413.331884	12769.266550
54.036000	-0.003783	-0.006199	0.011697	-0.081874	4850.824979	22602.969142	3393.549407	12295.436078
54.536500	0.005073	-0.005853	0.017676	-0.073231	4851.762109	22231.069796	3390.679717	12110.945961
55.036500	0.012137	-0.004401	0.023607	-0.063696	4840.914138	21875.507330	3386.822782	11911.613855
55.536500	0.015796	-0.004636	0.014995	-0.049743	4796.388476	21267.198578	3363.394790	11627.717520
56.037000	0.021403	-0.006957	0.016134	-0.038703	4773.307367	20712.206511	3353.492173	11409.460156
56.540000	0.018607	-0.005944	0.032494	-0.013182	4657.590203	19737.588572	3344.530134	10925.669479
57.035000	0.022806	-0.005800	0.026143	0.006523	4597.344649	18998.172395	3320.046679	10571.087250
57.535000	0.030948	-0.006673	0.041907	0.032644	4530.133937	18030.982348	3310.715215	10125.192747
58.035500	0.036108	-0.005965	0.049023	0.042132	4514.367650	17729.125943	3308.609851	9969.757029
58.536000	0.044707	-0.003005	0.059183	0.061892	4474.421460	17168.289419	3300.202663	9656.732935
59.036500	0.058776	0.000569	0.061712	0.080650	4457.944285	16679.752407	3286.407944	9372.482520
59.536500	0.070974	0.006840	0.073444	0.101300	4428.688800	16232.604414	3279.044048	9073.430062
60.037000	0.086061	0.012253	0.080361	0.135559	4364.400251	15378.939181	3257.385511	8607.601911
60.537000	0.104822	0.019392	0.117338	0.170014	4313.848735	14621.240286	3259.326708	8174.755125
61.037500	0.129348	0.031597	0.137675	0.202618	4288.527002	14085.641864	3249.989684	7795.589711
61.535000	0.148722	0.039612	0.142117	0.233682	4252.715360	13510.010221	3230.612763	7459.890687
62.034500	0.143315	0.045039	0.158867	0.259765	4160.901610	13019.472603	3224.095991	7195.976254
62.535500	0.157608	0.050981	0.153350	0.271053	4169.376444	12896.257319	3212.708824	7086.579358
63.036000	0.167304	0.056550	0.187674	0.280124	4171.146700	12816.373542	3229.988333	7000.712218
63.535500	0.179261	0.065046	0.170815	0.294989	4162.930470	12672.716602	3208.440016	6863.815012
64.037000	0.188650	0.073565	0.187306	0.304987	4161.216540	12639.653706	3212.723405	6774.341359
64.671000	0.192313	0.078886	0.207282	0.315794	4141.293323	12518.005707	3218.881493	6679.915260
65.036500	0.201104	0.084536	0.205285	0.323554	4144.149329	12471.640395	3212.333082	6613.549302
65.537000	0.205963	0.094307	0.222266	0.339726	4113.185398	12332.326675	3212.870135	6478.990532
66.040500	0.216795	0.099269	0.220911	0.343676	4131.927407	12354.217091	3209.364292	6446.881989
66.538000	0.226368	0.103620	0.221546	0.351685	4136.226189	12275.317110	3204.561599	6382.660570
67.038000	0.226455	0.106983	0.241086	0.363731	4103.736031	12090.707861	3209.443183	6288.276555
67.632000	0.233973	0.112496	0.255182	0.367065	4115.000714	12136.699433	3216.602493	6262.612094
68.516500	0.246161	0.119813	0.261112	0.383292	4104.125321	11950.123947	3209.748899	6140.473405
69.088500	0.246310	0.123483	0.247510	0.385447	4098.759464	11981.573673	3199.570311	6124.596128
69.191000	0.245033	0.123896	0.263108	0.385037	4096.448779	11998.701408	3209.913359	6127.605966
69.537000	0.246982	0.123297	0.258263	0.390774	4086.407400	11867.657285	3203.033773	6085.681270
70.036500	0.254218	0.127426	0.265286	0.391462	4103.822101	11938.584924	3207.132630	6080.687916
70.539500	0.259792	0.128708	0.277438	0.396255	4105.915537	11866.198528	3211.969441	6046.130870
71.037500	0.254863	0.133054	0.243001	0.406645	4065.507082	11742.963286	3183.737103	5972.519090
71.535000	0.261136	0.133691	0.274968	0.408610	4076.729026	11716.111024	3202.308591	5958.797152
72.035500	0.264032	0.134335	0.276643	0.405234	4093.263663	11797.637983	3205.562666	5982.414956
72.536000	0.269710	0.140057	0.268061	0.412961	4087.833032	11756.877534	3195.188804	5928.624236
73.035500	0.265401	0.136530	0.281338	0.415231	4070.579353	11640.095359	3202.147660	5913.007578
73.536000	0.267908	0.138837	0.275327	0.416781	4073.072405	11655.250870	3197.348341	5902.385747
74.036500	0.271667	0.140822	0.281190	0.416930	4082.528244	11692.140057	3200.967708	5901.368300
74.536500	0.272912	0.141993	0.284134	0.417941	4083.144960	11695.369420	3202.203037	5894.466661
75.037000	0.270147	0.143006	0.276840	0.421032	4067.834417	11653.616129	3195.631112	5873.454260
75.537500	0.271994	0.142813	0.279335	0.423199	4067.004009	11606.438501	3195.836300	5858.817868
76.037500	0.274054	0.144588	0.285719	0.423432	4071.754780	11637.233766	3199.712686	5857.250336
76.535000	0.276057	0.146309	0.288409	0.426334	4069.415191	11613.646078	3199.577903	5837.768677
77.035500	0.280139	0.146159	0.287691	0.429783	4071.061679	11542.136031	3196.947140	5814.786026
77.535500	0.277501	0.144033	0.287482	0.428384	4067.838666	11527.753414	3197.695904	5824.084851
78.036000	0.275511	0.147420	0.289391	0.428895	4061.364924	11584.770431	3198.578265	5820.688808
78.536500	0.277885	0.146591	0.289295	0.429061	4067.078616	11565.003725	3198.412823	5819.582352
79.036500	0.281408	0.145649	0.272217	0.428490	4077.753757	11557.650413	3188.181871	5823.382349
79.537000	0.280936	0.148004	0.291065	0.431341	4069.080449	11547.817615	3198.090134	5804.462414
80.039500	0.283818	0.148313	0.293947	0.432875	4072.590475	11523.584366	3198.941905	5794.335258
80.537500	0.283453	0.149049	0.295803	0.434620	4067.102728	11503.695838	3199.012826	5782.861366
81.037500	0.287798	0.148460	0.280323	0.434944	4077.586509	11485.728009	3189.188342	5780.737493
81.535000	0.282105	0.150445	0.295674	0.436335	4059.180922	11497.408958	3197.847746	5771.625256
82.035500	0.284967	0.150086	0.288116	0.436828	4065.300801	11480.658441	3192.819501	5768.402901
82.535500	0.285219	0.149045	0.294719	0.436656	4066.404240	11463.611639	3197.044810	5769.532277
83.036500	0.284620	0.149797	0.297312	0.437239	4063.341213	11466.918126	3198.311245	5765.724131
83.536000	0.284729	0.149437	0.294802	0.439964	4056.594538	11406.624505	3195.025170	5747.998639
84.036500	0.288853	0.149785	0.289147	0.439267	4069.057227	11426.996398	3191.950068	5752.522164
84.537000	0.288268	0.149987	0.271301	0.442469	4059.256814	11368.649842	3179.277911	5731.808974
85.034000	0.287655	0.149144	0.279120	0.441342	4060.583529	11374.153391	3184.588806	5739.082620
85.535000	0.286207	0.151852	0.300812	0.445095	4047.242407	11353.895867	3195.574238	5714.930403
86.037500	0.284591	0.150296	0.294232	0.443204	4047.942377	11360.394729	3192.658570	5727.072329
86.535500	0.287748	0.151651	0.305629	0.445200	4050.910046	11347.990490	3198.536039	5714.258192
87.036000	0.284356	0.149810	0.296450	0.449553	4031.273003	11229.048424	3190.116234	5686.515220
87.536000	0.286849	0.151922	0.294130	0.447983	4041.531334	11299.548986	3189.657469	5696.488332
88.036000	0.287059	0.149968	0.290503	0.446110	4046.826487	11297.978222	3188.586532	5708.432267
88.536500	0.291546	0.150672	0.296986	0.447748	4054.108848	11280.036229	3191.553738	5697.981444
89.037000	0.288014	0.151162	0.290199	0.453108	4031.533089	11187.147678	3184.177070	5664.062858
89.539500	0.285325	0.148477	0.295931	0.448225	4037.061895	11228.953392	3190.612403	5694.950579
90.037500	0.287171	0.151467	0.301573	0.450252	4036.603236	11247.320229	3192.839641	5682.082178
90.535000	0.287968	0.150267	0.292803	0.450788	4037.261208	11214.220052	3187.142486	5678.690496
91.035000	0.288949	0.150280	0.283043	0.454190	4031.162377	11149.981066	3179.289702	5657.261478
91.535500	0.289322	0.150743	0.288659	0.452719	4035.805240	11186.580193	3183.488708	5666.510489
92.035500	0.289347	0.150641	0.301421	0.452978	4035.215550	11179.739727	3191.065229	5664.878977
92.536000	0.294143	0.151567	0.301507	0.453789	4045.311871	11181.917086	3190.620150	5659.781934
93.036000	0.285529	0.150977	0.300760	0.458777	4011.230415	11076.845250	3187.123172	5628.633654
93.536500	0.284504	0.147683	0.305635	0.452293	4024.778163	11136.772932	3194.093527	5669.190794
94.037000	0.285563	0.149569	0.306484	0.452578	4026.715369	11167.010216	3194.444395	5667.395943
94.534000	0.291544	0.149276	0.314974	0.453984	4038.223685	11134.937030	3198.890660	5658.558645
95.034000	0.280112	0.149564	0.292379	0.459156	3997.029092	11043.386806	3181.871251	5626.283967
95.538000	0.299136	0.151773	0.299342	0.457378	4048.888944	11118.033399	3187.111760	5637.332551
