sample name	sample
index	601
start time	 03-16-2021  05:09:09 PM


Wavelength (nm)	Absorbance
494.344910	-0.532116
494.563924	-0.532116
494.782919	-0.532116
495.001897	0.641921
495.220856	-0.055106
495.439797	0.024400
495.658719	0.391899
495.877624	0.408862
496.096510	0.774789
496.315378	NaN
496.534227	2.383409
496.753059	0.458429
496.971872	0.111281
497.190667	0.082371
497.409444	0.080546
497.628203	0.078907
497.846943	0.080239
498.065665	0.081436
498.284369	0.081089
498.503055	0.081068
498.721723	0.082058
498.940372	0.081639
499.159003	0.081731
499.377616	0.081424
499.596210	0.079551
499.814787	0.079544
500.033345	0.078392
500.251885	0.078810
500.470406	0.079269
500.688910	0.078789
500.907395	0.080048
501.125862	0.079302
501.344311	0.079416
501.562742	0.081208
501.781154	0.082192
501.999548	0.081660
502.217924	0.081776
502.436282	0.080931
502.654621	0.081394
502.872942	0.079631
503.091245	0.079327
503.309530	0.079303
503.527797	0.078658
503.746045	0.078302
503.964275	0.077805
504.182487	0.077982
504.400681	0.077679
504.618856	0.077982
504.837013	0.078975
505.055152	0.080530
505.273273	0.080248
505.491376	0.080958
505.709460	0.080584
505.927526	0.081931
506.145574	0.080965
506.363604	0.081094
506.581615	0.082628
506.799608	0.082299
507.017583	0.081523
507.235540	0.081308
507.453478	0.081089
507.671399	0.080827
507.889301	0.080719
508.107185	0.081493
508.325050	0.082796
508.542898	0.081024
508.760727	0.081452
508.978538	0.081126
509.196330	0.082437
509.414105	0.082343
509.631861	0.081207
509.849599	0.080814
510.067319	0.079649
510.285021	0.079778
510.502704	0.080337
510.720369	0.080090
510.938016	0.080209
511.155645	0.079636
511.373255	0.079585
511.590848	0.080281
511.808422	0.080972
512.025977	0.082317
512.243515	0.081744
512.461034	0.080690
512.678536	0.080121
512.896018	0.079989
513.113483	0.080405
513.330930	0.079684
513.548358	0.079982
513.765768	0.080048
513.983160	0.079604
514.200533	0.080066
514.417889	0.080645
514.635226	0.080672
514.852545	0.081883
515.069845	0.081380
515.287128	0.081898
515.504392	0.081131
515.721638	0.080196
515.938866	0.080488
516.156075	0.080659
516.373267	0.081399
516.590440	0.081622
516.807594	0.080488
517.024731	0.080398
517.241850	0.082015
517.458950	0.082648
517.676032	0.083898
517.893095	0.083569
518.110141	0.083584
518.327168	0.082225
518.544177	0.083018
518.761168	0.083373
518.978141	0.083562
519.195095	0.082716
519.412031	0.083500
519.628949	0.082696
519.845849	0.083004
520.062731	0.082293
520.279594	0.083318
520.496439	0.082856
520.713266	0.083605
520.930074	0.084058
521.146865	0.083884
521.363637	0.083966
521.580391	0.084498
521.797127	0.084835
522.013844	0.084008
522.230543	0.084522
522.447224	0.085204
522.663887	0.085071
522.880532	0.085854
523.097158	0.086204
523.313766	0.085724
523.530356	0.085341
523.746928	0.085374
523.963481	0.087455
524.180017	0.088056
524.396534	0.088551
524.613032	0.088361
524.829513	0.087343
525.045975	0.087706
525.262420	0.087944
525.478845	0.088388
525.695253	0.088459
525.911643	0.087909
526.128014	0.086959
526.344367	0.086870
526.560702	0.087766
526.777018	0.087957
526.993316	0.088152
527.209597	0.088422
527.425858	0.088504
527.642102	0.088970
527.858328	0.088733
528.074535	0.089609
528.290724	0.089907
528.506894	0.090372
528.723047	0.091604
528.939181	0.091641
529.155297	0.091568
529.371395	0.092124
529.587475	0.092235
529.803536	0.093608
530.019579	0.092779
530.235604	0.092530
530.451611	0.091804
530.667600	0.091597
530.883570	0.090906
531.099522	0.091489
531.315456	0.091521
531.531372	0.091310
531.747269	0.090638
531.963148	0.091555
532.179009	0.092438
532.394852	0.092686
532.610676	0.092081
532.826482	0.092284
533.042271	0.091865
533.258040	0.092195
533.473792	0.091773
533.689525	0.091535
533.905240	0.091365
534.120937	0.090586
534.336616	0.091050
534.552277	0.091842
534.767919	0.092115
534.983543	0.092192
535.199149	0.091984
535.414736	0.093148
535.630306	0.093400
535.845857	0.093111
536.061390	0.093719
536.276904	0.093374
536.492401	0.093401
536.707879	0.093380
536.923339	0.094407
537.138781	0.094759
537.354204	0.094693
537.569610	0.094924
537.784997	0.095470
538.000366	0.095444
538.215716	0.096034
538.431049	0.096188
538.646363	0.097013
538.861659	0.096455
539.076937	0.096334
539.292196	0.096474
539.507438	0.096383
539.722661	0.096548
539.937866	0.096756
540.153052	0.097033
540.368221	0.097101
540.583371	0.096664
540.798503	0.097252
541.013617	0.097431
541.228712	0.097422
541.443789	0.097623
541.658848	0.098104
541.873889	0.097893
542.088912	0.097288
542.303916	0.097527
542.518902	0.097512
542.733870	0.097148
542.948820	0.096841
543.163752	0.096740
543.378665	0.097145
543.593560	0.097459
543.808437	0.097696
544.023295	0.098512
544.238136	0.098893
544.452958	0.100010
544.667762	0.100609
544.882548	0.101183
545.097315	0.101665
545.312064	0.101703
545.526795	0.101616
545.741508	0.102207
545.956203	0.101555
546.170879	0.101174
546.385537	0.101375
546.600177	0.101879
546.814799	0.101594
547.029402	0.101686
547.243988	0.102351
547.458555	0.101939
547.673103	0.101533
547.887634	0.102146
548.102146	0.102842
548.316640	0.102281
548.531116	0.101813
548.745574	0.102655
548.960013	0.102685
549.174435	0.102428
549.388838	0.102900
549.603222	0.103143
549.817589	0.103595
550.031937	0.103066
550.246267	0.103707
550.460579	0.104026
550.674873	0.103868
550.889148	0.103944
551.103405	0.104153
551.317644	0.104697
551.531865	0.104834
551.746068	0.104696
551.960252	0.104764
552.174418	0.104611
552.388566	0.104610
552.602696	0.104767
552.816807	0.104841
553.030900	0.104862
553.244975	0.104598
553.459032	0.104501
553.673070	0.104642
553.887091	0.104960
554.101093	0.105061
554.315077	0.105382
554.529042	0.105065
554.742990	0.105022
554.956919	0.104781
555.170830	0.104751
555.384722	0.104810
555.598597	0.104657
555.812453	0.104307
556.026291	0.104352
556.240111	0.103962
556.453913	0.104488
556.667696	0.104917
556.881461	0.104935
557.095208	0.104708
557.308937	0.104823
557.522647	0.105526
557.736339	0.106005
557.950013	0.105342
558.163669	0.105695
558.377307	0.105633
558.590926	0.105472
558.804527	0.105926
559.018110	0.106267
559.231675	0.105987
559.445221	0.106121
559.658749	0.106487
559.872259	0.106713
560.085751	0.106346
560.299225	0.106230
560.512680	0.106361
560.726117	0.106375
560.939536	0.106228
561.152937	0.106909
561.366319	0.106624
561.579683	0.106837
561.793029	0.107433
562.006357	0.107505
562.219667	0.107685
562.432958	0.108515
562.646231	0.108516
562.859486	0.108936
563.072723	0.108473
563.285941	0.108402
563.499141	0.108190
563.712323	0.108322
563.925487	0.109021
564.138632	0.109172
564.351760	0.108982
564.564869	0.108931
564.777960	0.108696
564.991032	0.109099
565.204087	0.109105
565.417123	0.108828
565.630141	0.108529
565.843140	0.108738
566.056122	0.109414
566.269085	0.108988
566.482030	0.109175
566.694957	0.109311
566.907866	0.109864
567.120756	0.109850
567.333628	0.109948
567.546482	0.110085
567.759318	0.109985
567.972135	0.109842
568.184935	0.110223
568.397716	0.110215
568.610478	0.110549
568.823223	0.110175
569.035949	0.110578
569.248657	0.111111
569.461347	0.111212
569.674019	0.111073
569.886672	0.110932
570.099308	0.110665
570.311925	0.111136
570.524523	0.111364
570.737104	0.111176
570.949666	0.110562
571.162210	0.110145
571.374736	0.110150
571.587244	0.109968
571.799733	0.109507
572.012205	0.109381
572.224658	0.109092
572.437092	0.108955
572.649509	0.109371
572.861907	0.109450
573.074287	0.110069
573.286649	0.110522
573.498993	0.110834
573.711318	0.111278
573.923625	0.111673
574.135914	0.111691
574.348185	0.111696
574.560438	0.111430
574.772672	0.112202
574.984888	0.111982
575.197086	0.111655
575.409266	0.111659
575.621427	0.111575
575.833570	0.111604
576.045695	0.111559
576.257802	0.111468
576.469890	0.111390
576.681961	0.111058
576.894013	0.111350
577.106046	0.111731
577.318062	0.112043
577.530059	0.112323
577.742039	0.111909
577.954000	0.112174
578.165942	0.112514
578.377867	0.112808
578.589773	0.112817
578.801661	0.112638
579.013531	0.112613
579.225382	0.112263
579.437216	0.112291
579.649031	0.112831
579.860828	0.112930
580.072606	0.112723
580.284367	0.112812
580.496109	0.113387
580.707833	0.113086
580.919539	0.112893
581.131227	0.113233
581.342896	0.113299
581.554547	0.113397
581.766180	0.112951
581.977795	0.113239
582.189391	0.113261
582.400969	0.112657
582.612529	0.112965
582.824071	0.113116
583.035595	0.112985
583.247100	0.112592
583.458587	0.112536
583.670056	0.113280
583.881506	0.113025
584.092939	0.113577
584.304353	0.114630
584.515749	0.115067
584.727127	0.115127
584.938486	0.115387
585.149828	0.115783
585.361151	0.115658
585.572456	0.115437
585.783742	0.115763
585.995011	0.115479
586.206261	0.114247
586.417493	0.114495
586.628706	0.114452
586.839902	0.114330
587.051079	0.114412
587.262238	0.114956
587.473379	0.114816
587.684502	0.114800
587.895606	0.115164
588.106692	0.115954
588.317760	0.115608
588.528810	0.115977
588.739841	0.116181
588.950855	0.116337
589.161850	0.115837
589.372827	0.116406
589.583785	0.116517
589.794726	0.116361
590.005648	0.116061
590.216552	0.116276
590.427437	0.116219
590.638305	0.116297
590.849154	0.116247
591.059985	0.116575
591.270798	0.116704
591.481592	0.116988
591.692369	0.116863
591.903127	0.116880
592.113867	0.116785
592.324588	0.117088
592.535292	0.117554
592.745977	0.117577
592.956644	0.117803
593.167293	0.117394
593.377923	0.117166
593.588536	0.117546
593.799130	0.117941
594.009706	0.118086
594.220263	0.118115
594.430803	0.118154
594.641324	0.118486
594.851827	0.118429
595.062312	0.118605
595.272778	0.118750
595.483227	0.118607
595.693657	0.118812
595.904069	0.119005
596.114462	0.119093
596.324838	0.118877
596.535195	0.118480
596.745534	0.118747
596.955855	0.118584
597.166157	0.118436
597.376441	0.118514
597.586707	0.118319
597.796955	0.118192
598.007185	0.118227
598.217396	0.117775
598.427589	0.117985
598.637764	0.117657
598.847921	0.117734
599.058060	0.117981
599.268180	0.118185
599.478282	0.118597
599.688366	0.118762
599.898431	0.118872
600.108479	0.119261
600.318508	0.119412
600.528519	0.119548
600.738511	0.119848
600.948486	0.119733
601.158442	0.119519
601.368380	0.119610
601.578300	0.119472
601.788202	0.119241
601.998085	0.119659
602.207950	0.119783
602.417797	0.120115
602.627626	0.120260
602.837436	0.120397
603.047228	0.120355
603.257002	0.120211
603.466758	0.120397
603.676496	0.120766
603.886215	0.120539
604.095916	0.120642
604.305599	0.120548
604.515264	0.120883
604.724910	0.121429
604.934538	0.121752
605.144148	0.121733
605.353740	0.121661
605.563314	0.121616
605.772869	0.121878
605.982406	0.121943
606.191925	0.122040
606.401425	0.121868
606.610908	0.121966
606.820372	0.121954
607.029818	0.121991
607.239246	0.122383
607.448655	0.122106
607.658047	0.122253
607.867420	0.122221
608.076775	0.122314
608.286111	0.122374
608.495430	0.122055
608.704730	0.122037
608.914012	0.122143
609.123275	0.122248
609.332521	0.122545
609.541748	0.122515
609.750957	0.122736
609.960148	0.122760
610.169321	0.122491
610.378475	0.122504
610.587611	0.122867
610.796729	0.123215
611.005829	0.123284
611.214910	0.123478
611.423974	0.123352
611.633019	0.123530
611.842045	0.123435
612.051054	0.123905
612.260044	0.124167
612.469017	0.124317
612.677970	0.124302
612.886906	0.124034
613.095824	0.124382
613.304723	0.124451
613.513604	0.124425
613.722467	0.124567
613.931311	0.124652
614.140138	0.124437
614.348946	0.124386
614.557736	0.124286
614.766507	0.124422
614.975261	0.124233
615.183996	0.124483
615.392713	0.124523
615.601412	0.124786
615.810092	0.124844
616.018754	0.125133
616.227399	0.125210
616.436024	0.125358
616.644632	0.125462
616.853222	0.125638
617.061793	0.126064
617.270346	0.126027
617.478880	0.126031
617.687397	0.125897
617.895895	0.125881
618.104375	0.125947
618.312837	0.126271
618.521281	0.126486
618.729706	0.126642
618.938113	0.126164
619.146502	0.126216
619.354873	0.126391
619.563226	0.126734
619.771560	0.126827
619.979876	0.126970
620.188174	0.126642
620.396453	0.126567
620.604715	0.126221
620.812958	0.126756
621.021183	0.127006
621.229390	0.127211
621.437578	0.127143
621.645748	0.127356
621.853900	0.127082
622.062034	0.127384
622.270150	0.127283
622.478247	0.127773
622.686326	0.127508
622.894387	0.127626
623.102430	0.127530
623.310454	0.127403
623.518461	0.127548
623.726449	0.127952
623.934418	0.128013
624.142370	0.128395
624.350303	0.128303
624.558218	0.128386
624.766115	0.128347
624.973994	0.128518
625.181855	0.128803
625.389697	0.128693
625.597521	0.128623
625.805327	0.128622
626.013114	0.128525
626.220883	0.128576
626.428634	0.128793
626.636367	0.128709
626.844082	0.128341
627.051778	0.128213
627.259457	0.128256
627.467117	0.128260
627.674758	0.128395
627.882382	0.128444
628.089987	0.128523
628.297574	0.128463
628.505143	0.128624
628.712694	0.128978
628.920226	0.129116
629.127740	0.128996
629.335236	0.129306
629.542714	0.129241
629.750174	0.129330
629.957615	0.129238
630.165038	0.129265
630.372443	0.129533
630.579829	0.129562
630.787198	0.129821
630.994548	0.129863
631.201880	0.129864
631.409194	0.130104
631.616489	0.130121
631.823766	0.130252
632.031025	0.130443
632.238266	0.130451
632.445489	0.130870
632.652693	0.131014
632.859879	0.131602
633.067047	0.131520
633.274197	0.131631
633.481329	0.131841
633.688442	0.132213
633.895537	0.132227
634.102614	0.132377
634.309672	0.132132
634.516713	0.132213
634.723735	0.132123
634.930739	0.132270
635.137724	0.132153
635.344692	0.132312
635.551641	0.132370
635.758572	0.132591
635.965485	0.132428
636.172379	0.132677
636.379256	0.132698
636.586114	0.132655
636.792954	0.132962
636.999775	0.133218
637.206579	0.133302
637.413364	0.133132
637.620131	0.133097
637.826880	0.133481
638.033610	0.133460
638.240323	0.133567
638.447017	0.133651
638.653692	0.133417
638.860350	0.133387
639.066990	0.133421
639.273611	0.133653
639.480214	0.133748
639.686798	0.133807
639.893365	0.133857
640.099913	0.133860
640.306443	0.134101
640.512955	0.134322
640.719449	0.134429
640.925924	0.134507
641.132381	0.134659
641.338820	0.134712
641.545241	0.134744
641.751644	0.135110
641.958028	0.135433
642.164394	0.135615
642.370742	0.135763
642.577071	0.135700
642.783383	0.136072
642.989676	0.136045
643.195951	0.136011
643.402207	0.135981
643.608446	0.135622
643.814666	0.135775
644.020868	0.135846
644.227052	0.136043
644.433218	0.136638
644.639365	0.136457
644.845494	0.136546
645.051605	0.136735
645.257698	0.136600
645.463772	0.136908
645.669828	0.136638
645.875866	0.136641
646.081886	0.136575
646.287888	0.136432
646.493871	0.136556
646.699836	0.136578
646.905783	0.136463
647.111712	0.136579
647.317622	0.136855
647.523514	0.137087
647.729388	0.137028
647.935244	0.137106
648.141082	0.137058
648.346901	0.137052
648.552702	0.137260
648.758485	0.137558
648.964250	0.137770
649.169996	0.137814
649.375724	0.137842
649.581434	0.138161
649.787126	0.138415
649.992800	0.138693
650.198455	0.139042
650.404092	0.139044
650.609711	0.138942
650.815311	0.138919
651.020894	0.138772
651.226458	0.138898
651.432004	0.138778
651.637532	0.138774
651.843041	0.138816
652.048532	0.138745
652.254006	0.138772
652.459460	0.139010
652.664897	0.139151
652.870315	0.139321
653.075716	0.139205
653.281097	0.139260
653.486461	0.139157
653.691807	0.139377
653.897134	0.139320
654.102443	0.139499
654.307734	0.139461
654.513006	0.139614
654.718261	0.139826
654.923497	0.140214
655.128715	0.140174
655.333915	0.140478
655.539096	0.140304
655.744259	0.140575
655.949404	0.140645
656.154531	0.140858
656.359640	0.140800
656.564730	0.140524
656.769802	0.140352
656.974856	0.140637
657.179892	0.140352
657.384909	0.140486
657.589908	0.140507
657.794889	0.140420
657.999852	0.140676
658.204797	0.140862
658.409723	0.141192
658.614631	0.141575
658.819521	0.141554
659.024393	0.141983
659.229246	0.142249
659.434081	0.142447
659.638898	0.142739
659.843697	0.142399
660.048478	0.142714
660.253240	0.142828
660.457984	0.142998
660.662710	0.143382
660.867417	0.143408
661.072107	0.143246
661.276778	0.143153
661.481431	0.143161
661.686066	0.143697
661.890682	0.143753
662.095281	0.143938
662.299861	0.143746
662.504422	0.143809
662.708966	0.144039
662.913491	0.144030
663.117999	0.144343
663.322488	0.144780
663.526958	0.144966
663.731411	0.145064
663.935845	0.144776
664.140261	0.145017
664.344659	0.144920
664.549038	0.145078
664.753400	0.145216
664.957743	0.145209
665.162068	0.144989
665.366375	0.144853
665.570663	0.144753
665.774933	0.145232
665.979185	0.145191
666.183419	0.145461
666.387635	0.145413
666.591832	0.145719
666.796011	0.145820
667.000172	0.145883
667.204315	0.145920
667.408439	0.146219
667.612545	0.146037
667.816634	0.146045
668.020703	0.146174
668.224755	0.146337
668.428788	0.146413
668.632803	0.146513
668.836800	0.146533
669.040779	0.146877
669.244739	0.146896
669.448681	0.147281
669.652605	0.147372
669.856511	0.147358
670.060399	0.147384
670.264268	0.147717
670.468119	0.147506
670.671952	0.147925
670.875767	0.147897
671.079563	0.148231
671.283341	0.148437
671.487101	0.148700
671.690843	0.148910
671.894567	0.148974
672.098272	0.148949
672.301959	0.149498
672.505628	0.149368
672.709278	0.149666
672.912911	0.149728
673.116525	0.149518
673.320121	0.149971
673.523699	0.150157
673.727258	0.150267
673.930799	0.150360
674.134322	0.150417
674.337827	0.150718
674.541314	0.150542
674.744782	0.150533
674.948232	0.150823
675.151664	0.150709
675.355078	0.150738
675.558474	0.150795
675.761851	0.150716
675.965210	0.150951
676.168551	0.150919
676.371873	0.151132
676.575178	0.151366
676.778464	0.151420
676.981732	0.151493
677.184981	0.151431
677.388213	0.151771
677.591426	0.152010
677.794621	0.151967
677.997798	0.151974
678.200956	0.152143
678.404097	0.152137
678.607219	0.152143
678.810323	0.152239
679.013408	0.152129
679.216476	0.151972
679.419525	0.151832
679.622556	0.151928
679.825569	0.152065
680.028563	0.151856
680.231540	0.152298
680.434498	0.152607
680.637438	0.152551
680.840359	0.153014
681.043263	0.153345
681.246148	0.153789
681.449015	0.153777
681.651864	0.153994
681.854694	0.154540
682.057506	0.154535
682.260301	0.154735
682.463076	0.155056
682.665834	0.155112
682.868573	0.155069
683.071295	0.155322
683.273998	0.155366
683.476682	0.155496
683.679349	0.155573
683.881997	0.155441
684.084627	0.155222
684.287239	0.155085
684.489833	0.155323
684.692408	0.155413
684.894965	0.155362
685.097504	0.155546
685.300025	0.155689
685.502527	0.155651
685.705012	0.155633
685.907478	0.156028
686.109925	0.156253
686.312355	0.156410
686.514766	0.156618
686.717159	0.156604
686.919534	0.156839
687.121891	0.156891
687.324230	0.156927
687.526550	0.157191
687.728852	0.157144
687.931136	0.157464
688.133401	0.157300
688.335649	0.157213
688.537878	0.157165
688.740089	0.157305
688.942281	0.157338
689.144456	0.157496
689.346612	0.157314
689.548750	0.157596
689.750870	0.157451
689.952971	0.157805
690.155055	0.157899
690.357120	0.158149
690.559167	0.158289
690.761195	0.158383
690.963206	0.158595
691.165198	0.158939
691.367172	0.158825
691.569128	0.158813
691.771065	0.158776
691.972984	0.159009
692.174885	0.159225
692.376768	0.159098
692.578633	0.159411
692.780479	0.159488
692.982308	0.159565
693.184118	0.159626
693.385909	0.159655
693.587683	0.159802
693.789438	0.159779
693.991175	0.159730
694.192894	0.159908
694.394595	0.159851
694.596277	0.159862
694.797941	0.159827
694.999587	0.159827
695.201215	0.160057
695.402824	0.159871
695.604416	0.160085
695.805989	0.160157
696.007543	0.160228
696.209080	0.160095
696.410598	0.160110
696.612099	0.160348
696.813580	0.160659
697.015044	0.160866
697.216490	0.161148
697.417917	0.161206
697.619326	0.161251
697.820717	0.161484
698.022089	0.161905
698.223444	0.162052
698.424780	0.162228
698.626098	0.162400
698.827397	0.162429
699.028679	0.162402
699.229942	0.162596
699.431187	0.162724
699.632414	0.162787
699.833622	0.162572
700.034813	0.162440
700.235985	0.162307
700.437139	0.162185
700.638274	0.162218
700.839392	0.162518
701.040491	0.162543
701.241572	0.162547
701.442635	0.162349
701.643679	0.162469
701.844706	0.162665
702.045714	0.163044
702.246704	0.163162
702.447675	0.163137
702.648629	0.163085
702.849564	0.163128
703.050481	0.163206
703.251380	0.163221
703.452260	0.163199
703.653122	0.163221
703.853966	0.162928
704.054792	0.162757
704.255600	0.162643
704.456389	0.162848
704.657160	0.162695
704.857913	0.162779
705.058648	0.162928
705.259365	0.163055
705.460063	0.163012
705.660743	0.162784
705.861405	0.162734
706.062048	0.162912
706.262674	0.162746
706.463281	0.162686
706.663870	0.162439
706.864441	0.162474
707.064993	0.162431
707.265527	0.162480
707.466043	0.162762
707.666541	0.162663
707.867021	0.162901
708.067482	0.162760
708.267925	0.162996
708.468350	0.163064
708.668757	0.162960
708.869145	0.162978
709.069516	0.162971
709.269868	0.162790
709.470201	0.163038
709.670517	0.162888
709.870814	0.162742
710.071093	0.162553
710.271354	0.162576
710.471597	0.162526
710.671821	0.162593
710.872028	0.162472
711.072216	0.162881
711.272385	0.162827
711.472537	0.162818
711.672670	0.163111
711.872785	0.163326
712.072882	0.163130
712.272961	0.163103
712.473021	0.162951
712.673063	0.163171
712.873087	0.163024
713.073093	0.162991
713.273081	0.162880
713.473050	0.162587
713.673001	0.162508
713.872934	0.162668
714.072849	0.162716
714.272745	0.162920
714.472623	0.162499
714.672483	0.162462
714.872325	0.162377
715.072148	0.162405
715.271954	0.162385
715.471741	0.162215
715.671509	0.161995
715.871260	0.161863
716.070992	0.161595
716.270707	0.161655
716.470403	0.161517
716.670080	0.161420
716.869740	0.161263
717.069381	0.161276
717.269004	0.161557
717.468609	0.161744
717.668195	0.161771
717.867764	0.161806
718.067314	0.162071
718.266846	0.162175
718.466360	0.162243
718.665855	0.162346
718.865332	0.162287
719.064791	0.161719
719.264232	0.161681
719.463655	0.161675
719.663059	0.161598
719.862445	0.161374
720.061813	0.161172
720.261163	0.160997
720.460494	0.160691
720.659807	0.160725
720.859102	0.160718
721.058379	0.160576
721.257638	0.160270
721.456878	0.160127
721.656100	0.160056
721.855304	0.160260
722.054490	0.160408
722.253657	0.160413
722.452806	0.160426
722.651937	0.160560
722.851050	0.160460
723.050145	0.160488
723.249221	0.160313
723.448279	0.160484
723.647319	0.160314
723.846340	0.160201
724.045344	0.160003
724.244329	0.159615
724.443296	0.159541
724.642245	0.159551
724.841175	0.159530
725.040088	0.159454
725.238982	0.158928
725.437857	0.158513
725.636715	0.158233
725.835554	0.158260
726.034376	0.158224
726.233179	0.157837
726.431963	0.157797
726.630730	0.157818
726.829478	0.157867
727.028208	0.157977
727.226920	0.157903
727.425614	0.157890
727.624289	0.157828
727.822946	0.157765
728.021585	0.157983
728.220206	0.157945
728.418808	0.157682
728.617392	0.157602
728.815958	0.157472
729.014506	0.157499
729.213036	0.157273
729.411547	0.157203
729.610040	0.157142
729.808515	0.157008
730.006972	0.156921
730.205410	0.156815
730.403831	0.156918
730.602233	0.156864
730.800616	0.156686
730.998982	0.156932
731.197329	0.156970
731.395658	0.156724
731.593969	0.156494
731.792262	0.156320
731.990536	0.156261
732.188793	0.155876
732.387031	0.155824
732.585250	0.155546
732.783452	0.155077
732.981635	0.154556
733.179800	0.154722
733.377947	0.154696
733.576076	0.154514
733.774186	0.154570
733.972278	0.154387
734.170352	0.154219
734.368408	0.154263
734.566446	0.154350
734.764465	0.154561
734.962466	0.154446
735.160449	0.154308
735.358413	0.154221
735.556360	0.153742
735.754288	0.153702
735.952198	0.153789
736.150090	0.153871
736.347963	0.153846
736.545818	0.153572
736.743655	0.153417
736.941474	0.153204
737.139275	0.153033
737.337057	0.153180
737.534821	0.153108
737.732567	0.152742
737.930295	0.152557
738.128005	0.152262
738.325696	0.152247
738.523369	0.151923
738.721024	0.151796
738.918660	0.151729
739.116279	0.151583
739.313879	0.151408
739.511461	0.151165
739.709024	0.150875
739.906570	0.150906
740.104097	0.150875
740.301606	0.150847
740.499097	0.150944
740.696569	0.150878
740.894024	0.150861
741.091460	0.150661
741.288878	0.150730
741.486277	0.150783
741.683659	0.150489
741.881022	0.150395
742.078367	0.150381
742.275694	0.150192
742.473002	0.150063
742.670293	0.149770
742.867565	0.149623
743.064819	0.149681
743.262054	0.149410
743.459272	0.149439
743.656471	0.149258
743.853652	0.148966
744.050815	0.148818
744.247959	0.148536
744.445085	0.148557
744.642194	0.148644
744.839283	0.148306
745.036355	0.148414
745.233408	0.148327
745.430444	0.148229
745.627461	0.148469
745.824459	0.148306
746.021440	0.148478
746.218402	0.148167
746.415346	0.148306
746.612272	0.148143
746.809180	0.147989
747.006069	0.147946
747.202940	0.147475
747.399793	0.147125
747.596628	0.146827
747.793444	0.146831
747.990243	0.146798
748.187023	0.146348
748.383784	0.146308
748.580528	0.146163
748.777253	0.145998
748.973960	0.146342
749.170649	0.146262
749.367320	0.146546
749.563973	0.146141
749.760607	0.146103
749.957223	0.146264
750.153821	0.146246
750.350400	0.146005
750.546962	0.146080
750.743505	0.145875
750.940030	0.145836
751.136536	0.145960
751.333025	0.146302
751.529495	0.146236
751.725947	0.146094
751.922381	0.145996
752.118796	0.146016
752.315194	0.145780
752.511573	0.145894
752.707934	0.145873
752.904276	0.145455
753.100601	0.144954
753.296907	0.144926
753.493195	0.144704
753.689465	0.144686
753.885716	0.144459
754.081949	0.144252
754.278164	0.143689
754.474361	0.143804
754.670540	0.143829
754.866700	0.143649
755.062843	0.143601
755.258967	0.143426
755.455072	0.143363
755.651160	0.143343
755.847229	0.143281
756.043280	0.143874
756.239313	0.143664
756.435328	0.143462
756.631324	0.143624
756.827302	0.143443
757.023262	0.143646
757.219204	0.143438
757.415127	0.143610
757.611033	0.143800
757.806920	0.143491
758.002788	0.143030
758.198639	0.142919
758.394471	0.142772
758.590286	0.142823
758.786081	0.142553
758.981859	0.142599
759.177619	0.142177
759.373360	0.142174
759.569083	0.142204
759.764788	0.142643
759.960474	0.142748
760.156143	0.142682
760.351793	0.142487
760.547425	0.142585
760.743038	0.142451
760.938634	0.142482
761.134211	0.142157
761.329770	0.141917
761.525311	0.141740
761.720833	0.141554
761.916338	0.141573
762.111824	0.141507
762.307292	0.141556
762.502741	0.141662
762.698173	0.141649
762.893586	0.141557
763.088981	0.141438
763.284358	0.141500
763.479716	0.141832
763.675057	0.141680
763.870379	0.141613
764.065683	0.141255
764.260968	0.141046
764.456236	0.141057
764.651485	0.140881
764.846716	0.140928
765.041929	0.140650
765.237123	0.140423
765.432299	0.140483
765.627457	0.140440
765.822597	0.140711
766.017719	0.140547
766.212822	0.140684
766.407907	0.140815
766.602974	0.140973
766.798023	0.140926
766.993054	0.140541
767.188066	0.140394
767.383060	0.140363
767.578036	0.140253
767.772993	0.140083
767.967933	0.139873
768.162854	0.139912
768.357757	0.139741
768.552642	0.139810
768.747508	0.140136
768.942356	0.140127
769.137186	0.139913
769.331998	0.139732
769.526792	0.139982
769.721567	0.139999
769.916324	0.139841
770.111063	0.139670
770.305784	0.139479
770.500486	0.139251
770.695171	0.139337
770.889837	0.139596
771.084484	0.139491
771.279114	0.139518
771.473725	0.139344
771.668318	0.139335
771.862893	0.139170
772.057450	0.138902
772.251988	0.138835
772.446509	0.138835
772.641011	0.138540
772.835494	0.138526
773.029960	0.138578
773.224407	0.138497
773.418836	0.138618
773.613247	0.138623
773.807640	0.138853
774.002014	0.139002
774.196370	0.138919
774.390708	0.139158
774.585028	0.139318
774.779330	0.139228
774.973613	0.139154
775.167878	0.139001
775.362125	0.138889
775.556354	0.139013
775.750564	0.139041
775.944756	0.138818
776.138930	0.138654
776.333086	0.138544
776.527223	0.138140
776.721343	0.138383
776.915444	0.138382
777.109526	0.138574
777.303591	0.138402
777.497637	0.138284
777.691666	0.138166
777.885676	0.138186
778.079667	0.137987
778.273641	0.137957
778.467596	0.137805
778.661533	0.137574
778.855452	0.137328
779.049352	0.137704
779.243235	0.137603
779.437099	0.137820
779.630945	0.138134
779.824773	0.138494
780.018582	0.138784
780.212373	0.138930
780.406146	0.139519
780.599901	0.139893
780.793638	0.139591
780.987356	0.139855
781.181056	0.140222
781.374738	0.140137
781.568402	0.140006
781.762047	0.140014
781.955674	0.139849
782.149283	0.139761
782.342874	0.139569
782.536447	0.139638
782.730001	0.139625
782.923537	0.139457
783.117055	0.139352
783.310555	0.139452
783.504036	0.139745
783.697499	0.140120
783.890944	0.139881
784.084371	0.140012
784.277780	0.139958
784.471170	0.139778
784.664542	0.139646
784.857896	0.139714
785.051231	0.139887
785.244549	0.139810
785.437848	0.139507
785.631129	0.139745
785.824392	0.139650
786.017636	0.139726
786.210863	0.139977
786.404071	0.140145
786.597260	0.140171
786.790432	0.139961
786.983585	0.139978
787.176721	0.140121
787.369838	0.139931
787.562936	0.139985
787.756017	0.139914
787.949079	0.139803
788.142123	0.139639
788.335149	0.139659
788.528156	0.139922
788.721146	0.139903
788.914117	0.139999
789.107070	0.140092
789.300005	0.140287
789.492921	0.140530
789.685819	0.140938
789.878699	0.141273
790.071561	0.141423
790.264405	0.141439
790.457230	0.141645
790.650037	0.141671
790.842826	0.141801
791.035597	0.141935
791.228349	0.141752
791.421084	0.141405
791.613800	0.141306
791.806497	0.141171
791.999177	0.141042
792.191838	0.140852
792.384481	0.140796
792.577106	0.140763
792.769713	0.140603
792.962301	0.140892
793.154871	0.140853
793.347423	0.140675
793.539957	0.140830
793.732473	0.140963
793.924970	0.141035
794.117449	0.141248
794.309910	0.141372
794.502353	0.141422
794.694777	0.141162
794.887183	0.141355
795.079571	0.141669
795.271941	0.141622
795.464293	0.141695
795.656626	0.141892
795.848941	0.142128
796.041238	0.142401
796.233516	0.142691
796.425777	0.143275
796.618019	0.143530
796.810243	0.143596
797.002449	0.143830
797.194636	0.144110
797.386805	0.144167
797.578956	0.144170
797.771089	0.143902
797.963204	0.143911
798.155300	0.143802
798.347378	0.143964
798.539438	0.144073
798.731480	0.144142
798.923503	0.144279
799.115509	0.144280
799.307496	0.144428
799.499465	0.144731
799.691415	0.145054
799.883348	0.145049
800.075262	0.145193
800.267158	0.145546
800.459035	0.145721
800.650895	0.145477
800.842736	0.145875
801.034559	0.145772
801.226364	0.145977
801.418150	0.145880
801.609919	0.146189
801.801669	0.146138
801.993401	0.146084
802.185114	0.146168
802.376810	0.146439
802.568487	0.146389
802.760146	0.146662
802.951787	0.146928
803.143409	0.146995
803.335014	0.147241
803.526600	0.147582
803.718168	0.147795
803.909717	0.148174
804.101249	0.148293
804.292762	0.148679
804.484257	0.148751
804.675734	0.148442
804.867192	0.148639
805.058632	0.148547
805.250054	0.148428
805.441458	0.148457
805.632844	0.148601
805.824211	0.148778
806.015561	0.148489
806.206891	0.148808
806.398204	0.149183
806.589499	0.149644
806.780775	0.149820
806.972033	0.150045
807.163273	0.150260
807.354495	0.150361
807.545698	0.150620
807.736883	0.150704
807.928050	0.150806
808.119199	0.150893
808.310329	0.150838
808.501441	0.151158
808.692535	0.151484
808.883611	0.151571
809.074669	0.151691
809.265708	0.151758
809.456729	0.151884
809.647732	0.151944
809.838717	0.151872
810.029683	0.152011
810.220632	0.151891
810.411562	0.151951
810.602474	0.151991
810.793367	0.151999
810.984242	0.152125
811.175100	0.152777
811.365938	0.152794
811.556759	0.153447
811.747562	0.153675
811.938346	0.154115
812.129112	0.154185
812.319860	0.154374
812.510589	0.154430
812.701300	0.154676
812.891994	0.154661
813.082668	0.155065
813.273325	0.155212
813.463964	0.155061
813.654584	0.155202
813.845186	0.155598
814.035769	0.155827
814.226335	0.156287
814.416882	0.156284
814.607411	0.156448
814.797922	0.157001
814.988415	0.157120
815.178889	0.157487
815.369345	0.157651
815.559783	0.157437
815.750203	0.157464
815.940605	0.157351
816.130988	0.157848
816.321353	0.157805
816.511700	0.157598
816.702028	0.157508
816.892339	0.157795
817.082631	0.158092
817.272905	0.158535
817.463161	0.158615
817.653398	0.158967
817.843617	0.158875
818.033819	0.159199
818.224001	0.159123
818.414166	0.159612
818.604312	0.159505
818.794440	0.159405
818.984550	0.159369
819.174642	0.159771
819.364716	0.159807
819.554771	0.160105
819.744808	0.160393
819.934827	0.160639
820.124827	0.160840
820.314810	0.161006
820.504774	0.161415
820.694720	0.161824
820.884647	0.162176
821.074557	0.162465
821.264448	0.162542
821.454321	0.162599
821.644176	0.162783
821.834012	0.162784
822.023831	0.163112
822.213631	0.163084
822.403413	0.163293
822.593176	0.163506
822.782922	0.163801
822.972649	0.164137
823.162358	0.164374
823.352049	0.164972
823.541721	0.165062
823.731376	0.165178
823.921012	0.165253
824.110629	0.165053
824.300229	0.165055
824.489811	0.165135
824.679374	0.165276
824.868919	0.165422
825.058445	0.165060
825.247954	0.165097
825.437444	0.165490
825.626916	0.165749
825.816370	0.165987
826.005806	0.166024
826.195223	0.166119
826.384622	0.166301
826.574003	0.166471
826.763366	0.166596
826.952711	0.167093
827.142037	0.167241
827.331345	0.167434
827.520635	0.167827
827.709906	0.168076
827.899160	0.168395
828.088395	0.168300
828.277612	0.168521
828.466810	0.168943
828.655991	0.169292
828.845153	0.169104
829.034297	0.169235
829.223423	0.169433
829.412531	0.169606
829.601620	0.169716
829.790691	0.170038
829.979744	0.170421
830.168779	0.170918
830.357795	0.170770
830.546793	0.171128
830.735773	0.171485
830.924735	0.171805
831.113679	0.172302
831.302604	0.172473
831.491511	0.172385
831.680400	0.172634
831.869271	0.172844
832.058123	0.173329
832.246957	0.173904
832.435773	0.174242
832.624571	0.174347
832.813351	0.174417
833.002112	0.174620
833.190855	0.175229
833.379580	0.175398
833.568287	0.175332
833.756975	0.175455
833.945645	0.175910
834.134297	0.176298
834.322931	0.176652
834.511547	0.177093
834.700144	0.177283
834.888723	0.177381
835.077284	0.177681
835.265826	0.178097
835.454351	0.178101
835.642857	0.178172
835.831345	0.178344
836.019815	0.178429
836.208266	0.178562
836.396699	0.178835
836.585114	0.179155
836.773511	0.179270
836.961890	0.179645
837.150250	0.180120
837.338592	0.179719
837.526916	0.179850
837.715222	0.180202
837.903510	0.180421
838.091779	0.180855
838.280030	0.181260
838.468263	0.181375
838.656477	0.181513
838.844674	0.182087
839.032852	0.182720
839.221012	0.183105
839.409153	0.183206
839.597277	0.182997
839.785382	0.183226
839.973469	0.183268
840.161538	0.183945
840.349589	0.184018
840.537621	0.183823
840.725635	0.184257
840.913631	0.184745
841.101609	0.185058
841.289568	0.185666
841.477509	0.185629
841.665432	0.186264
841.853337	0.186350
842.041224	0.186753
842.229092	0.187048
842.416942	0.187210
842.604774	0.186856
842.792588	0.187161
842.980383	0.187554
843.168160	0.188297
843.355919	0.188441
843.543660	0.188480
843.731382	0.188766
843.919087	0.188976
844.106773	0.189389
844.294441	0.189670
844.482090	0.189739
844.669722	0.189818
844.857335	0.190258
845.044930	0.190614
845.232507	0.190844
845.420065	0.191240
845.607605	0.191726
845.795127	0.191999
845.982631	0.192309
846.170117	0.192821
846.357584	0.193495
846.545033	0.193574
846.732464	0.193810
846.919877	0.194422
847.107272	0.194670
847.294648	0.194702
847.482006	0.194761
847.669346	0.195379
847.856667	0.195651
848.043971	0.195730
848.231256	0.196039
848.418523	0.196415
848.605771	0.196365
848.793002	0.196543
848.980214	0.196853
849.167408	0.197476
849.354584	0.197434
849.541742	0.197672
849.728881	0.198097
849.916002	0.198063
850.103105	0.198007
850.290190	0.198422
850.477256	0.198749
850.664304	0.198907
850.851334	0.198692
851.038346	0.199026
851.225340	0.199295
851.412315	0.199393
851.599272	0.199623
851.786211	0.200135
851.973132	0.200332
852.160034	0.200619
852.346918	0.200768
852.533784	0.201293
852.720632	0.201644
852.907462	0.201545
853.094273	0.201742
853.281066	0.202295
853.467841	0.202316
853.654598	0.202418
853.841336	0.202460
854.028056	0.203083
854.214758	0.203449
854.401442	0.203493
854.588107	0.203661
854.774755	0.203717
854.961384	0.203513
855.147995	0.203599
855.334587	0.204150
855.521162	0.204496
855.707718	0.204484
855.894256	0.204540
856.080775	0.205043
856.267277	0.205663
856.453760	0.205968
856.640225	0.206510
856.826672	0.206688
857.013101	0.206937
857.199511	0.207327
857.385903	0.207705
857.572277	0.207682
857.758633	0.207956
857.944970	0.208017
858.131290	0.208159
858.317591	0.208389
858.503873	0.209128
858.690138	0.209294
858.876384	0.209299
859.062612	0.209443
859.248822	0.209933
859.435014	0.209979
859.621188	0.210377
859.807343	0.210699
859.993480	0.210932
860.179599	0.210859
860.365699	0.211106
860.551781	0.211499
860.737846	0.212028
860.923891	0.212351
861.109919	0.212441
861.295929	0.212547
861.481920	0.213036
861.667893	0.213228
861.853848	0.213637
862.039784	0.214072
862.225702	0.214269
862.411603	0.213986
862.597484	0.213824
862.783348	0.214047
862.969193	0.214418
863.155021	0.214478
863.340830	0.214731
863.526620	0.215363
863.712393	0.215324
863.898147	0.215270
864.083883	0.215934
864.269601	0.216596
864.455301	0.216978
864.640982	0.217219
864.826645	0.217580
865.012290	0.217990
865.197917	0.218044
865.383526	0.218509
865.569116	0.218907
865.754688	0.219238
865.940242	0.219411
866.125777	0.219845
866.311295	0.220305
866.496794	0.220486
866.682275	0.220499
866.867737	0.220152
867.053182	0.220354
867.238608	0.220584
867.424016	0.220801
867.609406	0.221067
867.794778	0.220939
867.980131	0.221425
868.165466	0.221662
868.350783	0.221912
868.536082	0.222750
868.721362	0.223021
868.906625	0.223299
869.091869	0.223478
869.277094	0.223308
869.462302	0.224086
869.647491	0.223464
869.832662	0.223643
870.017815	0.223800
870.202950	0.223494
870.388066	0.223097
870.573165	0.223477
870.758245	0.223528
870.943306	0.224100
871.128350	0.223719
871.313375	0.224329
871.498382	0.224813
871.683371	0.225227
871.868342	0.225646
872.053294	0.226619
872.238229	0.226459
872.423144	0.226554
872.608042	0.226914
872.792922	0.227464
872.977783	0.227702
873.162626	0.227900
873.347451	0.227831
873.532258	0.228259
873.717046	0.228218
873.901816	0.228776
874.086568	0.228827
874.271302	0.228588
874.456017	0.228805
874.640715	0.228585
874.825394	0.228353
875.010055	0.228767
875.194697	0.228565
875.379322	0.228470
875.563928	0.228512
875.748516	0.228868
875.933085	0.229077
876.117637	0.229479
876.302170	0.230234
876.486685	0.230960
876.671182	0.231118
876.855661	0.231509
877.040121	0.232043
877.224563	0.232383
877.408987	0.232760
877.593393	0.233014
877.777780	0.232512
877.962150	0.232326
878.146501	0.231644
878.330833	0.231491
878.515148	0.231516
878.699444	0.231246
878.883722	0.230739
879.067982	0.230802
879.252224	0.231043
879.436447	0.231380
879.620653	0.231230
879.804840	0.231904
879.989008	0.232038
880.173159	0.232321
880.357291	0.232283
880.541405	0.232895
880.725501	0.233276
880.909579	0.233275
881.093638	0.233296
881.277680	0.233744
881.461703	0.233434
881.645707	0.233295
881.829694	0.233039
882.013662	0.233239
882.197612	0.233152
882.381544	0.233183
882.565458	0.233288
882.749353	0.233508
882.933230	0.233261
883.117089	0.233388
883.300930	0.233920
883.484753	0.234549
883.668557	0.234932
883.852343	0.235094
884.036111	0.234671
884.219861	0.234659
884.403592	0.234782
884.587305	0.235351
884.771000	0.235898
884.954677	0.236173
885.138335	0.235795
885.321976	0.235694
885.505598	0.235795
885.689201	0.236028
885.872787	0.235951
886.056354	0.236186
886.239904	0.236476
886.423434	0.236038
886.606947	0.236063
886.790442	0.236020
886.973918	0.236138
887.157376	0.235742
887.340816	0.235371
887.524237	0.235707
887.707641	0.235305
887.891026	0.234835
888.074393	0.234911
888.257741	0.234730
888.441072	0.235174
888.624384	0.235211
888.807678	0.235431
888.990954	0.235833
889.174211	0.235736
889.357451	0.235534
889.540672	0.235405
889.723875	0.235640
889.907059	0.235666
890.090226	0.235303
890.273374	0.235325
890.456504	0.235789
890.639616	0.235880
890.822709	0.235714
891.005785	0.235993
891.188842	0.236339
891.371881	0.236061
891.554901	0.235718
891.737904	0.235784
891.920888	0.235839
892.103854	0.235101
892.286802	0.235049
892.469731	0.235552
892.652643	0.235791
892.835536	0.235582
893.018410	0.235694
893.201267	0.235928
893.384106	0.236103
893.566926	0.236080
893.749728	0.236681
893.932511	0.237117
894.115277	0.236361
894.298024	0.236729
894.480753	0.236870
894.663464	0.236750
894.846157	0.236969
895.028831	0.236653
895.211487	0.236204
895.394125	0.236263
895.576745	0.235899
895.759346	0.236399
895.941930	0.236096
896.124495	0.235982
896.307041	0.236404
896.489570	0.235916
896.672080	0.236206
896.854573	0.236409
897.037046	0.236316
897.219502	0.236620
897.401940	0.236228
897.584359	0.235587
897.766760	0.235298
897.949143	0.235039
898.131507	0.234971
898.313854	0.234437
898.496182	0.234361
898.678492	0.233970
898.860783	0.233560
899.043057	0.233801
899.225312	0.233939
899.407549	0.234091
899.589768	0.234094
899.771968	0.234005
899.954151	0.234304
900.136315	0.234055
900.318461	0.234030
900.500588	0.233730
900.682698	0.233868
900.864789	0.233862
901.046862	0.233664
901.228917	0.233259
901.410953	0.233602
901.592971	0.233360
901.774972	0.233163
901.956953	0.233176
902.138917	0.233192
902.320862	0.232524
902.502790	0.232492
902.684699	0.232341
902.866589	0.232579
903.048462	0.232147
903.230316	0.232192
903.412152	0.232540
903.593970	0.232490
903.775770	0.232409
903.957551	0.232069
904.139314	0.231729
904.321059	0.231276
904.502786	0.230869
904.684494	0.230653
904.866185	0.230311
905.047857	0.229503
905.229510	0.228489
905.411146	0.227953
905.592763	0.227896
905.774363	0.227263
905.955943	0.227680
906.137506	0.227512
906.319051	0.226704
906.500577	0.226549
906.682085	0.226718
906.863575	0.226749
907.045046	0.226561
907.226500	0.226099
907.407935	0.225941
907.589352	0.225619
907.770750	0.225117
907.952131	0.225637
908.133493	0.225097
908.314837	0.225025
908.496163	0.224801
908.677470	0.224561
908.858760	0.224866
909.040031	0.225216
909.221284	0.224869
909.402518	0.224807
909.583735	0.224191
909.764933	0.224264
909.946113	0.223539
910.127275	0.223332
910.308418	0.223184
910.489544	0.223008
910.670651	0.222105
910.851740	0.221659
911.032810	0.221368
911.213863	0.221465
911.394897	0.220661
911.575913	0.220728
911.756911	0.220719
911.937890	0.220535
912.118851	0.219930
912.299794	0.220258
912.480719	0.220005
912.661626	0.219576
912.842514	0.219727
913.023384	0.219364
913.204236	0.218970
913.385070	0.218636
913.565886	0.218453
913.746683	0.218096
913.927462	0.217722
914.108223	0.217536
914.288965	0.216802
914.469690	0.215575
914.650396	0.216064
914.831084	0.215846
915.011754	0.215493
915.192405	0.215068
915.373038	0.214966
915.553653	0.214162
915.734250	0.213630
915.914829	0.213564
916.095389	0.213714
916.275931	0.212580
916.456455	0.212462
916.636961	0.211645
916.817448	0.211059
916.997917	0.210424
917.178368	0.209996
917.358801	0.209299
917.539216	0.209206
917.719612	0.208289
917.899990	0.208048
918.080350	0.207385
918.260692	0.207667
918.441015	0.207363
918.621320	0.207152
918.801607	0.207372
918.981876	0.207021
919.162127	0.206369
919.342359	0.205839
919.522573	0.204859
919.702769	0.204191
919.882947	0.203421
920.063106	0.203166
920.243247	0.202494
920.423370	0.201187
920.603475	0.201447
920.783562	0.201307
920.963630	0.201440
921.143680	0.201711
921.323712	0.201433
921.503725	0.201024
921.683721	0.200334
921.863698	0.199896
922.043657	0.200320
922.223598	0.199701
922.403520	0.199048
922.583424	0.198243
922.763311	0.197986
922.943178	0.197432
923.123028	0.197032
923.302859	0.196316
923.482673	0.196026
923.662467	0.195175
923.842244	0.194189
924.022003	0.193415
924.201743	0.193374
924.381465	0.192637
924.561169	0.192096
924.740854	0.191506
924.920522	0.191022
925.100171	0.190450
925.279802	0.189781
925.459414	0.189353
925.639009	0.189660
925.818585	0.189187
925.998143	0.188772
926.177683	0.188195
926.357205	0.187345
926.536708	0.186942
926.716193	0.186307
926.895660	0.185387
927.075109	0.185131
927.254539	0.183680
927.433951	0.182680
927.613345	0.182557
927.792721	0.182269
927.972079	0.182353
928.151418	0.181319
928.330739	0.181386
928.510042	0.181730
928.689327	0.180809
928.868593	0.180760
929.047841	0.180053
929.227071	0.179180
929.406283	0.178141
929.585476	0.177489
929.764652	0.177569
929.943809	0.176800
930.122948	0.175755
930.302068	0.175437
930.481171	0.174897
930.660255	0.174148
930.839321	0.173198
931.018369	0.172574
931.197398	0.171549
931.376409	0.171901
931.555402	0.170431
931.734377	0.170083
931.913334	0.169298
932.092272	0.168995
932.271192	0.169909
932.450094	0.169712
932.628978	0.169681
932.807844	0.169724
932.986691	0.167547
933.165520	0.167112
933.344331	0.166295
933.523123	0.166153
933.701898	0.165528
933.880654	0.163334
934.059392	0.162366
934.238111	0.161979
934.416813	0.160519
934.595496	0.160607
934.774161	0.160280
934.952808	0.160690
935.131437	0.159836
935.310047	0.158818
935.488639	0.158922
935.667213	0.158327
935.845769	0.157911
936.024306	0.158494
936.202825	0.158153
936.381326	0.158113
936.559809	0.156098
936.738274	0.155421
936.916720	0.154272
937.095148	0.152848
937.273558	0.152331
937.451950	0.150956
937.630323	0.149354
937.808678	0.147798
937.987015	0.146615
938.165334	0.146823
938.343635	0.145964
938.521917	0.145720
938.700181	0.146621
938.878427	0.145980
939.056655	0.145590
939.234864	0.145237
939.413055	0.144685
939.591228	0.144260
939.769383	0.143323
939.947519	0.143576
940.125638	0.142458
940.303738	0.140489
940.481820	0.140557
940.659883	0.139094
940.837929	0.137789
941.015956	0.137766
941.193965	0.137157
941.371955	0.136527
941.549928	0.135983
941.727882	0.136347
941.905818	0.136388
942.083736	0.133653
942.261636	0.133814
942.439517	0.134014
942.617380	0.133161
942.795225	0.132413
942.973052	0.132267
943.150860	0.131274
943.328651	0.130211
943.506423	0.130100
943.684176	0.132738
943.861912	0.132582
944.039629	0.132346
944.217328	0.132978
944.395009	0.132484
944.572672	0.133067
944.750317	0.132075
944.927943	0.131401
945.105551	0.129541
945.283141	0.126560
945.460712	0.124643
945.638265	0.123584
945.815801	0.122255
945.993317	0.121038
946.170816	0.118342
946.348297	0.118003
946.525759	0.116796
946.703203	0.117203
946.880629	0.117078
947.058036	0.116852
947.235425	0.115608
947.412797	0.114367
947.590149	0.114748
947.767484	0.114399
947.944800	0.113733
948.122099	0.114433
948.299379	0.111653
948.476640	0.111256
948.653884	0.112502
948.831109	0.112910
949.008316	0.112811
949.185505	0.111620
949.362676	0.111990
949.539828	0.111711
949.716962	0.110339
949.894078	0.111062
950.071176	0.112024
950.248256	0.110582
950.425317	0.109625
950.602360	0.108611
950.779385	0.109472
950.956391	0.108123
951.133380	0.104487
951.310350	0.103478
951.487302	0.102716
951.664235	0.098909
951.841151	0.099015
952.018048	0.098205
952.194927	0.097893
952.371788	0.096258
952.548631	0.094960
952.725455	0.096157
952.902261	0.097081
953.079049	0.096633
953.255819	0.094419
953.432570	0.091910
953.609303	0.091674
953.786018	0.091754
953.962715	0.092926
954.139394	0.092776
954.316054	0.092999
954.492696	0.092645
954.669320	0.092050
954.845926	0.094535
955.022513	0.094667
955.199083	0.093435
955.375634	0.092592
955.552166	0.089526
955.728681	0.089255
955.905177	0.089234
956.081655	0.087385
956.258115	0.086542
956.434557	0.085799
956.610980	0.086893
956.787385	0.086528
956.963772	0.087608
957.140141	0.088926
957.316492	0.089805
957.492824	0.089491
957.669138	0.088967
957.845434	0.089676
958.021712	0.089626
958.197971	0.088186
958.374212	0.087914
958.550435	0.085766
958.726640	0.083193
958.902826	0.081267
959.078995	0.080681
959.255145	0.080914
959.431277	0.081993
959.607390	0.080654
959.783486	0.078612
959.959563	0.078455
960.135622	0.078540
960.311662	0.080136
960.487685	0.078909
960.663689	0.079412
960.839675	0.077953
961.015643	0.074820
961.191593	0.076078
961.367524	0.077975
961.543437	0.077501
961.719332	0.076276
961.895209	0.074748
962.071067	0.076088
962.246907	0.073659
962.422730	0.075897
962.598533	0.078313
962.774319	0.078009
962.950086	0.076976
963.125835	0.075811
963.301566	0.077090
963.477279	0.075946
963.652973	0.075225
963.828650	0.077578
964.004308	0.077330
964.179947	0.076505
964.355569	0.078403
964.531172	0.077965
964.706757	0.079440
964.882324	0.076584
965.057873	0.078141
965.233403	0.080522
965.408916	0.081055
965.584410	0.075395
965.759885	0.076466
965.935343	0.075974
966.110782	0.077556
966.286203	0.081178
966.461606	0.080982
966.636991	0.081141
966.812357	0.079591
966.987705	0.078754
967.163035	0.085305
967.338347	0.085613
967.513641	0.087650
967.688916	0.085816
967.864173	0.082899
968.039412	0.083580
968.214632	0.084920
968.389835	0.084726
968.565019	0.083557
968.740185	0.080148
968.915333	0.079099
969.090462	0.076895
969.265573	0.075863
969.440667	0.074717
969.615741	0.076378
969.790798	0.074496
969.965836	0.075009
970.140856	0.074324
970.315858	0.075169
970.490842	0.075971
970.665808	0.075849
970.840755	0.075918
971.015684	0.073142
971.190595	0.074280
971.365487	0.073408
971.540362	0.071526
971.715218	0.073445
971.890056	0.072293
972.064875	0.069082
972.239677	0.067951
972.414460	0.069315
972.589225	0.072189
972.763972	0.071189
972.938700	0.074404
973.113411	0.076019
973.288103	0.075069
973.462777	0.076666
973.637432	0.078499
973.812070	0.077690
973.986689	0.077289
974.161290	0.077326
974.335873	0.076916
974.510437	0.074703
974.684984	0.075009
974.859512	0.073390
975.034022	0.074873
975.208513	0.074605
975.382987	0.075448
975.557442	0.072422
975.731879	0.072669
975.906298	0.071564
976.080698	0.071501
976.255080	0.071382
976.429445	0.073983
976.603790	0.070969
976.778118	0.071209
976.952427	0.074462
977.126719	0.076718
977.300992	0.078620
977.475246	0.079092
977.649483	0.079881
977.823701	0.078149
977.997901	0.076747
978.172083	0.078125
978.346247	0.077484
978.520392	0.075001
978.694519	0.076714
978.868628	0.076041
979.042719	0.075949
979.216791	0.076030
979.390845	0.076929
979.564882	0.076197
979.738899	0.077734
979.912899	0.080343
980.086880	0.078880
980.260843	0.077219
980.434788	0.077461
980.608715	0.077623
980.782623	0.078590
980.956514	0.078745
981.130386	0.081011
981.304240	0.078697
981.478075	0.078293
981.651892	0.079222
981.825692	0.080487
981.999472	0.079149
982.173235	0.078665
982.346980	0.077742
982.520706	0.076377
982.694414	0.075903
982.868104	0.076484
983.041775	0.074877
983.215428	0.075555
983.389064	0.074774
983.562680	0.073874
983.736279	0.073499
983.909860	0.075557
984.083422	0.078892
984.256966	0.078323
984.430491	0.078056
984.603999	0.078706
984.777488	0.079854
984.950959	0.078508
985.124412	0.079191
985.297847	0.082896
985.471263	0.082239
985.644661	0.077257
985.818041	0.075847
985.991403	0.076983
986.164747	0.076112
986.338072	0.073964
986.511379	0.076777
986.684668	0.078130
986.857938	0.077450
987.031191	0.074390
987.204425	0.076923
987.377641	0.078775
987.550839	0.078758
987.724018	0.080028
987.897179	0.081328
988.070322	0.079922
988.243447	0.077658
988.416554	0.075707
988.589642	0.077412
988.762712	0.079118
988.935764	0.076349
989.108798	0.075829
989.281813	0.075548
989.454811	0.076209
989.627790	0.075674
989.800751	0.075473
989.973693	0.074969
990.146617	0.076536
990.319524	0.075301
990.492412	0.076318
990.665281	0.075163
990.838133	0.075973
991.010966	0.074661
991.183781	0.073681
991.356578	0.076351
991.529356	0.075260
991.702117	0.075474
991.874859	0.077428
992.047583	0.077908
992.220288	0.079888
992.392976	0.078350
992.565645	0.078019
992.738296	0.078720
992.910929	0.075834
993.083543	0.077655
993.256139	0.075170
993.428718	0.074004
993.601277	0.074496
993.773819	0.076302
993.946342	0.075371
994.118848	0.074629
994.291335	0.074293
994.463803	0.074827
994.636254	0.075446
994.808686	0.076062
994.981100	0.074367
995.153496	0.078386
995.325874	0.078242
995.498233	0.082435
995.670574	0.082658
995.842897	0.082819
996.015202	0.084488
996.187488	0.083678
996.359757	0.083026
996.532007	0.083856
996.704239	0.080912
996.876452	0.078522
997.048648	0.074840
997.220825	0.075518
997.392984	0.075729
997.565124	0.075993
997.737247	0.074258
997.909351	0.073856
998.081437	0.073256
998.253505	0.072718
998.425554	0.072948
998.597586	0.073565
998.769599	0.076272
998.941594	0.078158
999.113571	0.078095
999.285529	0.079078
999.457469	0.080041
999.629391	0.078065
999.801295	0.076003
999.973181	0.074572
1000.145048	0.076237
1000.316897	0.072941
1000.488728	0.072242
1000.660541	0.071450
1000.832335	0.070703
1001.004111	0.069871
1001.175869	0.073224
1001.347609	0.075408
1001.519331	0.075320
1001.691034	0.072995
1001.862719	0.073167
1002.034386	0.071994
1002.206035	0.072178
1002.377665	0.070816
1002.549277	0.073215
1002.720871	0.072213
1002.892447	0.073110
1003.064004	0.073215
1003.235544	0.076626
1003.407065	0.076569
1003.578568	0.076836
1003.750052	0.073943
1003.921519	0.076895
1004.092967	0.076718
1004.264397	0.076355
1004.435809	0.075105
1004.607202	0.076150
1004.778577	0.073689
1004.949934	0.072446
1005.121273	0.072487
1005.292594	0.076752
1005.463896	0.077907
1005.635180	0.076542
1005.806446	0.076168
1005.977694	0.076733
1006.148923	0.075035
1006.320135	0.074094
1006.491328	0.075149
1006.662503	0.075244
1006.833659	0.072163
1007.004798	0.072399
1007.175918	0.072323
1007.347020	0.071163
1007.518103	0.069121
1007.689169	0.069575
1007.860216	0.068520
1008.031245	0.069647
1008.202256	0.068613
1008.373248	0.070171
1008.544223	0.070298
1008.715179	0.071190
1008.886117	0.071271
1009.057036	0.071640
1009.227938	0.073371
1009.398821	0.074668
1009.569686	0.072157
1009.740533	0.075787
1009.911361	0.076719
1010.082172	0.076947
1010.252964	0.076574
1010.423738	0.076955
1010.594493	0.077093
1010.765231	0.075750
1010.935950	0.075522
1011.106651	0.076987
1011.277334	0.077093
1011.447998	0.075097
1011.618645	0.074080
1011.789273	0.073512
1011.959882	0.074939
1012.130474	0.076446
1012.301048	0.079342
1012.471603	0.079736
1012.642140	0.078865
1012.812658	0.075545
1012.983159	0.077848
1013.153641	0.077399
1013.324105	0.077645
1013.494551	0.079593
1013.664979	0.078475
1013.835388	0.077233
1014.005779	0.076266
1014.176152	0.075655
1014.346507	0.077648
1014.516843	0.076409
1014.687162	0.075073
1014.857462	0.073426
1015.027744	0.071106
1015.198007	0.071895
1015.368252	0.071569
1015.538480	0.071727
1015.708689	0.074984
1015.878879	0.070944
1016.049052	0.069960
1016.219206	0.069428
1016.389342	0.070163
1016.559460	0.069194
1016.729559	0.067440
1016.899641	0.067077
1017.069704	0.067494
1017.239749	0.067285
1017.409775	0.070587
1017.579784	0.070130
1017.749774	0.070747
1017.919746	0.071893
1018.089700	0.073058
1018.259635	0.073106
1018.429553	0.071868
1018.599452	0.074135
1018.769333	0.073398
1018.939195	0.072901
1019.109040	0.072592
1019.278866	0.070676
1019.448674	0.069322
1019.618464	0.068663
1019.788235	0.071598
1019.957989	0.075398
1020.127724	0.073013
1020.297441	0.072657
1020.467139	0.071236
1020.636820	0.072230
1020.806482	0.073682
1020.976126	0.074989
1021.145752	0.076093
1021.315359	0.074028
1021.484948	0.071363
1021.654519	0.071001
1021.824072	0.072518
1021.993607	0.074548
1022.163123	0.074734
1022.332621	0.074580
1022.502101	0.074496
1022.671563	0.072555
1022.841007	0.072437
1023.010432	0.072332
1023.179839	0.072837
1023.349228	0.071049
1023.518598	0.070581
1023.687951	0.070954
1023.857285	0.073322
1024.026601	0.072621
1024.195899	0.071292
1024.365178	0.072158
1024.534439	0.073322
1024.703682	0.072133
1024.872907	0.071580
1025.042114	0.072409
1025.211302	0.071734
1025.380472	0.071107
1025.549624	0.070187
1025.718758	0.073266
1025.887873	0.072549
1026.056970	0.071963
1026.226049	0.072955
1026.395110	0.073181
1026.564153	0.071767
1026.733177	0.071840
1026.902183	0.070481
1027.071171	0.070605
1027.240141	0.068352
1027.409092	0.068037
1027.578026	0.066390
1027.746940	0.067234
1027.915837	0.067135
1028.084716	0.066634
1028.253576	0.065738
1028.422418	0.065947
1028.591242	0.066349
1028.760048	0.066931
1028.928835	0.065947
1029.097604	0.065797
1029.266355	0.066188
1029.435088	0.065406
1029.603803	0.067291
1029.772499	0.069839
1029.941177	0.069657
1030.109837	0.072001
1030.278478	0.073957
1030.447102	0.074339
1030.615707	0.075354
1030.784294	0.075075
1030.952863	0.075816
1031.121413	0.075404
1031.289945	0.074022
1031.458460	0.076700
1031.626955	0.074339
1031.795433	0.073797
1031.963892	0.075467
1032.132334	0.074011
1032.300756	0.072490
1032.469161	0.073893
1032.637548	0.072641
1032.805916	0.072590
1032.974266	0.071549
1033.142598	0.071588
1033.310911	0.072514
1033.479207	0.072804
1033.647484	0.072921
1033.815743	0.076499
1033.983983	0.077428
1034.152206	0.078633
1034.320410	0.078001
1034.488596	0.077591
1034.656764	0.080495
1034.824914	0.079083
1034.993045	0.077832
1035.161158	0.079660
1035.329253	0.074944
1035.497330	0.073244
1035.665388	0.073446
1035.833428	0.074780
1036.001450	0.074107
1036.169454	0.073656
1036.337440	0.073059
1036.505407	0.072484
1036.673356	0.072167
1036.841287	0.075996
1037.009200	0.073313
1037.177094	0.073133
1037.344970	0.070857
1037.512828	0.071931
1037.680668	0.070625
1037.848489	0.071768
1038.016293	0.073687
1038.184078	0.074157
1038.351845	0.074675
1038.519593	0.078712
1038.687324	0.077294
1038.855036	0.079731
1039.022730	0.077937
1039.190406	0.077464
1039.358063	0.075957
1039.525702	0.075295
1039.693323	0.075970
1039.860926	0.072641
1040.028511	0.069149
1040.196077	0.070722
1040.363625	0.071776
1040.531155	0.073243
1040.698667	0.072199
1040.866161	0.073488
1041.033636	0.074880
1041.201093	0.072262
1041.368532	0.072218
1041.535952	0.074250
1041.703355	0.073795
1041.870739	0.072137
1042.038105	0.070297
1042.205452	0.072708
1042.372782	0.071362
1042.540093	0.069388
1042.707386	0.070920
1042.874661	0.071499
1043.041918	0.071522
1043.209156	0.069806
1043.376376	0.070066
1043.543578	0.070053
1043.710762	0.068457
1043.877927	0.071383
1044.045074	0.072769
1044.212203	0.070341
1044.379314	0.070350
1044.546407	0.070105
1044.713481	0.069700
1044.880537	0.067805
1045.047575	0.065924
1045.214595	0.066427
1045.381596	0.065347
1045.548579	0.062737
1045.715544	0.065166
1045.882491	0.065275
1046.049420	0.065116
1046.216330	0.069250
1046.383222	0.071587
1046.550096	0.075203
1046.716951	0.074298
1046.883789	0.073893
1047.050608	0.074981
1047.217409	0.074001
1047.384192	0.072748
1047.550956	0.074793
1047.717703	0.073339
1047.884431	0.073387
1048.051140	0.073526
1048.217832	0.074643
1048.384505	0.074175
1048.551161	0.075299
1048.717798	0.076906
1048.884416	0.077772
1049.051017	0.076331
1049.217599	0.076076
1049.384163	0.074015
1049.550709	0.073089
1049.717237	0.072168
1049.883746	0.073540
1050.050237	0.073239
1050.216710	0.072749
1050.383165	0.072676
1050.549601	0.072248
1050.716019	0.071775
1050.882420	0.076417
1051.048801	0.076937
1051.215165	0.077087
1051.381510	0.074404
1051.547837	0.075851
1051.714146	0.076135
1051.880437	0.078083
1052.046709	0.077070
1052.212964	0.077016
1052.379200	0.073885
1052.545417	0.071793
1052.711617	0.070439
1052.877798	0.072386
1053.043961	0.070421
1053.210106	0.069349
1053.376233	0.066965
1053.542341	0.069408
1053.708432	0.068006
1053.874504	0.066688
1054.040557	0.068148
1054.206593	0.070958
1054.372610	0.071435
1054.538609	0.071690
1054.704590	0.071235
1054.870553	0.074195
1055.036497	0.071561
1055.202424	0.072205
1055.368331	0.074520
1055.534221	0.076883
1055.700093	0.073300
1055.865946	0.072188
1056.031781	0.071894
1056.197598	0.071121
1056.363397	0.069747
1056.529177	0.068803
1056.694939	0.069454
1056.860683	0.068499
1057.026409	0.065787
1057.192116	0.069289
1057.357806	0.069121
1057.523477	0.067872
1057.689130	0.069414
1057.854764	0.070537
1058.020381	0.072848
1058.185979	0.073122
1058.351559	0.071906
1058.517120	0.072667
1058.682664	0.069722
1058.848189	0.069434
1059.013696	0.071650
1059.179185	0.072556
1059.344656	0.072804
1059.510108	0.074067
1059.675542	0.074701
1059.840958	0.077468
1060.006356	0.078652
1060.171735	0.082286
1060.337096	0.083170
1060.502439	0.083430
1060.667764	0.082088
1060.833071	0.083788
1060.998359	0.082544
1061.163629	0.082159
1061.328881	0.080146
1061.494115	0.078049
1061.659330	0.075714
1061.824527	0.075397
1061.989706	0.074889
1062.154867	0.073743
1062.320010	0.071674
1062.485134	0.073508
1062.650240	0.074129
1062.815328	0.073766
1062.980398	0.073809
1063.145449	0.075519
1063.310482	0.076154
1063.475497	0.074120
1063.640494	0.077385
1063.805473	0.076295
1063.970433	0.073565
1064.135375	0.074233
1064.300299	0.073311
1064.465204	0.075491
1064.630092	0.072705
1064.794961	0.071608
1064.959812	0.073315
1065.124645	0.071276
1065.289459	0.071860
1065.454256	0.074524
1065.619034	0.075035
1065.783793	0.075704
1065.948535	0.075620
1066.113258	0.076996
1066.277964	0.077528
1066.442651	0.076142
1066.607319	0.074885
1066.771970	0.075261
1066.936602	0.074175
1067.101216	0.071917
1067.265812	0.073517
1067.430389	0.072771
1067.594949	0.075237
1067.759490	0.077240
1067.924013	0.076531
1068.088518	0.077808
1068.253004	0.076659
1068.417472	0.076194
1068.581922	0.075064
1068.746354	0.076984
1068.910768	0.075682
1069.075163	0.072135
1069.239540	0.069158
1069.403899	0.070015
1069.568240	0.072718
1069.732562	0.071638
1069.896866	0.069726
1070.061152	0.069904
1070.225420	0.066243
1070.389670	0.065780
1070.553901	0.067745
1070.718114	0.067563
1070.882309	0.067690
1071.046486	0.066256
1071.210644	0.066985
1071.374784	0.069959
1071.538906	0.070496
1071.703010	0.071996
1071.867096	0.074021
1072.031163	0.075778
1072.195212	0.076971
1072.359243	0.076520
1072.523256	0.075226
1072.687250	0.076108
1072.851226	0.074348
1073.015184	0.075380
1073.179124	0.073021
1073.343045	0.075034
1073.506949	0.072514
1073.670834	0.072601
1073.834701	0.074907
1073.998549	0.074799
1074.162380	0.075258
1074.326192	0.078847
1074.489986	0.077414
1074.653761	0.078527
1074.817519	0.076764
1074.981258	0.074137
1075.144979	0.073713
1075.308682	0.073971
1075.472367	0.073094
1075.636033	0.072488
1075.799681	0.069817
1075.963311	0.070928
1076.126923	0.071497
1076.290516	0.073932
1076.454092	0.078723
1076.617649	0.081114
1076.781187	0.079501
1076.944708	0.080478
1077.108210	0.084087
1077.271695	0.080827
1077.435160	0.081614
1077.598608	0.079282
1077.762038	0.077107
1077.925449	0.074772
1078.088842	0.074297
1078.252217	0.076088
1078.415573	0.076034
1078.578912	0.070366
1078.742232	0.074544
1078.905534	0.073473
1079.068817	0.076252
1079.232083	0.079527
1079.395330	0.078370
1079.558559	0.077390
1079.721770	0.075161
1079.884962	0.076776
1080.048136	0.080089
1080.211293	0.078913
1080.374430	0.079463
1080.537550	0.078957
1080.700651	0.075849
1080.863735	0.079165
1081.026800	0.078586
1081.189846	0.080071
1081.352875	0.079525
1081.515885	0.079318
1081.678877	0.079777
1081.841851	0.077738
1082.004807	0.078994
1082.167744	0.080815
1082.330663	0.077733
1082.493564	0.076767
1082.656447	0.076386
1082.819312	0.076652
1082.982158	0.076537
1083.144986	0.077466
1083.307796	0.082914
1083.470587	0.081400
1083.633361	0.076460
1083.796116	0.076497
1083.958853	0.077872
1084.121571	0.081208
1084.284272	0.080513
1084.446954	0.077414
1084.609618	0.077808
1084.772264	0.076155
1084.934892	0.074266
1085.097501	0.074847
1085.260092	0.078640
1085.422665	0.081379
1085.585220	0.078476
1085.747756	0.079591
1085.910274	0.082272
1086.072774	0.081210
1086.235256	0.079400
1086.397720	0.080573
1086.560165	0.081055
1086.722592	0.078495
1086.885001	0.075196
1087.047392	0.078956
1087.209764	0.077220
1087.372119	0.080820
1087.534455	0.081725
1087.696772	0.080641
1087.859072	0.082305
1088.021353	0.083973
1088.183616	0.083435
1088.345861	0.085206
1088.508088	0.080338
1088.670296	0.081907
1088.832486	0.077149
1088.994658	0.076853
1089.156812	0.075221
1089.318948	0.075795
1089.481065	0.077273
1089.643164	0.076186
1089.805245	0.075143
1089.967308	0.077711
1090.129352	0.076945
1090.291378	0.077766
1090.453386	0.081426
1090.615376	0.082568
1090.777347	0.079985
1090.939301	0.077186
1091.101236	0.080599
1091.263153	0.079207
1091.425051	0.079344
1091.586932	0.080603
1091.748794	0.080666
1091.910638	0.077261
1092.072463	0.080685
1092.234271	0.082240
1092.396060	0.082688
1092.557831	0.080145
1092.719584	0.079801
1092.881319	0.081766
1093.043035	0.080581
1093.204733	0.080133
1093.366413	0.079001
1093.528075	0.077953
1093.689718	0.076551
1093.851343	0.078103
1094.012950	0.077582
1094.174539	0.080020
1094.336110	0.076218
1094.497662	0.076868
1094.659196	0.078173
1094.820712	0.078335
1094.982210	0.075682
1095.143689	0.075099
1095.305151	0.074706
1095.466594	0.074627
1095.628018	0.074388
1095.789425	0.073669
1095.950813	0.075930
1096.112183	0.076078
1096.273535	0.077482
1096.434869	0.081563
1096.596184	0.089322
1096.757482	0.089818
1096.918761	0.091525
1097.080021	0.093029
1097.241264	0.091145
1097.402488	0.087723
1097.563694	0.087954
1097.724882	0.083539
1097.886052	0.082848
1098.047203	0.080302
1098.208336	0.078385
1098.369451	0.077751
1098.530548	0.078290
1098.691627	0.080770
1098.852687	0.079598
1099.013729	0.080977
1099.174753	0.080941
1099.335758	0.084116
1099.496746	0.084778
1099.657715	0.085184
1099.818666	0.087967
1099.979599	0.089278
1100.140513	0.089405
1100.301409	0.087788
1100.462287	0.083905
1100.623147	0.087538
1100.783989	0.084169
1100.944812	0.079275
1101.105617	0.080525
1101.266404	0.074236
1101.427173	0.065976
1101.587923	0.063386
1101.748656	0.068066
1101.909370	0.068179
1102.070066	0.068279
1102.230743	0.071026
1102.391403	0.072822
1102.552044	0.077372
1102.712667	0.079666
1102.873271	0.081471
1103.033858	0.081479
1103.194426	0.080102
1103.354976	0.082827
1103.515508	0.078463
1103.676021	0.076964
1103.836517	0.077834
1103.996994	0.071073
1104.157453	0.072347
1104.317893	0.076817
1104.478316	0.081851
1104.638720	0.083104
1104.799106	0.081968
1104.959474	0.084389
1105.119823	0.083806
1105.280155	0.079332
1105.440468	0.086867
1105.600763	0.092377
1105.761039	0.092718
1105.921298	0.090062
1106.081538	0.091906
1106.241760	0.090167
1106.401964	0.091897
1106.562149	0.089012
1106.722316	0.092349
1106.882465	0.091274
1107.042596	0.087049
1107.202709	0.083998
1107.362803	0.079197
1107.522879	0.076766
1107.682937	0.077104
1107.842977	0.072919
1108.002999	0.074417
1108.163002	0.077371
1108.322987	0.070517
1108.482954	0.072406
1108.642902	0.075453
1108.802833	0.085073
1108.962745	0.084850
1109.122639	0.085195
1109.282515	0.089633
1109.442372	0.089406
1109.602211	0.086366
1109.762032	0.087470
1109.921835	0.084842
1110.081620	0.082634
1110.241386	0.079782
1110.401134	0.081821
1110.560864	0.078997
1110.720576	0.080579
1110.880269	0.079069
1111.039945	0.078727
1111.199602	0.077948
1111.359240	0.077163
1111.518861	0.075094
1111.678463	0.077424
1111.838047	0.078717
1111.997613	0.078308
1112.157161	0.083084
1112.316690	0.084471
1112.476202	0.085443
1112.635695	0.089418
1112.795169	0.088265
1112.954626	0.092891
1113.114064	0.088819
1113.273484	0.083650
1113.432886	0.093105
1113.592270	0.087494
1113.751635	0.092664
1113.910983	0.095778
1114.070312	0.094813
1114.229622	0.100583
1114.388915	0.102431
1114.548189	0.103514
1114.707445	0.109285
1114.866683	0.101657
1115.025903	0.103525
1115.185104	0.098075
1115.344287	0.092298
1115.503452	0.089428
1115.662599	0.087466
1115.821727	0.083082
1115.980838	0.083225
1116.139930	0.076938
1116.299004	0.080547
1116.458059	0.076406
1116.617097	0.075928
1116.776116	0.083003
1116.935117	0.092035
1117.094099	0.089383
1117.253064	0.095343
1117.412010	0.094152
1117.570938	0.100842
1117.729848	0.102615
1117.888740	0.100919
1118.047613	0.109453
1118.206468	0.109272
1118.365305	0.105334
1118.524124	0.110092
1118.682924	0.100947
1118.841707	0.098317
1119.000471	0.093439
1119.159216	0.088935
1119.317944	0.092764
1119.476653	0.087616
1119.635344	0.088888
1119.794017	0.083187
1119.952672	0.084917
1120.111308	0.090954
1120.269927	0.089068
1120.428527	0.093204
1120.587108	0.091199
1120.745672	0.092554
1120.904217	0.089574
1121.062744	0.085624
1121.221253	0.087597
1121.379744	0.088668
1121.538216	0.090293
1121.696671	0.093775
1121.855107	0.088417
1122.013524	0.097391
1122.171924	0.096888
1122.330305	0.091947
1122.488668	0.093952
1122.647013	0.092355
1122.805340	0.088460
1122.963648	0.092034
1123.121938	0.096878
1123.280210	0.103212
1123.438464	0.095084
1123.596700	0.099607
1123.754917	0.107908
1123.913116	0.105056
1124.071297	0.108848
1124.229459	0.105864
1124.387604	0.098097
1124.545730	0.096456
1124.703838	0.094787
1124.861928	0.100092
1125.019999	0.091737
1125.178052	0.080704
1125.336088	0.079814
1125.494104	0.081334
1125.652103	0.083587
1125.810083	0.089623
1125.968045	0.091946
1126.125989	0.088936
1126.283915	0.087512
1126.441823	0.087108
1126.599712	0.091142
1126.757583	0.093285
1126.915436	0.088382
1127.073270	0.084553
1127.231087	0.072871
1127.388885	0.064588
1127.546665	0.065518
1127.704426	0.066277
1127.862170	0.068588
1128.019895	0.079659
1128.177602	0.081518
1128.335291	0.085168
1128.492961	0.089458
1128.650614	0.092828
1128.808248	0.097394
1128.965864	0.098495
1129.123461	0.100118
1129.281041	0.098202
1129.438602	0.093822
1129.596145	0.084961
1129.753670	0.086052
1129.911176	0.079748
1130.068665	0.078793
1130.226135	0.080364
1130.383587	0.084660
1130.541020	0.085100
1130.698436	0.092243
1130.855833	0.088015
1131.013212	0.093788
1131.170573	0.094606
1131.327915	0.105027
1131.485239	0.112238
1131.642545	0.112863
1131.799833	0.110199
1131.957103	0.103797
1132.114354	0.108307
1132.271588	0.111164
1132.428803	0.109710
1132.585999	0.106980
1132.743178	0.102558
1132.900338	0.106192
1133.057480	0.107423
1133.214604	0.110527
1133.371710	0.114697
1133.528797	0.103807
1133.685866	0.106572
1133.842917	0.117205
1133.999950	0.120541
1134.156964	0.121252
1134.313960	0.113104
1134.470938	0.114328
1134.627898	0.107700
1134.784840	0.109753
1134.941763	0.111120
1135.098668	0.112347
1135.255555	0.101100
1135.412424	0.089209
1135.569274	0.083997
1135.726107	0.088214
1135.882921	0.077965
1136.039716	0.076862
1136.196494	0.069036
1136.353253	0.067890
1136.509995	0.064951
1136.666717	0.059042
1136.823422	0.069917
1136.980109	0.073584
1137.136777	0.073485
1137.293427	0.079542
1137.450059	0.082755
1137.606672	0.095530
1137.763267	0.103386
1137.919844	0.102019
1138.076403	0.113223
1138.232944	0.111015
1138.389466	0.110358
1138.545971	0.099595
1138.702457	0.100486
1138.858924	0.096854
1139.015374	0.092643
1139.171805	0.079199
1139.328218	0.078489
1139.484613	0.081346
1139.640990	0.077564
1139.797348	0.078086
1139.953688	0.083576
1140.110010	0.084420
1140.266314	0.083318
1140.422600	0.078787
1140.578867	0.088389
1140.735116	0.078117
1140.891347	0.067466
1141.047559	0.073021
1141.203754	0.073591
1141.359930	0.073411
1141.516088	0.068892
1141.672228	0.067873
1141.828349	0.072325
1141.984452	0.075800
1142.140537	0.090580
1142.296604	0.104070
1142.452653	0.089989
1142.608683	0.084149
1142.764695	0.089419
1142.920689	0.091352
1143.076665	0.098322
1143.232622	0.094325
1143.388562	0.091930
1143.544483	0.087080
1143.700385	0.077015
1143.856270	0.082980
1144.012136	0.095919
1144.167985	0.091322
1144.323814	0.093841
1144.479626	0.095949
1144.635420	0.097070
1144.791195	0.088129
1144.946952	0.088805
1145.102691	0.085637
1145.258411	0.093331
1145.414113	0.089038
1145.569798	0.088078
1145.725463	0.081223
1145.881111	0.070551
1146.036741	0.064484
1146.192352	0.064788
1146.347945	0.064805
1146.503519	0.071837
1146.659076	0.080962
1146.814614	0.075849
1146.970134	0.080919
1147.125636	0.084454
1147.281120	0.093154
1147.436585	0.107472
1147.592032	0.128968
1147.747461	0.129617
1147.902872	0.125319
1148.058265	0.115280
1148.213639	0.120185
1148.368995	0.120908
1148.524333	0.128593
1148.679653	0.121737
1148.834954	0.111603
1148.990237	0.101053
1149.145502	0.103985
1149.300749	0.109353
1149.455977	0.117564
1149.611188	0.121940
1149.766380	0.119020
1149.921553	0.113963
1150.076709	0.120578
1150.231846	0.120918
1150.386966	0.109294
1150.542066	0.107324
1150.697149	0.111120
1150.852214	0.099762
1151.007260	0.093872
1151.162288	0.087545
1151.317298	0.079396
1151.472289	0.073750
1151.627263	0.074053
1151.782218	0.077085
1151.937155	0.076115
1152.092073	0.068918
1152.246974	0.072237
1152.401856	0.065852
1152.556720	0.074430
1152.711566	0.075344
1152.866393	0.081538
1153.021203	0.086250
1153.175994	0.089015
1153.330767	0.085468
1153.485521	0.080818
1153.640258	0.079734
1153.794976	0.085579
1153.949676	0.084925
1154.104358	0.087591
1154.259021	0.085306
1154.413667	0.090714
1154.568294	0.093762
1154.722903	0.090633
1154.877493	0.098382
1155.032066	0.092351
1155.186620	0.101135
1155.341156	0.109563
1155.495674	0.103105
1155.650173	0.107464
1155.804654	0.096254
1155.959118	0.101390
1156.113562	0.106341
1156.267989	0.110595
1156.422397	0.114924
1156.576788	0.109906
1156.731160	0.100647
1156.885513	0.106932
1157.039849	0.098654
1157.194166	0.102153
1157.348465	0.104233
1157.502746	0.113547
1157.657009	0.102434
1157.811253	0.103948
1157.965479	0.108309
1158.119687	0.110366
1158.273877	0.119693
1158.428048	0.123005
1158.582201	0.118075
1158.736337	0.105628
1158.890453	0.105557
1159.044552	0.113592
1159.198632	0.113320
1159.352694	0.092987
1159.506738	0.096472
1159.660764	0.099194
1159.814771	0.091615
1159.968761	0.101772
1160.122732	0.110648
1160.276685	0.098638
1160.430619	0.108283
1160.584535	0.113817
1160.738434	0.123327
1160.892313	0.114881
1161.046175	0.109794
1161.200019	0.114116
1161.353844	0.107578
1161.507651	0.102110
1161.661440	0.107173
1161.815210	0.093896
1161.968962	0.092897
1162.122697	0.107820
1162.276412	0.104422
1162.430110	0.106019
1162.583789	0.114293
1162.737451	0.118264
1162.891094	0.109360
1163.044718	0.103316
1163.198325	0.102665
1163.351913	0.082683
1163.505483	0.057063
1163.659035	0.072888
1163.812569	0.070472
1163.966084	0.090707
1164.119581	0.092280
1164.273060	0.105090
1164.426521	0.118618
1164.579964	0.123092
1164.733388	0.131398
1164.886794	0.156474
1165.040182	0.151470
1165.193551	0.154659
1165.346903	0.130864
1165.500236	0.129025
1165.653551	0.116516
1165.806848	0.105857
1165.960126	0.105370
1166.113386	0.098405
1166.266628	0.097508
1166.419852	0.084687
1166.573058	0.086488
1166.726245	0.093699
1166.879414	0.087677
1167.032565	0.099647
1167.185698	0.102314
1167.338812	0.104238
1167.491909	0.109742
1167.644987	0.091421
1167.798046	0.090698
1167.951088	0.076564
1168.104111	0.067580
1168.257117	0.068838
1168.410103	0.058808
1168.563072	0.059225
1168.716023	0.064100
1168.868955	0.064513
1169.021869	0.079545
1169.174765	0.077426
1169.327642	0.087392
1169.480501	0.088702
1169.633343	0.093973
1169.786165	0.090999
1169.938970	0.094889
1170.091757	0.094547
1170.244525	0.099014
1170.397275	0.115130
1170.550007	0.129804
1170.702720	0.135065
1170.855415	0.131478
1171.008092	0.122875
1171.160751	0.131585
1171.313392	0.125359
1171.466014	0.070902
1171.618619	0.082650
1171.771205	0.082650
1171.923772	0.082650
