sample name	sample
index	876
start time	 04-08-2021  01:45:46 PM
880	0.566238
Peak Time (s)	131.037
Peak Height 	0.5662
calc peak height	130,133
Baseline Time (s)	11.537
Baseline Value 	-0.003514
subtract baseline	10,4
Abs	0.408625
Peak Time (s)	131.535
Peak Height 	0.4086
calc peak height	130,133
Baseline Time (s)	10.537
Baseline Value 	0.002279
subtract baseline	10,3
PK_550	0.200079
Peak Time (s)	130.537
Peak Height 	0.2001
calc peak height	130,133
Baseline Time (s)	8.536
Baseline Value 	6.0989E-4
subtract baseline	10,2
PK_880	0.366554
Peak Time (s)	130.537
Peak Height 	0.3666
calc peak height	130,133
Baseline Time (s)	9.537
Baseline Value 	0.00147
subtract baseline	10,1


Time (s)	A880-A510	A880-A775	A880-A975	A880	I510	I775	I975	I880	
0.038500	-0.000943	-0.001747	-0.006217	0.001073	6884.427753	42413.577604	3911.701449	22780.622140
0.539500	-0.003702	-0.001291	-0.000535	0.006055	6810.472094	42001.969172	3913.705838	22551.390278
1.037000	-0.002942	-0.000767	-0.003518	0.003532	6841.683068	42278.658465	3912.388537	22667.172960
1.539500	-0.001584	-0.001427	-0.002970	0.000773	6881.138088	42470.244356	3921.886871	22794.480043
2.037500	-0.000922	-0.000403	0.000360	0.001208	6883.331774	42524.220245	3930.266706	22774.389489
2.537500	-0.003058	-0.000147	-0.004568	0.005192	6824.763588	42183.929177	3904.656490	22590.908585
3.035000	-0.000559	-0.000425	-0.003340	-0.001303	6911.120916	42752.999903	3926.818203	22890.870495
3.535500	-0.000193	-0.000881	0.003473	-0.000221	6904.183623	42611.519792	3943.521826	22840.598249
4.036000	-0.001454	-0.000366	-0.003419	0.000183	6888.083237	42621.636350	3922.294390	22821.838919
4.535000	0.000611	-0.000416	-0.003020	0.000530	6904.690060	42585.192716	3922.444959	22805.743855
5.039000	0.002192	-0.000348	-0.001203	0.000552	6919.814333	42589.390311	3927.637062	22804.753689
5.536500	-0.000685	0.000609	-0.005237	0.000887	6888.713244	42646.561047	3915.041317	22789.242193
6.037000	0.001437	-0.000178	-0.002326	0.000558	6912.424410	42604.422170	3924.369028	22804.458090
6.537000	-0.000454	-0.001123	-0.002886	-0.000685	6906.138765	42631.830490	3926.341933	22862.106531
7.034500	-0.000867	-0.000223	-0.004994	-0.000158	6897.040693	42666.085247	3918.739041	22837.642463
7.535000	0.001130	-0.000086	-0.001888	0.000333	6911.632787	42633.577769	3926.285885	22814.888965
8.034500	-0.000202	-0.000863	0.001663	-0.000379	6905.624324	42627.626634	3938.683431	22847.922371
8.535500	-0.000830	0.000000	0.000153	0.000062	6895.271969	42666.409474	3932.994848	22827.452380
9.035500	-0.000442	-0.000601	-0.004528	-0.000322	6902.742033	42646.457262	3920.556127	22845.277742
9.536500	0.000000	-0.000209	-0.001194	-0.000405	6907.830115	42690.163606	3930.437037	22849.131371
10.036000	0.000368	-0.000353	-0.005247	-0.000511	6912.428461	42686.692982	3919.029282	22854.057223
10.536500	-0.000527	0.000495	0.000000	0.000008	6898.730215	42716.901646	3932.706035	22829.960563
11.037000	0.000147	0.000164	0.000407	0.000507	6900.427741	42640.604473	3932.438481	22806.843903
11.536500	0.000356	0.000047	0.002489	0.000000	6907.355349	42676.456671	3939.988785	22830.326016
12.035000	-0.000628	-0.000019	-0.003508	0.000007	6897.767837	42669.776826	3922.546314	22830.021176
12.535500	-0.000711	0.000294	-0.003759	-0.000096	6897.956231	42707.994544	3922.120686	22834.787150
13.035500	-0.002318	-0.000038	-0.001998	0.001397	6868.080768	42540.354168	3922.892896	22765.635999
13.536000	-0.001195	-0.000095	0.002362	0.000211	6890.311163	42644.035180	3939.000870	22820.559646
14.036000	-0.000431	-0.000069	0.004183	0.002391	6876.660250	42446.459518	3937.950365	22719.705045
14.537000	-0.001089	0.000187	0.001427	0.002033	6873.780725	42502.663083	3930.967617	22736.230711
15.036500	0.000604	0.000327	0.002433	0.002044	6889.977903	42514.416634	3933.860821	22735.716210
15.537000	0.000144	-0.000173	-0.000557	0.000200	6903.361565	42637.815702	3930.529371	22821.049089
16.037500	-0.000917	-0.000523	-0.001779	-0.000600	6900.829185	42679.123366	3929.303131	22858.158838
16.537500	0.000277	0.000160	0.000498	0.000298	6903.701545	42659.451124	3933.310859	22816.511183
17.035000	-0.000405	0.000173	0.000179	-0.001003	6909.698199	42780.363546	3936.169876	22876.887549
17.535500	-0.000962	-0.000806	-0.000206	0.000265	6892.045152	42573.726661	3931.361313	22818.046201
18.035500	-0.000532	-0.000682	0.000462	0.001061	6888.501035	42512.095554	3930.988428	22781.164313
18.536000	-0.001428	0.000342	-0.001862	0.001734	6873.388570	42544.220230	3922.311294	22750.036395
19.038500	0.000290	-0.000200	0.001513	0.001611	6891.131985	42505.820576	3932.444954	22755.735985
19.536500	-0.000892	0.000531	-0.004198	0.001650	6879.361262	42569.334186	3915.831859	22753.933672
20.036500	-0.000114	-0.000963	0.000468	0.000262	6900.263112	42559.572965	3933.326557	22818.155724
20.537500	0.000964	0.000271	0.001342	0.001660	6897.177109	42544.589904	3931.805050	22753.494494
21.037500	-0.000078	0.000895	0.003367	0.002245	6881.465864	42548.072833	3935.996620	22726.458269
21.534500	-0.001440	-0.000154	0.005796	0.000774	6882.524490	42586.890537	3947.420675	22794.468884
22.034500	-0.000792	-0.000372	-0.000182	0.000915	6887.409009	42553.856883	3929.541680	22787.928482
22.535500	-0.000459	-0.000560	-0.005224	0.000426	6895.345390	42581.572787	3916.402788	22810.587709
23.035000	-0.000255	0.000577	0.001393	0.002077	6881.382364	42534.397869	3930.742064	22734.222648
23.538500	-0.000366	-0.000245	0.003240	0.001183	6888.927973	42540.903836	3938.725811	22775.504552
24.036500	0.000400	0.000084	0.000601	0.001524	6893.030653	42539.879848	3930.047317	22759.752349
24.536500	-0.000940	0.000412	-0.001795	0.001604	6879.347822	42562.612226	3922.882602	22756.081099
25.037000	-0.002591	-0.000270	-0.002673	0.001079	6868.507608	42548.190516	3921.863357	22780.324067
25.537000	-0.001226	-0.000609	-0.003560	0.000790	6884.432594	42543.620134	3920.141774	22793.735190
26.037500	-0.001143	-0.000236	-0.000961	0.001159	6881.671749	42544.042616	3926.579276	22776.655406
26.535000	-0.000445	0.000550	0.000205	0.002092	6879.405383	42530.555336	3927.252678	22733.522071
27.034500	-0.001509	-0.000093	0.001432	0.002126	6868.850256	42468.447603	3930.710443	22731.931679
27.536000	0.000400	0.000281	0.001546	-0.001791	6925.173569	42863.144677	3942.473645	22913.583836
28.036000	0.000513	-0.000079	0.003359	0.000009	6908.789528	42664.024161	3942.511360	22829.901486
28.536000	-0.002732	0.000861	-0.002515	0.004377	6835.623022	42350.014794	3912.842034	22628.329667
29.036500	0.000168	0.000119	0.003776	0.000308	6902.548994	42654.644168	3942.854792	22816.022916
29.536500	-0.000114	-0.000019	-0.002797	0.000198	6900.876370	42652.139230	3924.045581	22821.128772
30.037000	0.000694	0.000484	0.002124	0.000397	6906.782261	42680.129428	3937.763665	22811.922775
30.534500	-0.002504	-0.000233	-0.004535	0.002528	6855.458787	42418.969806	3912.351940	22713.417654
31.034500	-0.000091	0.000098	-0.003836	0.002462	6879.260468	42455.250621	3914.543340	22716.455255
31.535500	-0.000327	-0.000204	0.000559	0.000064	6900.118987	42647.432910	3934.167140	22827.341383
32.039000	0.002056	-0.000072	0.000500	0.000174	6922.174328	42649.535488	3933.679302	22822.276197
32.535500	0.000028	-0.000327	0.001796	0.002124	6883.660192	42447.279250	3931.776492	22732.056302
33.039000	0.000932	0.000317	0.001363	0.000543	6907.666474	42651.274655	3935.115688	22805.136648
33.536000	0.000847	-0.000623	-0.000016	0.002038	6892.394865	42428.137999	3926.771313	22736.034256
34.036500	0.000359	0.000112	0.000471	0.001998	6888.062288	42499.016603	3928.293578	22737.850523
34.536000	-0.000403	0.000019	-0.003405	0.002309	6877.725496	42461.954892	3916.217293	22723.490423
35.037500	-0.002205	-0.000309	-0.002293	0.002875	6855.001660	42380.331876	3917.788238	22697.424414
35.534500	-0.000060	0.000357	0.000436	0.002402	6880.131193	42484.392432	3927.022634	22719.210492
36.035000	0.001408	0.000680	-0.000077	0.003251	6886.095535	42436.333658	3923.084932	22680.090304
36.535500	-0.001291	0.000006	0.003952	0.002416	6868.158241	42450.967881	3937.202719	22718.558284
37.035500	-0.001577	-0.000727	-0.000072	0.001596	6873.294892	42458.969904	3927.886128	22756.439450
37.539000	-0.000879	0.000015	0.000482	0.001916	6876.926512	42497.651139	3928.565556	22741.660868
38.036500	-0.001246	0.000286	0.003546	0.002010	6872.490522	42513.834501	3937.205198	22737.304050
38.536000	-0.001594	-0.000099	-0.002301	0.001518	6873.876133	42523.647542	3921.669960	22760.044855
39.036500	-0.000404	0.000065	-0.001056	0.002657	6874.364288	42434.380164	3921.973801	22707.437296
39.537000	0.000989	0.000822	0.003489	0.003104	6883.482173	42462.738828	3933.851130	22686.878418
40.037000	-0.000527	0.000103	0.000519	0.002402	6875.635024	42461.182548	3927.264487	22719.212837
40.534500	-0.001234	0.000774	0.001855	0.002630	6866.650789	42501.732827	3930.476250	22708.676105
41.035000	-0.001593	-0.000449	0.001859	0.002266	6866.702421	42423.127209	3931.545913	22725.495209
41.535500	-0.000391	0.000400	-0.000771	0.002647	6874.589146	42465.965133	3922.825280	22707.908745
42.038500	-0.003278	-0.000313	-0.001061	0.001352	6859.298367	42519.234851	3925.729673	22767.690147
42.536000	0.000140	0.000363	0.000719	0.002707	6879.120247	42457.020787	3926.958547	22705.130076
43.036000	-0.001213	0.000161	0.000228	0.002755	6865.654319	42434.232873	3925.402542	22702.955221
43.536500	-0.000077	0.000807	0.001278	0.000943	6894.041797	42659.615370	3933.704779	22786.644971
44.036500	0.000787	0.000363	-0.001369	-0.000185	6913.323050	42722.521962	3929.289085	22838.903024
44.536500	0.000113	0.000093	0.000676	0.000194	6903.115561	42662.804779	3934.131009	22821.312412
45.037000	-0.001047	0.000001	-0.003178	0.002313	6871.490446	42459.991402	3916.858850	22723.324197
45.534500	-0.003287	-0.000289	0.000576	0.005515	6819.527972	42141.719877	3918.444599	22576.107710
46.035000	-0.001324	0.000630	0.000415	0.000237	6888.819373	42708.244376	3933.246617	22819.337259
46.538500	-0.000122	0.000319	0.002596	0.001007	6892.984308	42608.881296	3937.357643	22783.661063
47.037500	-0.002494	0.000114	-0.001597	0.003032	6850.732967	42404.625495	3919.335894	22690.184489
47.536000	-0.002313	0.000128	-0.001621	0.004460	6838.819304	42275.569179	3915.163862	22624.493483
48.036000	-0.000262	-0.000108	-0.002271	0.000155	6899.867844	42647.970584	3925.693387	22823.139692
48.537000	0.000792	0.000433	0.000131	0.001189	6900.055893	42602.557191	3929.655049	22775.235211
49.037000	-0.002230	0.000307	0.003381	0.002891	6854.598684	42435.049896	3934.154144	22696.649660
49.537000	0.000566	-0.000033	0.000066	0.000372	6905.776305	42634.840418	3931.838547	22813.055703
50.037500	0.001494	0.000308	0.003854	0.008424	6837.329491	41932.469948	3919.505690	22443.328868
50.535000	0.002115	-0.000159	-0.002868	-0.009874	7021.622079	43575.867820	3953.272221	23293.599868
51.035500	-0.049918	-0.018869	0.049522	0.238314	4864.005721	24818.680982	3487.388413	14322.501274
51.535500	-0.038021	-0.014306	0.002214	-0.012294	6662.006860	42487.445280	3975.640396	23408.759732
52.036000	-0.023954	-0.016419	-0.012992	-0.130402	8072.036085	54662.159036	4324.853679	29885.500568
52.536000	-0.023449	-0.014172	-0.011418	-0.084699	7540.897745	49716.456130	4164.914607	27168.489335
53.036500	-0.012837	-0.011565	-0.015643	-0.110738	7967.312351	52920.770708	4241.944660	28681.352728
53.537000	-0.003337	-0.006468	-0.012716	-0.098783	7937.599096	52134.262836	4209.593772	27975.484718
54.037000	0.003516	-0.004367	-0.007265	-0.083588	7837.927673	50666.679594	4175.425128	27105.934776
54.537000	0.009864	-0.001087	-0.000609	-0.060429	7642.789140	48521.628131	4119.276376	25837.806737
55.035000	0.010611	-0.001010	-0.001628	-0.050818	7542.888461	47527.013869	4084.221774	25331.030881
55.535000	0.009993	-0.002321	-0.002995	-0.054018	7571.777633	47722.410213	4090.207587	25498.544903
56.035500	0.010430	-0.000476	0.004606	-0.033257	7348.965524	45804.334330	4047.800656	24433.581243
56.535500	0.008419	-0.001198	0.010844	0.006197	6925.477431	41997.613556	3946.317944	22544.900444
57.036000	0.013313	0.002036	0.019262	0.019445	6844.943927	41102.331722	3932.195441	21948.237772
57.536500	0.016289	0.001834	0.020097	0.031378	6760.293859	40044.690567	3900.339070	21426.146394
58.039000	0.017117	0.003349	0.018269	0.032791	6754.831310	40053.494670	3891.189504	21365.275024
58.537000	0.001394	-0.001170	0.023221	0.036624	6576.219558	39342.418883	3894.340863	21201.142335
59.037000	0.016415	0.001463	0.025113	0.031774	6757.772101	39978.867468	3913.503129	21409.069443
59.537500	0.024579	0.005065	0.022267	0.030533	6846.641354	40396.644181	3908.911476	21462.635700
60.035000	0.028660	0.005757	0.029230	0.050721	6695.605448	38742.707013	3871.739408	20609.743083
60.535500	0.030811	0.008116	0.036076	0.066832	6569.162648	37620.028507	3846.366156	19956.979023
61.035500	0.033985	0.009598	0.040609	0.069149	6576.807024	37553.007908	3852.386224	19865.084930
61.535500	0.038853	0.011568	0.050590	0.078772	6534.575150	36944.577573	3853.360025	19488.596337
62.036000	0.042083	0.013643	0.047621	0.087265	6488.359324	36442.504063	3822.524638	19163.165812
62.536500	0.049637	0.017821	0.059350	0.096758	6471.487771	36032.371215	3828.478519	18806.903548
63.036500	0.052602	0.019048	0.060483	0.103590	6438.036321	35605.194220	3813.368685	18555.256962
63.537000	0.057879	0.022027	0.068060	0.110985	6419.839683	35272.478280	3813.846298	18287.312295
64.037000	0.064312	0.024890	0.073803	0.117971	6415.103734	34964.942526	3810.577059	18038.339087
64.534500	0.068606	0.027825	0.078992	0.126048	6382.870895	34585.411400	3803.014362	17755.454578
65.038000	0.078135	0.033258	0.088640	0.122284	6497.386446	35267.352224	3838.562810	17886.611982
65.535000	0.082224	0.036221	0.096576	0.136354	6411.077786	34445.561726	3822.170241	17402.025280
66.036000	0.091372	0.041053	0.103325	0.152747	6349.648751	33612.217684	3796.855068	16856.852192
66.536000	0.103590	0.046507	0.112639	0.168410	6320.804591	32894.525461	3780.493742	16354.843303
67.036000	0.111277	0.052203	0.129712	0.178816	6298.187477	32569.002194	3797.680779	16031.192231
67.536500	0.121747	0.059080	0.142309	0.198174	6225.270088	31723.459614	3780.254677	15449.377902
68.036500	0.132820	0.064644	0.151417	0.213255	6192.870051	31094.844228	3765.082099	15013.743510
68.537000	0.141678	0.070534	0.160237	0.220724	6204.067044	30991.857794	3768.496725	14803.531299
69.037500	0.152009	0.075282	0.167820	0.226744	6239.044967	30909.207842	3772.459146	14636.710515
69.535000	0.153752	0.079799	0.177114	0.233675	6196.996200	30752.929333	3778.476891	14447.473136
70.037000	0.164758	0.082717	0.182647	0.239152	6241.823007	30588.263764	3778.618061	14300.065578
70.534500	0.163987	0.085422	0.187242	0.271561	5981.181613	28745.951920	3709.816155	13464.852880
71.036000	0.171845	0.090986	0.197934	0.264311	6097.394393	29525.274481	3753.692522	13646.307741
71.536500	0.182502	0.094720	0.201118	0.273350	6110.084411	29199.897369	3739.174068	13420.542760
72.036000	0.186323	0.099267	0.200684	0.282285	6070.138863	28933.623831	3716.344805	13201.912970
72.536500	0.190636	0.102276	0.213322	0.285279	6080.396849	28934.533176	3739.851377	13129.656984
73.039500	0.195159	0.102775	0.211978	0.288647	6089.406677	28761.974405	3728.302453	13048.980922
73.545500	0.198426	0.105069	0.219250	0.292699	6083.279486	28656.742679	3736.180180	12952.726312
74.037500	0.204425	0.109186	0.222895	0.298594	6084.094972	28550.856897	3730.670998	12814.309431
74.538000	0.205541	0.109806	0.221397	0.301274	6071.916085	28428.574835	3720.508574	12751.985078
75.035500	0.208244	0.112908	0.231983	0.305804	6057.758340	28344.156071	3735.266937	12647.522184
75.535500	0.214806	0.115177	0.231357	0.309737	6078.156175	28246.174953	3724.138752	12557.707145
76.035500	0.215740	0.115860	0.236060	0.312597	6063.196531	28118.513343	3728.621390	12492.898102
76.536000	0.218239	0.117870	0.239981	0.318131	6039.769860	27913.332780	3724.698045	12368.730324
77.036500	0.221419	0.119640	0.244609	0.322224	6032.743978	27778.916488	3725.996858	12277.879911
77.536500	0.224714	0.122009	0.248204	0.327576	6016.994490	27607.424369	3721.732249	12160.394121
78.037000	0.226866	0.123635	0.245921	0.332239	5997.854199	27433.963924	3705.036150	12059.194016
78.537500	0.230171	0.124312	0.248525	0.335772	5996.132858	27272.010789	3702.824249	11983.254720
79.037500	0.231882	0.125309	0.253241	0.340318	5974.665528	27072.180332	3703.228600	11886.420728
79.535000	0.233908	0.125776	0.257394	0.343845	5963.367594	26901.170900	3704.720139	11811.996801
80.035500	0.237090	0.127259	0.257327	0.348504	5952.279744	26725.007946	3693.514492	11714.608240
80.535500	0.242661	0.129423	0.262772	0.353884	5953.711552	26547.928378	3693.670242	11603.446638
81.035500	0.242223	0.130024	0.263658	0.356667	5929.656553	26428.515600	3689.205558	11546.470438
81.536000	0.245970	0.132262	0.267528	0.361729	5919.888255	26274.864161	3686.410248	11443.793703
82.036500	0.246158	0.132802	0.279871	0.365593	5892.737223	26095.271305	3706.460434	11366.213569
82.537000	0.248487	0.134393	0.271508	0.369240	5883.056032	25984.890324	3678.177453	11293.619267
83.037000	0.249510	0.134664	0.278504	0.375888	5842.072907	25645.775645	3678.986173	11162.839316
83.540000	0.253219	0.136117	0.281533	0.375506	5871.830235	25742.890191	3686.945201	11170.303673
84.035000	0.254205	0.138091	0.284811	0.381153	5837.951946	25549.004552	3681.411834	11060.689745
84.535000	0.256796	0.138748	0.288021	0.383306	5841.119127	25470.459688	3683.877311	11019.264238
85.035500	0.255266	0.138992	0.282190	0.390020	5782.021035	25134.069747	3654.994843	10891.400875
85.538500	0.264535	0.142012	0.290259	0.391120	5840.579092	25233.407521	3670.936326	10870.651980
86.036000	0.265888	0.141529	0.296014	0.392946	5837.155185	25114.005162	3680.036162	10836.304808
86.536500	0.269161	0.144646	0.298882	0.398292	5822.201964	24999.332451	3674.285885	10736.569417
87.036500	0.267726	0.145057	0.296993	0.400501	5796.112276	24907.318454	3664.852240	10695.736406
87.537000	0.269234	0.145715	0.300111	0.403144	5788.020901	24806.159829	3665.940907	10647.128973
88.042000	0.270287	0.146887	0.299914	0.406542	5771.381419	24693.225021	3657.725911	10585.069837
88.534500	0.271367	0.145910	0.303515	0.407913	5769.324989	24574.743451	3662.813217	10560.167621
89.035000	0.275357	0.148963	0.302272	0.412496	5765.133720	24497.925321	3649.576586	10477.501543
89.535500	0.273887	0.148849	0.307578	0.414500	5740.699363	24391.971221	3657.057982	10441.629043
90.036000	0.283075	0.152091	0.305905	0.419439	5770.609164	24307.474032	3642.136278	10353.913842
90.535500	0.281523	0.153521	0.316779	0.422611	5737.375557	24221.025364	3659.539692	10298.106964
91.036500	0.281230	0.153377	0.315656	0.429356	5688.521419	23882.680685	3641.764530	10180.783824
91.536500	0.284949	0.154764	0.314861	0.427597	5726.481241	24036.577964	3643.926234	10211.209598
92.037000	0.282537	0.153436	0.315319	0.428368	5704.364338	23933.741806	3643.222019	10197.846912
92.537000	0.290550	0.158219	0.320842	0.434630	5716.509281	23861.642100	3641.567604	10090.297956
93.037000	0.287406	0.157555	0.319181	0.440018	5657.793611	23569.096511	3625.918084	9998.993113
93.535000	0.291911	0.157575	0.320280	0.438190	5701.264007	23658.002344	3632.384299	10029.842784
94.035500	0.293851	0.160229	0.322398	0.441632	5690.893321	23620.025227	3629.453000	9971.859936
94.535500	0.295440	0.159144	0.327941	0.443311	5690.280459	23487.462141	3638.032464	9943.746974
95.035500	0.293861	0.160961	0.329519	0.450808	5628.400967	23217.601432	3624.921974	9819.514672
95.536000	0.299457	0.162207	0.330992	0.449748	5673.654070	23326.770301	3630.511320	9836.959841
96.036000	0.298519	0.162971	0.333588	0.455359	5629.122874	23098.075732	3623.864567	9745.150578
96.536500	0.301221	0.164577	0.332906	0.454367	5654.158928	23220.338750	3624.544219	9761.292202
97.036500	0.298310	0.164157	0.330507	0.460360	5594.176770	22919.855518	3606.267085	9664.317043
97.536500	0.303219	0.165711	0.334499	0.459465	5633.132864	23034.021170	3616.867238	9678.703554
98.037000	0.302409	0.166376	0.335340	0.465451	5587.565722	22786.672927	3605.711029	9582.973459
98.535000	0.303436	0.166037	0.338608	0.463019	5610.668768	22883.616305	3618.077401	9621.705036
99.035000	0.309731	0.169211	0.343422	0.468217	5618.036112	22789.927595	3617.241621	9539.188817
99.535000	0.309677	0.168671	0.344038	0.469038	5612.160212	22727.109261	3616.794442	9526.236912
100.036000	0.309957	0.169538	0.348832	0.475223	5572.813939	22483.630705	3613.766746	9429.504921
100.536000	0.308685	0.170108	0.343570	0.472518	5582.309848	22633.209209	3608.222862	9471.639850
101.036500	0.314408	0.171281	0.347732	0.476234	5595.665496	22516.954675	3609.186437	9413.814055
101.536500	0.312098	0.171326	0.347687	0.477717	5570.469360	22451.508099	3605.885559	9390.874389
102.040000	0.314175	0.171654	0.350631	0.484529	5539.325730	22159.110405	3597.581912	9286.511937
102.537500	0.317981	0.173224	0.355638	0.482880	5575.235398	22303.749457	3611.915853	9311.624356
103.038000	0.316547	0.172895	0.348542	0.488121	5531.359013	22054.182344	3585.522307	9232.140116
103.535500	0.318159	0.175341	0.356888	0.486955	5549.539692	22215.635121	3605.805774	9249.739091
104.035500	0.318241	0.173812	0.354189	0.492617	5513.141128	21895.527182	3587.953063	9164.706569
104.535500	0.321356	0.175750	0.360303	0.490463	5547.502730	22077.057417	3605.606524	9196.931556
105.036000	0.324165	0.178096	0.357395	0.493775	5544.202344	22034.049185	3592.293549	9147.455480
105.536000	0.323596	0.177063	0.359400	0.494390	5536.452777	21960.904452	3595.252201	9138.310729
106.036500	0.323853	0.177297	0.361791	0.501643	5491.098535	21652.419252	3584.946781	9031.428692
106.540000	0.328059	0.179421	0.365561	0.499398	5532.890872	21843.836338	3597.714596	9064.323697
107.037000	0.327521	0.179543	0.369822	0.501035	5518.735944	21777.243642	3603.339918	9040.321851
107.534500	0.327782	0.179090	0.365917	0.502192	5512.918197	21706.725392	3592.518052	9023.411034
108.037000	0.324863	0.179437	0.369437	0.509022	5450.444816	21425.441804	3585.510584	8924.508427
108.535500	0.331862	0.180993	0.370946	0.506391	5512.151872	21606.638180	3594.284649	8962.426260
109.035500	0.331623	0.180799	0.372365	0.508123	5499.406122	21523.046711	3593.617547	8937.440779
109.535500	0.332424	0.182951	0.371681	0.510116	5491.729136	21529.973329	3587.939017	8908.813979
110.036500	0.331593	0.182840	0.372461	0.517356	5440.297407	21214.277238	3574.378646	8805.917326
110.536500	0.334055	0.183364	0.372927	0.513034	5483.465819	21421.778204	3584.411020	8867.138591
111.037000	0.336629	0.185139	0.376668	0.515721	5482.738675	21382.538731	3586.630667	8828.995302
111.537500	0.338070	0.184762	0.375228	0.516446	5487.329856	21335.212622	3582.070188	8818.746653
112.037500	0.340749	0.184829	0.378504	0.519070	5487.684411	21225.977157	3583.442556	8781.805475
112.535000	0.340056	0.185780	0.378885	0.519868	5478.129014	21232.507386	3582.565910	8770.616626
113.035500	0.339231	0.185363	0.380362	0.525848	5434.908773	20961.842087	3573.148343	8687.390297
113.535500	0.341509	0.186250	0.381056	0.522626	5469.787188	21135.225754	3581.332837	8732.094320
114.036000	0.340623	0.187296	0.380093	0.529832	5418.627898	20875.915200	3564.342501	8632.585949
114.536000	0.344495	0.187109	0.382790	0.525419	5471.016470	21053.401046	3579.111692	8693.323790
115.036000	0.345623	0.187711	0.380802	0.527050	5467.804278	21009.990913	3571.562972	8670.795235
115.536500	0.346979	0.190040	0.383377	0.529961	5457.909742	20985.523965	3570.865970	8630.817058
116.037000	0.346525	0.188905	0.385838	0.529727	5456.513805	20947.672149	3576.476419	8634.021549
116.537500	0.346976	0.190589	0.387604	0.532269	5443.266707	20911.699228	3574.857688	8599.301134
117.034500	0.344733	0.190629	0.385331	0.537941	5393.690612	20677.313151	3558.446699	8522.558261
117.538000	0.348798	0.190727	0.384099	0.533677	5445.885997	20858.603442	3564.673763	8580.161220
118.035000	0.348542	0.191288	0.389245	0.534870	5436.737183	20832.224585	3572.859083	8563.989634
118.535500	0.352043	0.191224	0.388123	0.536353	5449.486243	20767.829628	3567.457127	8543.947724
119.035500	0.350956	0.192713	0.392449	0.538169	5431.158622	20754.235084	3572.661641	8519.495181
119.536000	0.350524	0.192068	0.392233	0.538670	5425.292406	20706.725301	3571.172134	8512.769544
120.036000	0.355197	0.190912	0.392688	0.538783	5454.073620	20654.241696	3571.881306	8511.252580
120.539500	0.354645	0.193020	0.393027	0.541439	5433.796490	20631.630315	3567.080266	8475.727868
121.037000	0.353076	0.193419	0.389659	0.542075	5419.946017	20621.859261	3558.843701	8467.259239
121.537500	0.353390	0.191762	0.390113	0.541429	5425.967227	20580.219497	3561.098739	8475.865246
122.035000	0.350774	0.191720	0.396269	0.548891	5363.397203	20274.257234	3558.420862	8377.208969
122.535000	0.354224	0.194011	0.395369	0.545060	5408.452326	20523.469468	3564.441309	8427.644827
123.035500	0.352369	0.192958	0.398895	0.549824	5367.459122	20286.622637	3561.892431	8364.994279
123.539000	0.357055	0.195009	0.401185	0.547503	5410.875909	20464.333960	3571.418411	8395.434611
124.036000	0.354708	0.194532	0.401150	0.552521	5365.262817	20241.223562	3560.985438	8329.827108
124.536500	0.357536	0.197087	0.394106	0.549879	5399.065264	20452.187333	3551.994393	8364.276044
125.039000	0.355573	0.195840	0.399771	0.554821	5356.461146	20201.265413	3553.465861	8300.013115
125.537000	0.359035	0.196199	0.402242	0.550685	5403.380153	20383.168875	3567.015421	8353.748997
126.037000	0.354820	0.194486	0.400625	0.556261	5343.077879	20089.222903	3552.275615	8281.434988
126.537500	0.358934	0.196821	0.400724	0.552903	5388.972797	20318.359126	3559.327786	8324.868376
127.035000	0.360572	0.198174	0.403179	0.558051	5367.308722	20165.223297	3553.827849	8258.404686
127.538000	0.362927	0.198955	0.402512	0.555492	5397.688151	20299.936825	3557.690344	8291.352842
128.036000	0.360679	0.198829	0.403509	0.561676	5345.781657	20046.373462	3547.144741	8212.080431
128.535500	0.363896	0.199530	0.406060	0.556608	5396.774292	20278.078325	3562.678171	8276.963895
129.036000	0.363074	0.197526	0.400486	0.556357	5393.231361	20207.320132	3551.797623	8280.197714
129.539000	0.364495	0.199396	0.407771	0.558278	5390.129498	20205.278107	3562.762175	8255.504372
130.036500	0.365732	0.197945	0.405118	0.557514	5402.553056	20177.631143	3558.882845	8265.303980
130.537000	0.366554	0.200079	0.407523	0.559398	5395.948974	20187.666530	3559.951458	8241.149236
131.037000	0.365530	0.199846	0.401585	0.566238	5347.543661	19905.522890	3534.134780	8154.332693
131.535000	0.363096	0.198972	0.408625	0.559304	5375.137195	20146.972933	3562.405815	8242.348611
132.035000	0.361597	0.197847	0.406297	0.565442	5328.478175	19857.993386	3545.170924	8164.366510
132.535500	0.364934	0.199662	0.404152	0.562309	5367.956763	20054.376712	3547.164571	8204.038677
133.036000	0.364699	0.199598	0.406103	0.561885	5369.114947	20068.708754	3551.975906	8209.422688
133.536000	0.367894	0.200400	0.406622	0.563010	5381.872160	20055.818091	3550.746739	8195.127409
134.036000	0.364382	0.200264	0.406595	0.569770	5319.149810	19782.765831	3537.082156	8110.028080
134.536500	0.369174	0.201834	0.408931	0.565565	5374.007174	20011.121305	3550.247489	8162.805294
135.036500	0.369162	0.202390	0.410472	0.566828	5366.165460	19983.025784	3550.812031	8146.904554
135.539500	0.369783	0.201308	0.413516	0.565867	5375.898184	19978.194585	3558.975782	8159.000516
136.037000	0.369434	0.202418	0.411839	0.572186	5335.108048	19772.445054	3542.749257	8079.932923
136.534500	0.367939	0.201168	0.411824	0.567177	5356.525328	19920.687830	3552.848799	8142.516512
137.035500	0.369247	0.203134	0.409227	0.569172	5352.322002	19919.558501	3543.558579	8117.503718
137.536000	0.369778	0.202278	0.415978	0.569368	5354.372848	19877.952538	3556.851258	8115.056056
138.035000	0.368785	0.204237	0.415677	0.575328	5312.188307	19720.596811	3544.151077	8041.040085
138.536000	0.371075	0.203924	0.417763	0.570948	5352.640786	19880.545806	3557.270500	8095.330626
139.036500	0.369938	0.202512	0.415772	0.575788	5316.359566	19635.253358	3543.415601	8035.365645
139.537000	0.371221	0.203298	0.416191	0.571760	5348.573828	19823.802991	3552.409193	8085.225039
140.036500	0.371082	0.204379	0.414653	0.576620	5318.240349	19675.614121	3539.497369	8025.126200
140.537500	0.373506	0.204364	0.419953	0.573466	5352.105890	19798.628500	3556.598819	8064.050322
141.034500	0.369130	0.205382	0.417149	0.578639	5294.397855	19636.009387	3540.455229	8000.365120
141.537500	0.372351	0.204150	0.416628	0.573365	5345.678394	19794.192481	3550.039666	8065.306759
142.038000	0.371486	0.205177	0.416207	0.579105	5305.716936	19609.916103	3537.635958	7994.660962
142.536000	0.373802	0.204252	0.416089	0.574122	5349.906967	19768.439153	3547.414308	8055.929427
143.035500	0.372368	0.204683	0.416432	0.580124	5304.899721	19551.154810	3536.049761	7982.219252
143.539000	0.372732	0.204138	0.414243	0.575544	5334.744204	19708.269275	3540.835258	8038.380837
144.036000	0.373836	0.204112	0.414483	0.576045	5338.404877	19687.692229	3540.312028	8032.210700
144.536500	0.373303	0.205537	0.415141	0.576655	5331.465015	19719.545705	3540.406617	8024.702816
145.040000	0.372122	0.204428	0.420447	0.581540	5294.940261	19486.562793	3541.250729	7964.977427
145.537000	0.376468	0.206396	0.418177	0.578462	5339.706987	19682.464109	3542.874573	8002.525301
