sample name	sample
index	1075
start time	 04-22-2021  10:49:23 AM


Wavelength (nm)	Absorbance
494.344910	0.032354
494.563924	0.032354
494.782919	0.032354
495.001897	-0.047271
495.220856	0.002764
495.439797	0.000588
495.658719	-0.013042
495.877624	-0.012229
496.096510	-0.003042
496.315378	0.006874
496.534227	-0.006275
496.753059	-0.002031
496.971872	-0.005290
497.190667	0.088167
497.409444	0.133946
497.628203	0.155485
497.846943	0.165887
498.065665	0.173079
498.284369	0.176527
498.503055	0.181010
498.721723	0.185118
498.940372	0.187163
499.159003	0.187622
499.377616	0.188821
499.596210	0.190221
499.814787	0.189811
500.033345	0.188427
500.251885	0.188373
500.470406	0.188915
500.688910	0.189282
500.907395	0.189850
501.125862	0.190245
501.344311	0.190246
501.562742	0.189565
501.781154	0.189834
501.999548	0.190360
502.217924	0.191560
502.436282	0.192276
502.654621	0.191468
502.872942	0.191915
503.091245	0.191790
503.309530	0.191360
503.527797	0.192156
503.746045	0.193300
503.964275	0.193745
504.182487	0.194708
504.400681	0.193713
504.618856	0.194379
504.837013	0.194680
505.055152	0.195362
505.273273	0.196336
505.491376	0.196596
505.709460	0.196548
505.927526	0.197889
506.145574	0.197028
506.363604	0.196909
506.581615	0.195609
506.799608	0.196120
507.017583	0.196075
507.235540	0.196556
507.453478	0.196307
507.671399	0.196054
507.889301	0.195715
508.107185	0.195442
508.325050	0.195935
508.542898	0.197814
508.760727	0.196761
508.978538	0.196605
509.196330	0.196573
509.414105	0.197233
509.631861	0.198038
509.849599	0.198528
510.067319	0.200120
510.285021	0.201367
510.502704	0.200854
510.720369	0.201644
510.938016	0.201868
511.155645	0.202558
511.373255	0.202920
511.590848	0.202807
511.808422	0.202327
512.025977	0.201414
512.243515	0.201717
512.461034	0.201122
512.678536	0.202502
512.896018	0.202675
513.113483	0.202916
513.330930	0.203079
513.548358	0.203946
513.765768	0.204212
513.983160	0.206116
514.200533	0.205298
514.417889	0.206736
514.635226	0.206141
514.852545	0.206506
515.069845	0.206230
515.287128	0.206001
515.504392	0.205648
515.721638	0.206590
515.938866	0.206161
516.156075	0.206969
516.373267	0.207205
516.590440	0.207485
516.807594	0.208300
517.024731	0.208902
517.241850	0.209318
517.458950	0.209855
517.676032	0.210152
517.893095	0.210183
518.110141	0.210688
518.327168	0.211831
518.544177	0.212165
518.761168	0.213070
518.978141	0.213509
519.195095	0.214705
519.412031	0.214656
519.628949	0.215999
519.845849	0.216361
520.062731	0.216398
520.279594	0.216302
520.496439	0.216729
520.713266	0.216086
520.930074	0.215642
521.146865	0.214996
521.363637	0.215999
521.580391	0.215272
521.797127	0.215948
522.013844	0.216339
522.230543	0.216185
522.447224	0.216183
522.663887	0.216661
522.880532	0.217796
523.097158	0.217276
523.313766	0.217596
523.530356	0.218070
523.746928	0.218984
523.963481	0.219142
524.180017	0.218959
524.396534	0.219460
524.613032	0.219604
524.829513	0.219876
525.045975	0.221297
525.262420	0.221005
525.478845	0.221337
525.695253	0.221225
525.911643	0.222281
526.128014	0.222897
526.344367	0.223432
526.560702	0.223845
526.777018	0.224494
526.993316	0.224989
527.209597	0.225016
527.425858	0.225341
527.642102	0.225263
527.858328	0.225250
528.074535	0.225638
528.290724	0.226542
528.506894	0.227503
528.723047	0.227660
528.939181	0.228117
529.155297	0.228907
529.371395	0.229508
529.587475	0.230505
529.803536	0.230706
530.019579	0.231791
530.235604	0.231825
530.451611	0.232363
530.667600	0.232809
530.883570	0.232315
531.099522	0.233100
531.315456	0.232305
531.531372	0.231929
531.747269	0.232242
531.963148	0.231949
532.179009	0.232301
532.394852	0.231809
532.610676	0.232265
532.826482	0.233043
533.042271	0.233274
533.258040	0.234728
533.473792	0.234765
533.689525	0.235503
533.905240	0.235907
534.120937	0.236103
534.336616	0.236418
534.552277	0.236302
534.767919	0.236223
534.983543	0.237205
535.199149	0.237175
535.414736	0.238000
535.630306	0.238790
535.845857	0.239160
536.061390	0.239856
536.276904	0.240809
536.492401	0.241297
536.707879	0.242346
536.923339	0.242363
537.138781	0.243297
537.354204	0.244005
537.569610	0.244255
537.784997	0.243899
538.000366	0.243546
538.215716	0.243915
538.431049	0.243996
538.646363	0.244283
538.861659	0.244278
539.076937	0.244991
539.292196	0.245475
539.507438	0.245376
539.722661	0.246528
539.937866	0.247431
540.153052	0.247799
540.368221	0.248352
540.583371	0.248223
540.798503	0.248658
541.013617	0.248200
541.228712	0.247853
541.443789	0.248036
541.658848	0.248663
541.873889	0.249259
542.088912	0.249425
542.303916	0.249108
542.518902	0.249645
542.733870	0.249919
542.948820	0.250182
543.163752	0.251155
543.378665	0.251180
543.593560	0.251145
543.808437	0.250723
544.023295	0.250878
544.238136	0.251953
544.452958	0.252456
544.667762	0.252697
544.882548	0.253165
545.097315	0.252972
545.312064	0.253183
545.526795	0.253431
545.741508	0.253656
545.956203	0.254007
546.170879	0.254077
546.385537	0.254285
546.600177	0.254667
546.814799	0.254475
547.029402	0.255184
547.243988	0.255684
547.458555	0.255385
547.673103	0.255686
547.887634	0.256408
548.102146	0.256701
548.316640	0.257030
548.531116	0.257376
548.745574	0.258198
548.960013	0.258561
549.174435	0.259151
549.388838	0.260009
549.603222	0.260846
549.817589	0.261068
550.031937	0.261598
550.246267	0.261811
550.460579	0.262298
550.674873	0.262738
550.889148	0.262689
551.103405	0.262801
551.317644	0.262943
551.531865	0.262863
551.746068	0.262317
551.960252	0.262463
552.174418	0.262664
552.388566	0.263231
552.602696	0.262829
552.816807	0.263086
553.030900	0.263344
553.244975	0.263138
553.459032	0.263314
553.673070	0.264083
553.887091	0.264141
554.101093	0.264247
554.315077	0.263940
554.529042	0.264693
554.742990	0.264963
554.956919	0.265147
555.170830	0.265642
555.384722	0.266039
555.598597	0.265929
555.812453	0.265692
556.026291	0.266127
556.240111	0.266550
556.453913	0.266012
556.667696	0.265926
556.881461	0.265403
557.095208	0.265417
557.308937	0.265321
557.522647	0.265583
557.736339	0.266102
557.950013	0.265856
558.163669	0.265360
558.377307	0.265904
558.590926	0.265897
558.804527	0.266835
559.018110	0.266842
559.231675	0.267669
559.445221	0.267611
559.658749	0.268273
559.872259	0.268685
560.085751	0.269042
560.299225	0.269070
560.512680	0.269156
560.726117	0.269170
560.939536	0.269691
561.152937	0.269170
561.366319	0.268988
561.579683	0.268289
561.793029	0.268718
562.006357	0.269080
562.219667	0.269272
562.432958	0.269352
562.646231	0.269713
562.859486	0.269987
563.072723	0.270184
563.285941	0.270641
563.499141	0.271116
563.712323	0.271239
563.925487	0.271133
564.138632	0.271220
564.351760	0.271797
564.564869	0.271601
564.777960	0.271622
564.991032	0.271705
565.204087	0.272088
565.417123	0.272405
565.630141	0.272710
565.843140	0.272741
566.056122	0.272853
566.269085	0.272897
566.482030	0.273112
566.694957	0.273355
566.907866	0.273410
567.120756	0.273752
567.333628	0.273519
567.546482	0.273626
567.759318	0.273845
567.972135	0.274480
568.184935	0.274677
568.397716	0.274892
568.610478	0.275203
568.823223	0.275695
569.035949	0.275382
569.248657	0.275778
569.461347	0.275804
569.674019	0.276151
569.886672	0.275913
570.099308	0.276074
570.311925	0.276283
570.524523	0.276393
570.737104	0.276703
570.949666	0.277187
571.162210	0.277612
571.374736	0.277446
571.587244	0.277305
571.799733	0.277276
572.012205	0.276996
572.224658	0.277199
572.437092	0.277251
572.649509	0.277126
572.861907	0.277582
573.074287	0.277615
573.286649	0.277888
573.498993	0.277801
573.711318	0.278080
573.923625	0.278352
574.135914	0.278506
574.348185	0.278310
574.560438	0.278397
574.772672	0.278035
574.984888	0.277860
575.197086	0.277772
575.409266	0.278274
575.621427	0.278206
575.833570	0.278635
576.045695	0.278710
576.257802	0.278722
576.469890	0.278881
576.681961	0.279183
576.894013	0.279689
577.106046	0.280107
577.318062	0.280389
577.530059	0.280618
577.742039	0.280241
577.954000	0.280053
578.165942	0.280187
578.377867	0.280149
578.589773	0.280005
578.801661	0.280283
579.013531	0.280192
579.225382	0.280192
579.437216	0.280665
579.649031	0.281551
579.860828	0.281218
580.072606	0.281668
580.284367	0.281895
580.496109	0.282226
580.707833	0.282156
580.919539	0.282389
581.131227	0.282497
581.342896	0.282351
581.554547	0.282267
581.766180	0.283025
581.977795	0.283416
582.189391	0.283673
582.400969	0.283930
582.612529	0.283947
582.824071	0.283920
583.035595	0.284289
583.247100	0.284782
583.458587	0.284551
583.670056	0.284917
583.881506	0.284981
584.092939	0.285043
584.304353	0.285217
584.515749	0.285237
584.727127	0.285607
584.938486	0.285749
585.149828	0.285870
585.361151	0.286417
585.572456	0.286586
585.783742	0.286809
585.995011	0.287332
586.206261	0.287553
586.417493	0.287642
586.628706	0.287889
586.839902	0.287916
587.051079	0.287967
587.262238	0.287703
587.473379	0.287482
587.684502	0.287254
587.895606	0.286824
588.106692	0.287265
588.317760	0.287701
588.528810	0.287919
588.739841	0.288174
588.950855	0.287759
589.161850	0.288021
589.372827	0.288847
589.583785	0.289099
589.794726	0.289212
590.005648	0.289063
590.216552	0.288855
590.427437	0.288304
590.638305	0.288379
590.849154	0.288852
591.059985	0.289281
591.270798	0.288477
591.481592	0.288831
591.692369	0.289374
591.903127	0.289683
592.113867	0.290217
592.324588	0.290925
592.535292	0.290858
592.745977	0.291029
592.956644	0.291492
593.167293	0.292029
593.377923	0.291988
593.588536	0.292370
593.799130	0.291882
594.009706	0.291838
594.220263	0.291987
594.430803	0.292450
594.641324	0.293054
594.851827	0.292453
595.062312	0.292828
595.272778	0.292856
595.483227	0.292444
595.693657	0.292897
595.904069	0.293421
596.114462	0.293580
596.324838	0.293302
596.535195	0.293027
596.745534	0.293509
596.955855	0.293609
597.166157	0.294156
597.376441	0.294565
597.586707	0.294589
597.796955	0.294590
598.007185	0.294692
598.217396	0.295212
598.427589	0.295365
598.637764	0.295623
598.847921	0.295620
599.058060	0.295206
599.268180	0.295458
599.478282	0.295674
599.688366	0.295680
599.898431	0.295889
600.108479	0.296084
600.318508	0.296326
600.528519	0.296521
600.738511	0.296688
600.948486	0.297105
601.158442	0.297225
601.368380	0.297528
601.578300	0.297791
601.788202	0.298127
601.998085	0.298194
602.207950	0.298421
602.417797	0.298536
602.627626	0.298633
602.837436	0.298954
603.047228	0.298957
603.257002	0.298949
603.466758	0.298918
603.676496	0.298647
603.886215	0.298673
604.095916	0.298542
604.305599	0.298750
604.515264	0.298968
604.724910	0.299423
604.934538	0.299727
605.144148	0.300133
605.353740	0.300670
605.563314	0.300974
605.772869	0.301163
605.982406	0.301378
606.191925	0.301428
606.401425	0.302282
606.610908	0.302069
606.820372	0.302149
607.029818	0.302094
607.239246	0.301725
607.448655	0.302018
607.658047	0.302015
607.867420	0.302634
608.076775	0.302819
608.286111	0.302230
608.495430	0.302328
608.704730	0.302669
608.914012	0.302502
609.123275	0.302742
609.332521	0.302757
609.541748	0.303024
609.750957	0.303262
609.960148	0.303508
610.169321	0.303754
610.378475	0.303667
610.587611	0.303467
610.796729	0.304076
611.005829	0.304479
611.214910	0.304720
611.423974	0.305149
611.633019	0.304762
611.842045	0.304997
612.051054	0.305020
612.260044	0.304984
612.469017	0.305158
612.677970	0.305464
612.886906	0.305410
613.095824	0.305511
613.304723	0.305454
613.513604	0.305469
613.722467	0.305335
613.931311	0.305566
614.140138	0.306201
614.348946	0.306334
614.557736	0.306206
614.766507	0.306483
614.975261	0.306413
615.183996	0.306444
615.392713	0.306663
615.601412	0.307108
615.810092	0.307067
616.018754	0.307136
616.227399	0.307628
616.436024	0.307568
616.644632	0.307544
616.853222	0.307776
617.061793	0.308033
617.270346	0.308512
617.478880	0.308458
617.687397	0.308925
617.895895	0.309240
618.104375	0.308941
618.312837	0.309016
618.521281	0.309122
618.729706	0.309129
618.938113	0.309304
619.146502	0.309263
619.354873	0.309229
619.563226	0.309333
619.771560	0.309240
619.979876	0.309846
620.188174	0.310313
620.396453	0.310293
620.604715	0.310391
620.812958	0.310551
621.021183	0.310658
621.229390	0.310724
621.437578	0.310544
621.645748	0.310413
621.853900	0.310453
622.062034	0.310383
622.270150	0.310714
622.478247	0.311166
622.686326	0.310933
622.894387	0.311192
623.102430	0.311268
623.310454	0.311293
623.518461	0.311894
623.726449	0.311834
623.934418	0.312123
624.142370	0.312290
624.350303	0.312312
624.558218	0.312741
624.766115	0.312991
624.973994	0.313117
625.181855	0.313653
625.389697	0.313596
625.597521	0.313619
625.805327	0.313738
626.013114	0.313880
626.220883	0.314305
626.428634	0.314489
626.636367	0.314373
626.844082	0.314642
627.051778	0.314727
627.259457	0.314871
627.467117	0.314912
627.674758	0.314951
627.882382	0.315273
628.089987	0.315212
628.297574	0.315421
628.505143	0.315753
628.712694	0.316371
628.920226	0.316496
629.127740	0.316721
629.335236	0.317032
629.542714	0.317488
629.750174	0.317544
629.957615	0.317793
630.165038	0.317938
630.372443	0.318060
630.579829	0.317862
630.787198	0.318011
630.994548	0.317903
631.201880	0.318252
631.409194	0.318065
631.616489	0.318139
631.823766	0.317831
632.031025	0.318057
632.238266	0.318091
632.445489	0.318110
632.652693	0.318125
632.859879	0.318612
633.067047	0.318716
633.274197	0.319016
633.481329	0.319094
633.688442	0.319509
633.895537	0.319573
634.102614	0.319779
634.309672	0.319951
634.516713	0.320135
634.723735	0.320262
634.930739	0.320531
635.137724	0.320624
635.344692	0.320759
635.551641	0.321157
635.758572	0.321280
635.965485	0.321106
636.172379	0.321213
636.379256	0.321602
636.586114	0.321585
636.792954	0.321736
636.999775	0.322048
637.206579	0.322305
637.413364	0.322535
637.620131	0.322876
637.826880	0.323385
638.033610	0.323862
638.240323	0.324217
638.447017	0.324398
638.653692	0.324643
638.860350	0.324561
639.066990	0.324633
639.273611	0.324713
639.480214	0.324682
639.686798	0.324995
639.893365	0.325046
640.099913	0.324955
640.306443	0.325131
640.512955	0.325029
640.719449	0.325521
640.925924	0.325734
641.132381	0.325679
641.338820	0.325936
641.545241	0.325855
641.751644	0.325883
641.958028	0.326114
642.164394	0.326282
642.370742	0.326377
642.577071	0.326131
642.783383	0.326260
642.989676	0.326680
643.195951	0.327027
643.402207	0.327048
643.608446	0.327033
643.814666	0.327032
644.020868	0.327245
644.227052	0.327359
644.433218	0.327796
644.639365	0.328011
644.845494	0.328213
645.051605	0.327970
645.257698	0.328121
645.463772	0.328562
645.669828	0.328673
645.875866	0.329169
646.081886	0.329813
646.287888	0.330119
646.493871	0.330538
646.699836	0.330720
646.905783	0.330944
647.111712	0.331648
647.317622	0.332119
647.523514	0.332523
647.729388	0.332333
647.935244	0.332251
648.141082	0.332417
648.346901	0.332621
648.552702	0.332770
648.758485	0.333199
648.964250	0.333036
649.169996	0.332629
649.375724	0.332728
649.581434	0.333221
649.787126	0.333284
649.992800	0.333422
650.198455	0.333569
650.404092	0.333619
650.609711	0.333740
650.815311	0.334288
651.020894	0.335076
651.226458	0.335439
651.432004	0.335520
651.637532	0.335930
651.843041	0.336258
652.048532	0.336460
652.254006	0.336670
652.459460	0.336765
652.664897	0.336673
652.870315	0.336954
653.075716	0.337182
653.281097	0.337423
653.486461	0.337539
653.691807	0.337545
653.897134	0.337684
654.102443	0.337922
654.307734	0.338155
654.513006	0.338384
654.718261	0.338315
654.923497	0.338443
655.128715	0.338749
655.333915	0.338895
655.539096	0.338903
655.744259	0.339053
655.949404	0.339380
656.154531	0.339692
656.359640	0.340066
656.564730	0.340249
656.769802	0.340216
656.974856	0.340037
657.179892	0.340245
657.384909	0.340538
657.589908	0.340781
657.794889	0.340703
657.999852	0.340877
658.204797	0.340976
658.409723	0.341090
658.614631	0.341355
658.819521	0.341727
659.024393	0.341910
659.229246	0.342329
659.434081	0.342515
659.638898	0.342630
659.843697	0.342840
660.048478	0.343162
660.253240	0.343511
660.457984	0.343918
660.662710	0.344259
660.867417	0.344787
661.072107	0.345137
661.276778	0.345584
661.481431	0.346515
661.686066	0.346868
661.890682	0.347060
662.095281	0.347379
662.299861	0.347663
662.504422	0.347774
662.708966	0.347947
662.913491	0.348093
663.117999	0.348103
663.322488	0.347997
663.526958	0.348110
663.731411	0.348367
663.935845	0.348435
664.140261	0.348570
664.344659	0.348639
664.549038	0.348519
664.753400	0.348459
664.957743	0.348666
665.162068	0.349004
665.366375	0.349069
665.570663	0.349079
665.774933	0.349228
665.979185	0.349541
666.183419	0.349683
666.387635	0.349985
666.591832	0.350514
666.796011	0.350890
667.000172	0.350698
667.204315	0.351208
667.408439	0.351526
667.612545	0.351752
667.816634	0.351685
668.020703	0.352142
668.224755	0.352664
668.428788	0.352746
668.632803	0.353013
668.836800	0.353519
669.040779	0.353641
669.244739	0.353689
669.448681	0.354028
669.652605	0.354411
669.856511	0.354563
670.060399	0.354733
670.264268	0.355000
670.468119	0.354887
670.671952	0.355283
670.875767	0.355617
671.079563	0.355903
671.283341	0.356146
671.487101	0.356471
671.690843	0.356991
671.894567	0.357229
672.098272	0.357486
672.301959	0.357944
672.505628	0.357676
672.709278	0.357620
672.912911	0.357929
673.116525	0.358240
673.320121	0.358485
673.523699	0.358527
673.727258	0.358576
673.930799	0.358740
674.134322	0.358968
674.337827	0.359437
674.541314	0.360053
674.744782	0.360315
674.948232	0.360431
675.151664	0.360731
675.355078	0.361024
675.558474	0.361474
675.761851	0.361579
675.965210	0.361845
676.168551	0.361999
676.371873	0.362022
676.575178	0.362105
676.778464	0.362345
676.981732	0.362509
677.184981	0.362575
677.388213	0.362391
677.591426	0.362641
677.794621	0.362920
677.997798	0.363441
678.200956	0.363592
678.404097	0.364045
678.607219	0.364431
678.810323	0.364376
679.013408	0.364452
679.216476	0.364838
679.419525	0.364997
679.622556	0.364991
679.825569	0.364887
680.028563	0.365092
680.231540	0.365196
680.434498	0.365229
680.637438	0.365693
680.840359	0.366041
681.043263	0.366129
681.246148	0.366617
681.449015	0.366854
681.651864	0.367147
681.854694	0.367084
682.057506	0.366913
682.260301	0.366944
682.463076	0.366945
682.665834	0.367031
682.868573	0.367279
683.071295	0.367312
683.273998	0.367627
683.476682	0.367858
683.679349	0.368481
683.881997	0.369322
684.084627	0.369943
684.287239	0.370295
684.489833	0.370749
684.692408	0.371038
684.894965	0.371348
685.097504	0.371506
685.300025	0.371856
685.502527	0.371819
685.705012	0.371646
685.907478	0.371103
686.109925	0.371303
686.312355	0.371516
686.514766	0.371718
686.717159	0.371647
686.919534	0.371872
687.121891	0.371698
687.324230	0.371900
687.526550	0.372367
687.728852	0.372931
687.931136	0.372972
688.133401	0.373098
688.335649	0.373178
688.537878	0.373483
688.740089	0.373555
688.942281	0.373577
689.144456	0.373808
689.346612	0.373812
689.548750	0.373998
689.750870	0.374035
689.952971	0.374189
690.155055	0.374456
690.357120	0.374774
690.559167	0.374852
690.761195	0.375208
690.963206	0.375222
691.165198	0.375299
691.367172	0.375551
691.569128	0.375984
691.771065	0.376155
691.972984	0.376320
692.174885	0.376413
692.376768	0.376703
692.578633	0.376782
692.780479	0.377022
692.982308	0.377301
693.184118	0.377514
693.385909	0.377581
693.587683	0.377495
693.789438	0.377611
693.991175	0.377392
694.192894	0.377426
694.394595	0.377471
694.596277	0.377107
694.797941	0.377104
694.999587	0.377015
695.201215	0.376964
695.402824	0.376922
695.604416	0.377130
695.805989	0.377662
696.007543	0.377842
696.209080	0.377963
696.410598	0.378265
696.612099	0.378403
696.813580	0.378443
697.015044	0.378739
697.216490	0.379190
697.417917	0.379285
697.619326	0.379345
697.820717	0.379309
698.022089	0.379810
698.223444	0.380150
698.424780	0.380010
698.626098	0.380540
698.827397	0.380646
699.028679	0.380594
699.229942	0.380604
699.431187	0.380368
699.632414	0.380544
699.833622	0.380540
700.034813	0.380601
700.235985	0.381046
700.437139	0.380735
700.638274	0.380622
700.839392	0.381026
701.040491	0.381205
701.241572	0.381549
701.442635	0.381791
701.643679	0.381923
701.844706	0.382125
702.045714	0.382218
702.246704	0.382436
702.447675	0.382740
702.648629	0.382522
702.849564	0.382471
703.050481	0.382550
703.251380	0.382532
703.452260	0.382347
703.653122	0.382455
703.853966	0.382507
704.054792	0.382609
704.255600	0.382424
704.456389	0.382712
704.657160	0.382585
704.857913	0.382474
705.058648	0.382292
705.259365	0.382370
705.460063	0.382489
705.660743	0.382224
705.861405	0.382220
706.062048	0.382446
706.262674	0.382070
706.463281	0.382212
706.663870	0.382457
706.864441	0.382567
707.064993	0.382489
707.265527	0.382139
707.466043	0.382165
707.666541	0.382010
707.867021	0.381993
708.067482	0.382314
708.267925	0.382570
708.468350	0.382354
708.668757	0.382450
708.869145	0.382639
709.069516	0.382877
709.269868	0.383253
709.470201	0.383556
709.670517	0.383559
709.870814	0.383732
710.071093	0.383596
710.271354	0.383840
710.471597	0.383724
710.671821	0.383768
710.872028	0.383883
711.072216	0.383954
711.272385	0.384028
711.472537	0.383916
711.672670	0.383622
711.872785	0.383699
712.072882	0.383608
712.272961	0.383844
712.473021	0.383644
712.673063	0.383342
712.873087	0.382939
713.073093	0.382549
713.273081	0.382647
713.473050	0.382897
713.673001	0.382816
713.872934	0.382869
714.072849	0.382651
714.272745	0.382764
714.472623	0.382858
714.672483	0.383046
714.872325	0.383366
715.072148	0.383572
715.271954	0.383288
715.471741	0.383209
715.671509	0.383095
715.871260	0.382997
716.070992	0.383043
716.270707	0.383216
716.470403	0.383073
716.670080	0.382938
716.869740	0.382730
717.069381	0.382660
717.269004	0.382710
717.468609	0.382743
717.668195	0.382535
717.867764	0.382298
718.067314	0.382064
718.266846	0.382012
718.466360	0.381711
718.665855	0.381540
718.865332	0.381183
719.064791	0.380882
719.264232	0.380484
719.463655	0.380647
719.663059	0.380617
719.862445	0.380365
720.061813	0.380266
720.261163	0.380352
720.460494	0.380087
720.659807	0.380280
720.859102	0.380180
721.058379	0.380362
721.257638	0.380149
721.456878	0.379952
721.656100	0.379845
721.855304	0.379483
722.054490	0.379257
722.253657	0.379007
722.452806	0.379001
722.651937	0.378941
722.851050	0.378780
723.050145	0.378834
723.249221	0.378864
723.448279	0.378870
723.647319	0.378914
723.846340	0.378748
724.045344	0.378665
724.244329	0.378544
724.443296	0.378501
724.642245	0.378274
724.841175	0.378137
725.040088	0.378091
725.238982	0.377869
725.437857	0.377583
725.636715	0.377456
725.835554	0.377830
726.034376	0.377746
726.233179	0.377629
726.431963	0.377461
726.630730	0.377331
726.829478	0.377060
727.028208	0.377085
727.226920	0.377141
727.425614	0.377030
727.624289	0.376493
727.822946	0.376102
728.021585	0.375906
728.220206	0.375614
728.418808	0.375040
728.617392	0.374597
728.815958	0.374002
729.014506	0.373957
729.213036	0.373757
729.411547	0.373707
729.610040	0.373292
729.808515	0.372876
730.006972	0.372636
730.205410	0.372757
730.403831	0.372676
730.602233	0.372984
730.800616	0.372755
730.998982	0.372364
731.197329	0.371835
731.395658	0.372208
731.593969	0.372175
731.792262	0.372294
731.990536	0.371988
732.188793	0.371986
732.387031	0.371809
732.585250	0.371488
732.783452	0.371681
732.981635	0.371891
733.179800	0.371588
733.377947	0.371348
733.576076	0.370995
733.774186	0.370987
733.972278	0.370848
734.170352	0.370547
734.368408	0.370524
734.566446	0.370067
734.764465	0.369680
734.962466	0.369133
735.160449	0.369036
735.358413	0.369111
735.556360	0.369091
735.754288	0.368773
735.952198	0.368692
736.150090	0.368269
736.347963	0.368155
736.545818	0.368266
736.743655	0.368165
736.941474	0.368039
737.139275	0.367528
737.337057	0.367304
737.534821	0.367229
737.732567	0.366835
737.930295	0.366774
738.128005	0.366590
738.325696	0.366119
738.523369	0.366089
738.721024	0.365975
738.918660	0.366186
739.116279	0.365609
739.313879	0.365447
739.511461	0.365269
739.709024	0.365204
739.906570	0.365132
740.104097	0.364985
740.301606	0.364922
740.499097	0.364746
740.696569	0.364190
740.894024	0.364360
741.091460	0.364044
741.288878	0.363856
741.486277	0.363648
741.683659	0.363361
741.881022	0.363232
742.078367	0.362845
742.275694	0.362354
742.473002	0.362269
742.670293	0.361934
742.867565	0.361961
743.064819	0.361987
743.262054	0.361841
743.459272	0.361622
743.656471	0.361627
743.853652	0.361408
744.050815	0.361268
744.247959	0.361220
744.445085	0.361095
744.642194	0.360824
744.839283	0.360434
745.036355	0.360150
745.233408	0.360142
745.430444	0.359532
745.627461	0.359715
745.824459	0.359613
746.021440	0.359372
746.218402	0.359159
746.415346	0.358883
746.612272	0.358844
746.809180	0.358698
747.006069	0.358312
747.202940	0.358393
747.399793	0.357946
747.596628	0.358140
747.793444	0.358044
747.990243	0.357800
748.187023	0.357407
748.383784	0.357337
748.580528	0.357002
748.777253	0.356989
748.973960	0.356684
749.170649	0.356505
749.367320	0.356044
749.563973	0.355456
749.760607	0.355180
749.957223	0.355157
750.153821	0.354468
750.350400	0.354457
750.546962	0.354087
750.743505	0.353843
750.940030	0.353364
751.136536	0.352818
751.333025	0.352608
751.529495	0.352441
751.725947	0.352204
751.922381	0.352318
752.118796	0.352057
752.315194	0.351890
752.511573	0.351475
752.707934	0.351376
752.904276	0.351464
753.100601	0.351447
753.296907	0.351355
753.493195	0.351154
753.689465	0.351038
753.885716	0.350696
754.081949	0.350668
754.278164	0.350956
754.474361	0.350905
754.670540	0.350611
754.866700	0.350386
755.062843	0.350163
755.258967	0.349699
755.455072	0.349261
755.651160	0.349032
755.847229	0.348563
756.043280	0.348198
756.239313	0.348035
756.435328	0.347945
756.631324	0.347571
756.827302	0.347341
757.023262	0.347409
757.219204	0.347266
757.415127	0.346838
757.611033	0.346874
757.806920	0.346788
758.002788	0.346340
758.198639	0.345824
758.394471	0.345872
758.590286	0.345455
758.786081	0.345583
758.981859	0.345389
759.177619	0.345593
759.373360	0.345287
759.569083	0.344965
759.764788	0.344784
759.960474	0.344809
760.156143	0.344666
760.351793	0.344789
760.547425	0.344404
760.743038	0.344075
760.938634	0.344082
761.134211	0.343865
761.329770	0.343463
761.525311	0.343618
761.720833	0.343553
761.916338	0.343442
762.111824	0.343118
762.307292	0.343189
762.502741	0.343204
762.698173	0.342937
762.893586	0.342842
763.088981	0.342834
763.284358	0.342691
763.479716	0.342407
763.675057	0.342005
763.870379	0.341864
764.065683	0.341371
764.260968	0.341055
764.456236	0.340810
764.651485	0.340593
764.846716	0.340401
765.041929	0.340364
765.237123	0.340145
765.432299	0.340068
765.627457	0.340048
765.822597	0.339949
766.017719	0.339967
766.212822	0.339852
766.407907	0.339725
766.602974	0.339773
766.798023	0.339388
766.993054	0.339609
767.188066	0.339525
767.383060	0.339211
767.578036	0.339312
767.772993	0.339478
767.967933	0.339272
768.162854	0.339504
768.357757	0.339327
768.552642	0.339250
768.747508	0.339004
768.942356	0.339193
769.137186	0.339266
769.331998	0.339008
769.526792	0.338528
769.721567	0.338595
769.916324	0.338016
770.111063	0.337841
770.305784	0.337609
770.500486	0.337366
770.695171	0.336802
770.889837	0.336428
771.084484	0.336143
771.279114	0.335941
771.473725	0.335534
771.668318	0.335333
771.862893	0.335278
772.057450	0.335069
772.251988	0.334764
772.446509	0.334827
772.641011	0.334836
772.835494	0.334576
773.029960	0.334624
773.224407	0.334243
773.418836	0.334135
773.613247	0.333916
773.807640	0.334093
774.002014	0.334110
774.196370	0.333942
774.390708	0.333508
774.585028	0.333493
774.779330	0.333344
774.973613	0.333429
775.167878	0.333577
775.362125	0.333615
775.556354	0.333610
775.750564	0.333679
775.944756	0.333561
776.138930	0.333714
776.333086	0.333701
776.527223	0.333690
776.721343	0.333934
776.915444	0.333825
777.109526	0.333945
777.303591	0.333494
777.497637	0.333509
777.691666	0.333632
777.885676	0.333706
778.079667	0.334046
778.273641	0.333865
778.467596	0.333721
778.661533	0.333723
778.855452	0.333822
779.049352	0.334120
779.243235	0.334065
779.437099	0.333921
779.630945	0.334199
779.824773	0.334186
780.018582	0.334437
780.212373	0.334584
780.406146	0.334350
780.599901	0.333938
780.793638	0.333981
780.987356	0.333970
781.181056	0.334206
781.374738	0.334302
781.568402	0.334120
781.762047	0.334153
781.955674	0.334151
782.149283	0.334647
782.342874	0.334778
782.536447	0.334632
782.730001	0.334933
782.923537	0.334915
783.117055	0.334554
783.310555	0.334554
783.504036	0.334349
783.697499	0.334368
783.890944	0.334269
784.084371	0.334365
784.277780	0.334536
784.471170	0.334240
784.664542	0.334465
784.857896	0.334485
785.051231	0.334401
785.244549	0.334731
785.437848	0.334965
785.631129	0.334999
785.824392	0.335193
786.017636	0.335337
786.210863	0.335480
786.404071	0.335408
786.597260	0.335587
786.790432	0.335924
786.983585	0.336123
787.176721	0.335738
787.369838	0.336110
787.562936	0.335985
787.756017	0.336124
787.949079	0.336224
788.142123	0.336093
788.335149	0.336154
788.528156	0.336266
788.721146	0.336202
788.914117	0.336304
789.107070	0.335952
789.300005	0.336184
789.492921	0.336167
789.685819	0.336320
789.878699	0.336548
790.071561	0.336688
790.264405	0.336381
790.457230	0.336391
790.650037	0.336696
790.842826	0.336985
791.035597	0.336799
791.228349	0.336807
791.421084	0.336959
791.613800	0.337245
791.806497	0.337336
791.999177	0.337886
792.191838	0.337861
792.384481	0.338089
792.577106	0.338141
792.769713	0.338456
792.962301	0.338482
793.154871	0.338337
793.347423	0.338258
793.539957	0.338360
793.732473	0.338369
793.924970	0.338833
794.117449	0.338991
794.309910	0.339241
794.502353	0.339404
794.694777	0.339910
794.887183	0.340250
795.079571	0.340578
795.271941	0.340896
795.464293	0.341242
795.656626	0.341255
795.848941	0.341499
796.041238	0.341793
796.233516	0.342076
796.425777	0.342063
796.618019	0.342323
796.810243	0.342424
797.002449	0.342685
797.194636	0.342525
797.386805	0.342890
797.578956	0.342832
797.771089	0.343126
797.963204	0.343414
798.155300	0.343585
798.347378	0.344083
798.539438	0.344341
798.731480	0.344494
798.923503	0.344822
799.115509	0.344869
799.307496	0.345104
799.499465	0.345006
799.691415	0.345132
799.883348	0.345282
800.075262	0.345027
800.267158	0.345184
800.459035	0.345243
800.650895	0.345249
800.842736	0.345425
801.034559	0.345860
801.226364	0.345912
801.418150	0.345967
801.609919	0.346253
801.801669	0.346480
801.993401	0.346927
802.185114	0.347198
802.376810	0.347863
802.568487	0.348040
802.760146	0.347962
802.951787	0.348636
803.143409	0.348656
803.335014	0.348746
803.526600	0.349084
803.718168	0.349173
803.909717	0.349305
804.101249	0.349234
804.292762	0.349604
804.484257	0.349887
804.675734	0.349806
804.867192	0.350565
805.058632	0.351041
805.250054	0.351142
805.441458	0.351103
805.632844	0.351469
805.824211	0.351849
806.015561	0.352012
806.206891	0.352419
806.398204	0.352525
806.589499	0.352661
806.780775	0.352890
806.972033	0.353219
807.163273	0.353815
807.354495	0.354026
807.545698	0.354566
807.736883	0.355387
807.928050	0.355977
808.119199	0.356526
808.310329	0.356977
808.501441	0.357513
808.692535	0.358209
808.883611	0.358591
809.074669	0.359219
809.265708	0.359305
809.456729	0.359351
809.647732	0.359262
809.838717	0.359633
810.029683	0.359983
810.220632	0.360280
810.411562	0.360624
810.602474	0.360792
810.793367	0.361235
810.984242	0.361609
811.175100	0.361734
811.365938	0.362368
811.556759	0.362423
811.747562	0.362680
811.938346	0.363229
812.129112	0.363236
812.319860	0.363818
812.510589	0.364123
812.701300	0.364690
812.891994	0.365232
813.082668	0.365491
813.273325	0.366075
813.463964	0.366541
813.654584	0.366652
813.845186	0.367251
814.035769	0.367638
814.226335	0.368130
814.416882	0.368313
814.607411	0.368499
814.797922	0.368776
814.988415	0.369281
815.178889	0.369415
815.369345	0.369794
815.559783	0.370294
815.750203	0.370811
815.940605	0.371088
816.130988	0.371576
816.321353	0.372253
816.511700	0.372468
816.702028	0.372970
816.892339	0.373318
817.082631	0.373556
817.272905	0.373711
817.463161	0.373505
817.653398	0.373888
817.843617	0.374352
818.033819	0.374599
818.224001	0.375508
818.414166	0.375589
818.604312	0.376066
818.794440	0.376558
818.984550	0.376731
819.174642	0.377362
819.364716	0.377796
819.554771	0.378144
819.744808	0.378617
819.934827	0.378864
820.124827	0.379464
820.314810	0.379777
820.504774	0.380130
820.694720	0.380563
820.884647	0.381011
821.074557	0.381123
821.264448	0.381180
821.454321	0.381449
821.644176	0.381652
821.834012	0.382152
822.023831	0.382577
822.213631	0.383103
822.403413	0.383724
822.593176	0.384167
822.782922	0.384557
822.972649	0.385287
823.162358	0.385984
823.352049	0.386796
823.541721	0.386879
823.731376	0.387554
823.921012	0.387953
824.110629	0.388399
824.300229	0.388824
824.489811	0.389113
824.679374	0.389210
824.868919	0.389238
825.058445	0.389437
825.247954	0.390132
825.437444	0.390109
825.626916	0.390468
825.816370	0.391116
826.005806	0.391422
826.195223	0.392247
826.384622	0.392927
826.574003	0.393770
826.763366	0.394204
826.952711	0.395126
827.142037	0.395932
827.331345	0.396315
827.520635	0.396578
827.709906	0.397357
827.899160	0.397339
828.088395	0.397635
828.277612	0.397806
828.466810	0.398575
828.655991	0.398307
828.845153	0.398579
829.034297	0.399154
829.223423	0.399369
829.412531	0.399288
829.601620	0.399822
829.790691	0.400353
829.979744	0.401024
830.168779	0.401121
830.357795	0.401660
830.546793	0.402173
830.735773	0.402395
830.924735	0.403047
831.113679	0.404023
831.302604	0.404598
831.491511	0.405006
831.680400	0.404822
831.869271	0.404974
832.058123	0.405459
832.246957	0.406228
832.435773	0.406659
832.624571	0.407119
832.813351	0.407237
833.002112	0.407903
833.190855	0.408999
833.379580	0.409865
833.568287	0.410652
833.756975	0.411540
833.945645	0.411997
834.134297	0.412618
834.322931	0.413122
834.511547	0.413621
834.700144	0.413935
834.888723	0.413834
835.077284	0.414407
835.265826	0.415010
835.454351	0.415313
835.642857	0.415288
835.831345	0.415962
836.019815	0.416549
836.208266	0.417548
836.396699	0.418292
836.585114	0.418964
836.773511	0.419424
836.961890	0.420155
837.150250	0.420480
837.338592	0.421370
837.526916	0.422074
837.715222	0.422820
837.903510	0.423276
838.091779	0.424108
838.280030	0.425070
838.468263	0.425777
838.656477	0.426337
838.844674	0.426995
839.032852	0.427706
839.221012	0.428194
839.409153	0.428603
839.597277	0.429445
839.785382	0.429887
839.973469	0.430031
840.161538	0.430589
840.349589	0.430854
840.537621	0.431631
840.725635	0.432191
840.913631	0.432979
841.101609	0.433659
841.289568	0.434229
841.477509	0.434393
841.665432	0.435485
841.853337	0.436439
842.041224	0.437055
842.229092	0.437603
842.416942	0.438460
842.604774	0.439167
842.792588	0.440001
842.980383	0.440497
843.168160	0.441635
843.355919	0.442159
843.543660	0.442473
843.731382	0.443176
843.919087	0.443732
844.106773	0.444057
844.294441	0.444430
844.482090	0.444740
844.669722	0.445011
844.857335	0.445655
845.044930	0.445765
845.232507	0.446124
845.420065	0.446625
845.607605	0.447189
845.795127	0.447631
845.982631	0.448047
846.170117	0.448518
846.357584	0.449161
846.545033	0.449125
846.732464	0.449539
846.919877	0.449753
847.107272	0.450546
847.294648	0.451309
847.482006	0.451870
847.669346	0.452443
847.856667	0.453092
848.043971	0.453394
848.231256	0.454395
848.418523	0.455124
848.605771	0.456261
848.793002	0.456286
848.980214	0.456629
849.167408	0.457252
849.354584	0.457637
849.541742	0.458124
849.728881	0.459251
849.916002	0.460006
850.103105	0.460708
850.290190	0.460939
850.477256	0.462048
850.664304	0.462517
850.851334	0.462928
851.038346	0.463310
851.225340	0.464190
851.412315	0.464232
851.599272	0.464212
851.786211	0.464511
851.973132	0.465252
852.160034	0.465640
852.346918	0.466534
852.533784	0.467215
852.720632	0.468209
852.907462	0.468182
853.094273	0.468638
853.281066	0.469708
853.467841	0.470551
853.654598	0.471149
853.841336	0.471372
854.028056	0.472043
854.214758	0.472783
854.401442	0.473192
854.588107	0.474133
854.774755	0.474583
854.961384	0.474386
855.147995	0.474885
855.334587	0.475202
855.521162	0.475896
855.707718	0.476279
855.894256	0.476815
856.080775	0.477434
856.267277	0.477522
856.453760	0.478386
856.640225	0.479323
856.826672	0.479586
857.013101	0.480140
857.199511	0.481000
857.385903	0.481545
857.572277	0.481726
857.758633	0.481862
857.944970	0.482208
858.131290	0.482685
858.317591	0.483215
858.503873	0.483560
858.690138	0.483980
858.876384	0.484075
859.062612	0.484460
859.248822	0.484855
859.435014	0.485742
859.621188	0.486147
859.807343	0.486814
859.993480	0.487280
860.179599	0.488006
860.365699	0.488834
860.551781	0.489284
860.737846	0.489524
860.923891	0.490145
861.109919	0.490032
861.295929	0.491138
861.481920	0.491517
861.667893	0.491819
861.853848	0.491700
862.039784	0.492461
862.225702	0.492883
862.411603	0.492997
862.597484	0.493725
862.783348	0.494189
862.969193	0.493773
863.155021	0.494194
863.340830	0.494537
863.526620	0.495537
863.712393	0.495102
863.898147	0.495525
864.083883	0.496348
864.269601	0.496541
864.455301	0.497369
864.640982	0.498020
864.826645	0.497883
865.012290	0.498299
865.197917	0.498611
865.383526	0.499355
865.569116	0.499532
865.754688	0.499894
865.940242	0.500500
866.125777	0.500717
866.311295	0.500947
866.496794	0.501189
866.682275	0.501561
866.867737	0.501424
867.053182	0.501652
867.238608	0.502494
867.424016	0.502285
867.609406	0.502627
867.794778	0.503142
867.980131	0.503568
868.165466	0.504290
868.350783	0.505020
868.536082	0.505704
868.721362	0.506645
868.906625	0.506375
869.091869	0.507639
869.277094	0.507421
869.462302	0.507551
869.647491	0.507823
869.832662	0.508257
870.017815	0.508305
870.202950	0.509231
870.388066	0.509007
870.573165	0.510050
870.758245	0.509705
870.943306	0.510436
871.128350	0.510744
871.313375	0.511293
871.498382	0.511490
871.683371	0.512073
871.868342	0.512021
872.053294	0.512509
872.238229	0.512153
872.423144	0.512547
872.608042	0.512902
872.792922	0.513539
872.977783	0.513703
873.162626	0.514218
873.347451	0.514641
873.532258	0.515131
873.717046	0.515164
873.901816	0.515724
874.086568	0.516374
874.271302	0.516258
874.456017	0.516107
874.640715	0.516630
874.825394	0.516782
875.010055	0.516289
875.194697	0.516126
875.379322	0.517091
875.563928	0.517580
875.748516	0.517322
875.933085	0.517863
876.117637	0.518426
876.302170	0.518563
876.486685	0.519072
876.671182	0.519349
876.855661	0.520203
877.040121	0.519867
877.224563	0.520245
877.408987	0.521107
877.593393	0.521279
877.777780	0.521818
877.962150	0.522826
878.146501	0.522842
878.330833	0.523102
878.515148	0.523153
878.699444	0.523721
878.883722	0.523822
879.067982	0.524111
879.252224	0.524394
879.436447	0.524533
879.620653	0.524683
879.804840	0.525072
879.989008	0.525565
880.173159	0.525333
880.357291	0.525488
880.541405	0.526004
880.725501	0.525981
880.909579	0.526222
881.093638	0.526429
881.277680	0.526135
881.461703	0.525699
881.645707	0.526277
881.829694	0.526875
882.013662	0.526791
882.197612	0.526776
882.381544	0.527267
882.565458	0.527840
882.749353	0.527673
882.933230	0.527554
883.117089	0.528380
883.300930	0.527794
883.484753	0.527580
883.668557	0.527755
883.852343	0.527115
884.036111	0.526899
884.219861	0.526854
884.403592	0.526000
884.587305	0.526317
884.771000	0.526245
884.954677	0.526281
885.138335	0.526697
885.321976	0.526636
885.505598	0.527001
885.689201	0.527115
885.872787	0.526019
886.056354	0.526844
886.239904	0.526930
886.423434	0.526219
886.606947	0.526482
886.790442	0.526268
886.973918	0.526547
887.157376	0.526278
887.340816	0.525344
887.524237	0.525895
887.707641	0.525812
887.891026	0.525932
888.074393	0.526278
888.257741	0.526392
888.441072	0.526263
888.624384	0.525795
888.807678	0.526291
888.990954	0.527062
889.174211	0.527112
889.357451	0.527317
889.540672	0.527128
889.723875	0.527418
889.907059	0.527367
890.090226	0.527220
890.273374	0.527613
890.456504	0.527464
890.639616	0.527110
890.822709	0.526959
891.005785	0.526895
891.188842	0.527448
891.371881	0.527786
891.554901	0.527325
891.737904	0.527278
891.920888	0.527181
892.103854	0.526998
892.286802	0.526656
892.469731	0.527033
892.652643	0.527554
892.835536	0.526388
893.018410	0.525685
893.201267	0.525724
893.384106	0.526003
893.566926	0.525916
893.749728	0.525860
893.932511	0.525909
894.115277	0.525541
894.298024	0.524745
894.480753	0.525338
894.663464	0.525500
894.846157	0.525866
895.028831	0.525380
895.211487	0.525217
895.394125	0.524771
895.576745	0.525122
895.759346	0.524778
895.941930	0.524431
896.124495	0.523824
896.307041	0.523565
896.489570	0.522989
896.672080	0.523208
896.854573	0.522659
897.037046	0.523025
897.219502	0.522751
897.401940	0.523200
897.584359	0.523130
897.766760	0.522882
897.949143	0.522515
898.131507	0.522154
898.313854	0.521458
898.496182	0.521606
898.678492	0.521108
898.860783	0.520652
899.043057	0.519423
899.225312	0.519282
899.407549	0.518832
899.589768	0.518858
899.771968	0.518652
899.954151	0.518627
900.136315	0.517571
900.318461	0.517436
900.500588	0.516404
900.682698	0.516220
900.864789	0.515560
901.046862	0.515479
901.228917	0.514300
901.410953	0.513895
901.592971	0.513193
901.774972	0.512627
901.956953	0.511815
902.138917	0.512185
902.320862	0.512253
902.502790	0.511916
902.684699	0.511163
902.866589	0.511231
903.048462	0.510511
903.230316	0.510274
903.412152	0.510843
903.593970	0.510896
903.775770	0.510413
903.957551	0.509812
904.139314	0.509887
904.321059	0.509483
904.502786	0.508789
904.684494	0.508204
904.866185	0.507677
905.047857	0.506180
905.229510	0.504894
905.411146	0.503972
905.592763	0.503318
905.774363	0.502391
905.955943	0.502233
906.137506	0.501930
906.319051	0.502134
906.500577	0.501554
906.682085	0.501694
906.863575	0.501688
907.045046	0.502036
907.226500	0.501730
907.407935	0.501740
907.589352	0.500633
907.770750	0.500058
907.952131	0.499378
908.133493	0.498733
908.314837	0.498054
908.496163	0.497417
908.677470	0.496574
908.858760	0.495780
909.040031	0.494778
909.221284	0.495189
909.402518	0.494525
909.583735	0.494134
909.764933	0.494023
909.946113	0.493375
910.127275	0.492980
910.308418	0.492343
910.489544	0.491821
910.670651	0.491058
910.851740	0.489885
911.032810	0.489613
911.213863	0.489206
911.394897	0.488584
911.575913	0.487828
911.756911	0.487462
911.937890	0.486667
912.118851	0.485492
912.299794	0.484352
912.480719	0.483831
912.661626	0.483153
912.842514	0.481633
913.023384	0.480840
913.204236	0.480538
913.385070	0.479365
913.565886	0.478514
913.746683	0.477990
913.927462	0.478031
914.108223	0.478139
914.288965	0.476829
914.469690	0.477212
914.650396	0.476034
914.831084	0.475180
915.011754	0.474054
915.192405	0.473448
915.373038	0.472607
915.553653	0.471815
915.734250	0.469602
915.914829	0.469219
916.095389	0.467591
916.275931	0.467193
916.456455	0.466190
916.636961	0.465863
916.817448	0.465012
916.997917	0.464634
917.178368	0.463904
917.358801	0.463661
917.539216	0.462059
917.719612	0.461452
917.899990	0.460547
918.080350	0.460100
918.260692	0.459050
918.441015	0.458081
918.621320	0.456961
918.801607	0.454846
918.981876	0.453672
919.162127	0.452632
919.342359	0.451606
919.522573	0.451174
919.702769	0.449584
919.882947	0.448802
920.063106	0.448068
920.243247	0.447610
920.423370	0.447881
920.603475	0.447777
920.783562	0.447349
920.963630	0.446332
921.143680	0.444748
921.323712	0.443861
921.503725	0.443455
921.683721	0.443052
921.863698	0.441936
922.043657	0.441382
922.223598	0.439622
922.403520	0.438706
922.583424	0.437869
922.763311	0.436964
922.943178	0.436885
923.123028	0.435481
923.302859	0.434204
923.482673	0.432792
923.662467	0.431476
923.842244	0.430009
924.022003	0.429720
924.201743	0.427839
924.381465	0.426738
924.561169	0.425272
924.740854	0.423943
924.920522	0.422002
925.100171	0.421333
925.279802	0.420028
925.459414	0.419372
925.639009	0.417966
925.818585	0.416686
925.998143	0.415713
926.177683	0.414994
926.357205	0.414231
926.536708	0.414053
926.716193	0.412963
926.895660	0.411520
927.075109	0.410329
927.254539	0.408536
927.433951	0.408411
927.613345	0.407499
927.792721	0.406240
927.972079	0.405177
928.151418	0.403553
928.330739	0.401475
928.510042	0.400168
928.689327	0.400175
928.868593	0.400328
929.047841	0.399420
929.227071	0.398350
929.406283	0.396953
929.585476	0.395523
929.764652	0.393934
929.943809	0.393516
930.122948	0.391929
930.302068	0.390212
930.481171	0.388134
930.660255	0.386745
930.839321	0.385154
931.018369	0.383950
931.197398	0.382504
931.376409	0.381858
931.555402	0.381054
931.734377	0.381137
931.913334	0.379701
932.092272	0.379121
932.271192	0.377677
932.450094	0.375732
932.628978	0.374490
932.807844	0.373410
932.986691	0.372244
933.165520	0.370607
933.344331	0.369042
933.523123	0.367914
933.701898	0.366081
933.880654	0.365106
934.059392	0.364557
934.238111	0.363460
934.416813	0.362445
934.595496	0.360886
934.774161	0.359650
934.952808	0.357510
935.131437	0.356543
935.310047	0.354935
935.488639	0.352372
935.667213	0.351228
935.845769	0.349628
936.024306	0.348215
936.202825	0.347473
936.381326	0.346422
936.559809	0.346311
936.738274	0.344700
936.916720	0.342606
937.095148	0.342372
937.273558	0.340867
937.451950	0.340146
937.630323	0.338063
937.808678	0.336653
937.987015	0.335473
938.165334	0.333408
938.343635	0.332049
938.521917	0.331972
938.700181	0.331443
938.878427	0.330478
939.056655	0.328261
939.234864	0.327004
939.413055	0.325209
939.591228	0.324086
939.769383	0.323580
939.947519	0.322145
940.125638	0.320839
940.303738	0.318862
940.481820	0.316063
940.659883	0.314195
940.837929	0.313665
941.015956	0.311110
941.193965	0.309271
941.371955	0.306671
941.549928	0.304107
941.727882	0.302824
941.905818	0.300987
942.083736	0.299992
942.261636	0.300089
942.439517	0.297845
942.617380	0.296369
942.795225	0.295079
942.973052	0.294173
943.150860	0.293745
943.328651	0.291628
943.506423	0.290403
943.684176	0.288720
943.861912	0.286212
944.039629	0.284570
944.217328	0.284014
944.395009	0.280786
944.572672	0.277898
944.750317	0.275254
944.927943	0.273785
945.105551	0.273069
945.283141	0.271611
945.460712	0.269855
945.638265	0.268708
945.815801	0.267390
945.993317	0.267160
946.170816	0.266044
946.348297	0.264220
946.525759	0.262832
946.703203	0.259841
946.880629	0.258939
947.058036	0.258135
947.235425	0.257027
947.412797	0.254264
947.590149	0.251227
947.767484	0.251242
947.944800	0.250950
948.122099	0.249753
948.299379	0.248327
948.476640	0.247880
948.653884	0.243803
948.831109	0.242253
949.008316	0.241622
949.185505	0.242511
949.362676	0.240040
949.539828	0.238481
949.716962	0.235811
949.894078	0.234151
950.071176	0.232070
950.248256	0.232777
950.425317	0.230019
950.602360	0.230776
950.779385	0.229220
950.956391	0.228919
951.133380	0.227123
951.310350	0.227736
951.487302	0.228156
951.664235	0.225863
951.841151	0.225343
952.018048	0.225472
952.194927	0.222235
952.371788	0.220789
952.548631	0.218476
952.725455	0.218877
952.902261	0.216922
953.079049	0.214447
953.255819	0.213656
953.432570	0.211793
953.609303	0.211271
953.786018	0.211307
953.962715	0.209592
954.139394	0.206760
954.316054	0.205078
954.492696	0.202572
954.669320	0.202615
954.845926	0.202444
955.022513	0.201087
955.199083	0.199746
955.375634	0.197638
955.552166	0.195209
955.728681	0.197162
955.905177	0.195379
956.081655	0.194173
956.258115	0.191406
956.434557	0.192125
956.610980	0.191228
956.787385	0.189426
956.963772	0.188587
957.140141	0.188446
957.316492	0.185852
957.492824	0.184052
957.669138	0.185868
957.845434	0.185844
958.021712	0.182309
958.197971	0.181392
958.374212	0.182659
958.550435	0.184703
958.726640	0.183148
958.902826	0.182599
959.078995	0.183637
959.255145	0.181166
959.431277	0.183600
959.607390	0.182625
959.783486	0.182632
959.959563	0.180266
960.135622	0.177653
960.311662	0.177813
960.487685	0.177086
960.663689	0.176112
960.839675	0.174962
961.015643	0.171533
961.191593	0.173471
961.367524	0.174657
961.543437	0.176086
961.719332	0.176597
961.895209	0.176031
962.071067	0.173429
962.246907	0.171518
962.422730	0.170281
962.598533	0.170859
962.774319	0.168173
962.950086	0.167666
963.125835	0.166652
963.301566	0.166749
963.477279	0.168304
963.652973	0.171845
963.828650	0.171710
964.004308	0.171905
964.179947	0.169244
964.355569	0.171218
964.531172	0.170692
964.706757	0.170567
964.882324	0.169772
965.057873	0.170629
965.233403	0.168526
965.408916	0.171482
965.584410	0.173678
965.759885	0.175030
965.935343	0.175543
966.110782	0.173252
966.286203	0.172422
966.461606	0.171669
966.636991	0.171149
966.812357	0.172294
966.987705	0.171421
967.163035	0.170629
967.338347	0.170418
967.513641	0.170715
967.688916	0.170636
967.864173	0.171646
968.039412	0.170961
968.214632	0.170664
968.389835	0.169412
968.565019	0.168029
968.740185	0.166827
968.915333	0.166246
969.090462	0.162796
969.265573	0.165895
969.440667	0.165679
969.615741	0.163239
969.790798	0.164925
969.965836	0.167096
970.140856	0.167872
970.315858	0.169973
970.490842	0.170723
970.665808	0.173615
970.840755	0.170999
971.015684	0.169323
971.190595	0.173323
971.365487	0.170320
971.540362	0.169987
971.715218	0.169391
971.890056	0.169310
972.064875	0.169283
972.239677	0.166317
972.414460	0.165917
972.589225	0.166597
972.763972	0.164157
972.938700	0.165534
973.113411	0.165503
973.288103	0.165766
973.462777	0.165163
973.637432	0.165615
973.812070	0.167440
973.986689	0.169302
974.161290	0.169771
974.335873	0.169918
974.510437	0.170920
974.684984	0.170530
974.859512	0.170045
975.034022	0.169621
975.208513	0.167754
975.382987	0.168408
975.557442	0.166426
975.731879	0.164742
975.906298	0.166679
976.080698	0.163177
976.255080	0.164024
976.429445	0.165866
976.603790	0.165721
976.778118	0.166989
976.952427	0.165463
977.126719	0.164697
977.300992	0.164188
977.475246	0.162808
977.649483	0.166860
977.823701	0.165957
977.997901	0.164802
978.172083	0.163797
978.346247	0.162192
978.520392	0.161256
978.694519	0.162173
978.868628	0.164911
979.042719	0.165796
979.216791	0.162019
979.390845	0.161844
979.564882	0.160735
979.738899	0.163058
979.912899	0.163867
980.086880	0.166444
980.260843	0.169099
980.434788	0.167135
980.608715	0.165862
980.782623	0.166842
980.956514	0.167191
981.130386	0.168999
981.304240	0.168142
981.478075	0.168631
981.651892	0.167026
981.825692	0.165747
981.999472	0.167755
982.173235	0.168459
982.346980	0.170201
982.520706	0.169651
982.694414	0.169082
982.868104	0.169413
983.041775	0.169963
983.215428	0.171105
983.389064	0.170238
983.562680	0.170974
983.736279	0.171472
983.909860	0.169192
984.083422	0.170743
984.256966	0.171592
984.430491	0.172280
984.603999	0.172987
984.777488	0.173134
984.950959	0.173450
985.124412	0.174283
985.297847	0.174515
985.471263	0.174999
985.644661	0.174933
985.818041	0.173285
985.991403	0.174122
986.164747	0.173753
986.338072	0.170953
986.511379	0.170104
986.684668	0.168782
986.857938	0.166981
987.031191	0.168044
987.204425	0.166835
987.377641	0.168344
987.550839	0.167837
987.724018	0.166267
987.897179	0.169864
988.070322	0.170104
988.243447	0.168572
988.416554	0.170946
988.589642	0.168776
988.762712	0.169828
988.935764	0.168592
989.108798	0.167593
989.281813	0.167329
989.454811	0.166507
989.627790	0.170114
989.800751	0.169216
989.973693	0.167601
990.146617	0.168947
990.319524	0.168886
990.492412	0.168557
990.665281	0.169059
990.838133	0.171381
991.010966	0.170350
991.183781	0.168027
991.356578	0.170448
991.529356	0.172228
991.702117	0.172637
991.874859	0.172009
992.047583	0.170791
992.220288	0.169578
992.392976	0.169456
992.565645	0.169239
992.738296	0.168347
992.910929	0.168219
993.083543	0.167841
993.256139	0.170003
993.428718	0.171230
993.601277	0.173735
993.773819	0.175346
993.946342	0.173869
994.118848	0.173899
994.291335	0.174885
994.463803	0.175942
994.636254	0.175032
994.808686	0.175140
994.981100	0.173235
995.153496	0.173887
995.325874	0.174928
995.498233	0.174894
995.670574	0.176303
995.842897	0.175698
996.015202	0.175636
996.187488	0.175130
996.359757	0.172961
996.532007	0.173585
996.704239	0.171985
996.876452	0.169776
997.048648	0.171474
997.220825	0.170309
997.392984	0.170997
997.565124	0.168858
997.737247	0.166950
997.909351	0.167558
998.081437	0.165923
998.253505	0.167327
998.425554	0.166949
998.597586	0.167257
998.769599	0.166741
998.941594	0.166669
999.113571	0.166633
999.285529	0.167854
999.457469	0.165715
999.629391	0.167826
999.801295	0.168374
999.973181	0.170142
1000.145048	0.171400
1000.316897	0.169932
1000.488728	0.168011
1000.660541	0.168196
1000.832335	0.169474
1001.004111	0.170992
1001.175869	0.169850
1001.347609	0.169197
1001.519331	0.168230
1001.691034	0.164663
1001.862719	0.166363
1002.034386	0.168142
1002.206035	0.168068
1002.377665	0.165900
1002.549277	0.165874
1002.720871	0.168302
1002.892447	0.168428
1003.064004	0.168796
1003.235544	0.170581
1003.407065	0.170380
1003.578568	0.170938
1003.750052	0.172207
1003.921519	0.171927
1004.092967	0.172780
1004.264397	0.170319
1004.435809	0.168863
1004.607202	0.168423
1004.778577	0.166790
1004.949934	0.168500
1005.121273	0.168517
1005.292594	0.168284
1005.463896	0.171533
1005.635180	0.171666
1005.806446	0.172986
1005.977694	0.173559
1006.148923	0.173574
1006.320135	0.174635
1006.491328	0.174128
1006.662503	0.172285
1006.833659	0.172824
1007.004798	0.173436
1007.175918	0.172573
1007.347020	0.173721
1007.518103	0.174002
1007.689169	0.173736
1007.860216	0.174123
1008.031245	0.172022
1008.202256	0.172241
1008.373248	0.172123
1008.544223	0.171233
1008.715179	0.171098
1008.886117	0.168402
1009.057036	0.168436
1009.227938	0.169236
1009.398821	0.170069
1009.569686	0.170484
1009.740533	0.172435
1009.911361	0.172199
1010.082172	0.171069
1010.252964	0.171783
1010.423738	0.172785
1010.594493	0.173394
1010.765231	0.173030
1010.935950	0.172694
1011.106651	0.175326
1011.277334	0.175025
1011.447998	0.175554
1011.618645	0.176541
1011.789273	0.176232
1011.959882	0.175767
1012.130474	0.173763
1012.301048	0.174109
1012.471603	0.174447
1012.642140	0.174160
1012.812658	0.172642
1012.983159	0.171229
1013.153641	0.172956
1013.324105	0.174133
1013.494551	0.174297
1013.664979	0.173565
1013.835388	0.172344
1014.005779	0.172704
1014.176152	0.171403
1014.346507	0.172840
1014.516843	0.172772
1014.687162	0.170169
1014.857462	0.169778
1015.027744	0.169830
1015.198007	0.171168
1015.368252	0.170646
1015.538480	0.168946
1015.708689	0.171044
1015.878879	0.169983
1016.049052	0.171433
1016.219206	0.172582
1016.389342	0.173243
1016.559460	0.173120
1016.729559	0.174147
1016.899641	0.174306
1017.069704	0.174785
1017.239749	0.172604
1017.409775	0.170906
1017.579784	0.169084
1017.749774	0.167510
1017.919746	0.166905
1018.089700	0.167259
1018.259635	0.166332
1018.429553	0.168219
1018.599452	0.167983
1018.769333	0.167239
1018.939195	0.167750
1019.109040	0.168370
1019.278866	0.168497
1019.448674	0.167004
1019.618464	0.166880
1019.788235	0.169822
1019.957989	0.168461
1020.127724	0.168462
1020.297441	0.170102
1020.467139	0.170716
1020.636820	0.170614
1020.806482	0.171917
1020.976126	0.171860
1021.145752	0.171631
1021.315359	0.167686
1021.484948	0.167334
1021.654519	0.166109
1021.824072	0.166735
1021.993607	0.167332
1022.163123	0.166734
1022.332621	0.167810
1022.502101	0.169219
1022.671563	0.170277
1022.841007	0.171141
1023.010432	0.173422
1023.179839	0.173153
1023.349228	0.170881
1023.518598	0.170271
1023.687951	0.171726
1023.857285	0.170195
1024.026601	0.169029
1024.195899	0.169763
1024.365178	0.170231
1024.534439	0.169634
1024.703682	0.170909
1024.872907	0.171870
1025.042114	0.171388
1025.211302	0.170391
1025.380472	0.169154
1025.549624	0.170048
1025.718758	0.169107
1025.887873	0.169473
1026.056970	0.168669
1026.226049	0.167720
1026.395110	0.168664
1026.564153	0.170266
1026.733177	0.171991
1026.902183	0.172530
1027.071171	0.170517
1027.240141	0.169648
1027.409092	0.169171
1027.578026	0.166989
1027.746940	0.168856
1027.915837	0.167447
1028.084716	0.167153
1028.253576	0.163427
1028.422418	0.163583
1028.591242	0.165008
1028.760048	0.165254
1028.928835	0.163446
1029.097604	0.166114
1029.266355	0.165179
1029.435088	0.165545
1029.603803	0.165772
1029.772499	0.168117
1029.941177	0.169336
1030.109837	0.169334
1030.278478	0.168763
1030.447102	0.169913
1030.615707	0.168993
1030.784294	0.168645
1030.952863	0.168853
1031.121413	0.168817
1031.289945	0.168417
1031.458460	0.169865
1031.626955	0.170089
1031.795433	0.169359
1031.963892	0.169981
1032.132334	0.168504
1032.300756	0.169644
1032.469161	0.169250
1032.637548	0.167310
1032.805916	0.166655
1032.974266	0.164744
1033.142598	0.164283
1033.310911	0.166473
1033.479207	0.166039
1033.647484	0.168600
1033.815743	0.167451
1033.983983	0.169417
1034.152206	0.171021
1034.320410	0.173531
1034.488596	0.171525
1034.656764	0.171438
1034.824914	0.169948
1034.993045	0.169466
1035.161158	0.169293
1035.329253	0.168916
1035.497330	0.166276
1035.665388	0.166151
1035.833428	0.165500
1036.001450	0.166762
1036.169454	0.167309
1036.337440	0.168191
1036.505407	0.168856
1036.673356	0.167869
1036.841287	0.166780
1037.009200	0.166295
1037.177094	0.167473
1037.344970	0.166708
1037.512828	0.165789
1037.680668	0.165772
1037.848489	0.164582
1038.016293	0.164007
1038.184078	0.163711
1038.351845	0.164344
1038.519593	0.166351
1038.687324	0.164419
1038.855036	0.163575
1039.022730	0.163543
1039.190406	0.162428
1039.358063	0.163093
1039.525702	0.163569
1039.693323	0.165491
1039.860926	0.166706
1040.028511	0.166471
1040.196077	0.167175
1040.363625	0.168073
1040.531155	0.169631
1040.698667	0.168834
1040.866161	0.167338
1041.033636	0.167717
1041.201093	0.166783
1041.368532	0.167332
1041.535952	0.165107
1041.703355	0.165049
1041.870739	0.164504
1042.038105	0.163746
1042.205452	0.162737
1042.372782	0.164453
1042.540093	0.165226
1042.707386	0.164249
1042.874661	0.163765
1043.041918	0.165536
1043.209156	0.164812
1043.376376	0.165365
1043.543578	0.166011
1043.710762	0.167942
1043.877927	0.167375
1044.045074	0.166406
1044.212203	0.167613
1044.379314	0.167250
1044.546407	0.167491
1044.713481	0.168226
1044.880537	0.167316
1045.047575	0.165757
1045.214595	0.164846
1045.381596	0.165826
1045.548579	0.168146
1045.715544	0.166964
1045.882491	0.168042
1046.049420	0.168850
1046.216330	0.167566
1046.383222	0.167108
1046.550096	0.168460
1046.716951	0.168539
1046.883789	0.168562
1047.050608	0.163613
1047.217409	0.164762
1047.384192	0.163954
1047.550956	0.162066
1047.717703	0.162750
1047.884431	0.163817
1048.051140	0.162684
1048.217832	0.163009
1048.384505	0.162239
1048.551161	0.164933
1048.717798	0.164358
1048.884416	0.163069
1049.051017	0.163947
1049.217599	0.162257
1049.384163	0.161051
1049.550709	0.162609
1049.717237	0.164719
1049.883746	0.165387
1050.050237	0.163943
1050.216710	0.162116
1050.383165	0.162592
1050.549601	0.162189
1050.716019	0.163379
1050.882420	0.163726
1051.048801	0.161245
1051.215165	0.161749
1051.381510	0.161632
1051.547837	0.162102
1051.714146	0.163902
1051.880437	0.164302
1052.046709	0.163389
1052.212964	0.163968
1052.379200	0.164082
1052.545417	0.166141
1052.711617	0.162672
1052.877798	0.161545
1053.043961	0.161157
1053.210106	0.160836
1053.376233	0.160594
1053.542341	0.159882
1053.708432	0.160598
1053.874504	0.161002
1054.040557	0.159618
1054.206593	0.160970
1054.372610	0.158726
1054.538609	0.157682
1054.704590	0.157582
1054.870553	0.158679
1055.036497	0.159768
1055.202424	0.159392
1055.368331	0.159117
1055.534221	0.159892
1055.700093	0.158061
1055.865946	0.161833
1056.031781	0.164280
1056.197598	0.163018
1056.363397	0.161885
1056.529177	0.161739
1056.694939	0.161805
1056.860683	0.162701
1057.026409	0.161313
1057.192116	0.164513
1057.357806	0.163554
1057.523477	0.163745
1057.689130	0.164553
1057.854764	0.163441
1058.020381	0.161936
1058.185979	0.160680
1058.351559	0.160378
1058.517120	0.161209
1058.682664	0.161771
1058.848189	0.161762
1059.013696	0.158395
1059.179185	0.158887
1059.344656	0.160046
1059.510108	0.161435
1059.675542	0.160119
1059.840958	0.158987
1060.006356	0.158749
1060.171735	0.157623
1060.337096	0.157682
1060.502439	0.160768
1060.667764	0.158851
1060.833071	0.158592
1060.998359	0.159190
1061.163629	0.161184
1061.328881	0.161573
1061.494115	0.162631
1061.659330	0.161453
1061.824527	0.160841
1061.989706	0.160666
1062.154867	0.162777
1062.320010	0.164078
1062.485134	0.165698
1062.650240	0.165875
1062.815328	0.165126
1062.980398	0.165354
1063.145449	0.164489
1063.310482	0.165119
1063.475497	0.165263
1063.640494	0.165528
1063.805473	0.165094
1063.970433	0.164279
1064.135375	0.166257
1064.300299	0.167981
1064.465204	0.165487
1064.630092	0.168706
1064.794961	0.169075
1064.959812	0.168343
1065.124645	0.167105
1065.289459	0.165981
1065.454256	0.166354
1065.619034	0.165998
1065.783793	0.165697
1065.948535	0.168747
1066.113258	0.166342
1066.277964	0.164667
1066.442651	0.165730
1066.607319	0.166034
1066.771970	0.169198
1066.936602	0.168564
1067.101216	0.168674
1067.265812	0.168658
1067.430389	0.168394
1067.594949	0.171309
1067.759490	0.174031
1067.924013	0.173440
1068.088518	0.176691
1068.253004	0.175021
1068.417472	0.176015
1068.581922	0.175205
1068.746354	0.175903
1068.910768	0.173639
1069.075163	0.169811
1069.239540	0.167841
1069.403899	0.168573
1069.568240	0.166296
1069.732562	0.166031
1069.896866	0.165750
1070.061152	0.165498
1070.225420	0.164187
1070.389670	0.168631
1070.553901	0.170951
1070.718114	0.171616
1070.882309	0.171047
1071.046486	0.167397
1071.210644	0.167131
1071.374784	0.166435
1071.538906	0.168526
1071.703010	0.167782
1071.867096	0.165614
1072.031163	0.163007
1072.195212	0.163588
1072.359243	0.163536
1072.523256	0.165471
1072.687250	0.166066
1072.851226	0.164892
1073.015184	0.161801
1073.179124	0.162240
1073.343045	0.161962
1073.506949	0.166515
1073.670834	0.165594
1073.834701	0.165144
1073.998549	0.168555
1074.162380	0.167489
1074.326192	0.169555
1074.489986	0.171367
1074.653761	0.172199
1074.817519	0.173377
1074.981258	0.168899
1075.144979	0.168682
1075.308682	0.169530
1075.472367	0.167088
1075.636033	0.167300
1075.799681	0.164513
1075.963311	0.161253
1076.126923	0.161983
1076.290516	0.158558
1076.454092	0.158866
1076.617649	0.158884
1076.781187	0.158263
1076.944708	0.158915
1077.108210	0.159045
1077.271695	0.159984
1077.435160	0.162241
1077.598608	0.160788
1077.762038	0.162014
1077.925449	0.164339
1078.088842	0.162677
1078.252217	0.158158
1078.415573	0.157631
1078.578912	0.156780
1078.742232	0.157528
1078.905534	0.156070
1079.068817	0.155894
1079.232083	0.157770
1079.395330	0.156538
1079.558559	0.157775
1079.721770	0.162673
1079.884962	0.163340
1080.048136	0.167657
1080.211293	0.165658
1080.374430	0.169140
1080.537550	0.171495
1080.700651	0.169614
1080.863735	0.172879
1081.026800	0.173245
1081.189846	0.171769
1081.352875	0.174014
1081.515885	0.168012
1081.678877	0.167255
1081.841851	0.164262
1082.004807	0.163146
1082.167744	0.162072
1082.330663	0.158587
1082.493564	0.158602
1082.656447	0.159115
1082.819312	0.156324
1082.982158	0.160117
1083.144986	0.162083
1083.307796	0.163654
1083.470587	0.163611
1083.633361	0.165415
1083.796116	0.164937
1083.958853	0.165138
1084.121571	0.165787
1084.284272	0.164000
1084.446954	0.161031
1084.609618	0.162104
1084.772264	0.162248
1084.934892	0.160296
1085.097501	0.157734
1085.260092	0.158938
1085.422665	0.159250
1085.585220	0.159043
1085.747756	0.157308
1085.910274	0.159592
1086.072774	0.158957
1086.235256	0.156926
1086.397720	0.156615
1086.560165	0.160832
1086.722592	0.160082
1086.885001	0.158653
1087.047392	0.157672
1087.209764	0.160967
1087.372119	0.160701
1087.534455	0.161381
1087.696772	0.162579
1087.859072	0.163581
1088.021353	0.160864
1088.183616	0.160271
1088.345861	0.162810
1088.508088	0.162457
1088.670296	0.162083
1088.832486	0.163625
1088.994658	0.164384
1089.156812	0.161616
1089.318948	0.161944
1089.481065	0.162459
1089.643164	0.163863
1089.805245	0.159439
1089.967308	0.160012
1090.129352	0.160097
1090.291378	0.155793
1090.453386	0.154157
1090.615376	0.158784
1090.777347	0.157548
1090.939301	0.154846
1091.101236	0.153169
1091.263153	0.156863
1091.425051	0.156337
1091.586932	0.153776
1091.748794	0.155617
1091.910638	0.157200
1092.072463	0.152912
1092.234271	0.154451
1092.396060	0.155902
1092.557831	0.155684
1092.719584	0.156506
1092.881319	0.158564
1093.043035	0.160924
1093.204733	0.159807
1093.366413	0.154450
1093.528075	0.153088
1093.689718	0.152075
1093.851343	0.152029
1094.012950	0.151765
1094.174539	0.147148
1094.336110	0.146029
1094.497662	0.148665
1094.659196	0.149731
1094.820712	0.154620
1094.982210	0.156259
1095.143689	0.156167
1095.305151	0.156431
1095.466594	0.157770
1095.628018	0.161258
1095.789425	0.162999
1095.950813	0.159820
1096.112183	0.159416
1096.273535	0.158558
1096.434869	0.156564
1096.596184	0.155113
1096.757482	0.155060
1096.918761	0.152743
1097.080021	0.150088
1097.241264	0.148135
1097.402488	0.147957
1097.563694	0.150360
1097.724882	0.151334
1097.886052	0.154219
1098.047203	0.153406
1098.208336	0.156124
1098.369451	0.154168
1098.530548	0.155254
1098.691627	0.153984
1098.852687	0.155365
1099.013729	0.150224
1099.174753	0.146400
1099.335758	0.147122
1099.496746	0.152110
1099.657715	0.148025
1099.818666	0.151112
1099.979599	0.150891
1100.140513	0.153364
1100.301409	0.153964
1100.462287	0.156049
1100.623147	0.154922
1100.783989	0.155502
1100.944812	0.151491
1101.105617	0.154744
1101.266404	0.156241
1101.427173	0.158017
1101.587923	0.158709
1101.748656	0.157525
1101.909370	0.157601
1102.070066	0.163048
1102.230743	0.159929
1102.391403	0.161598
1102.552044	0.159670
1102.712667	0.158985
1102.873271	0.157510
1103.033858	0.151262
1103.194426	0.147763
1103.354976	0.149209
1103.515508	0.143036
1103.676021	0.146050
1103.836517	0.143899
1103.996994	0.141538
1104.157453	0.141999
1104.317893	0.139321
1104.478316	0.146092
1104.638720	0.149775
1104.799106	0.147901
1104.959474	0.150259
1105.119823	0.149597
1105.280155	0.155300
1105.440468	0.161192
1105.600763	0.158290
1105.761039	0.163431
1105.921298	0.157914
1106.081538	0.159278
1106.241760	0.164218
1106.401964	0.163825
1106.562149	0.163991
1106.722316	0.159126
1106.882465	0.156375
1107.042596	0.156887
1107.202709	0.155228
1107.362803	0.158433
1107.522879	0.155907
1107.682937	0.152098
1107.842977	0.154358
1108.002999	0.150598
1108.163002	0.149628
1108.322987	0.151806
1108.482954	0.151173
1108.642902	0.150733
1108.802833	0.153331
1108.962745	0.148576
1109.122639	0.145490
1109.282515	0.147722
1109.442372	0.151029
1109.602211	0.152741
1109.762032	0.148441
1109.921835	0.149468
1110.081620	0.144679
1110.241386	0.142321
1110.401134	0.143179
1110.560864	0.148773
1110.720576	0.147204
1110.880269	0.143344
1111.039945	0.144155
1111.199602	0.146520
1111.359240	0.144962
1111.518861	0.152666
1111.678463	0.153027
1111.838047	0.155666
1111.997613	0.154376
1112.157161	0.151446
1112.316690	0.155517
1112.476202	0.153614
1112.635695	0.153726
1112.795169	0.153936
1112.954626	0.152232
1113.114064	0.149014
1113.273484	0.147674
1113.432886	0.143766
1113.592270	0.143049
1113.751635	0.143811
1113.910983	0.144784
1114.070312	0.144667
1114.229622	0.146645
1114.388915	0.141625
1114.548189	0.143935
1114.707445	0.146402
1114.866683	0.146623
1115.025903	0.145739
1115.185104	0.143955
1115.344287	0.140960
1115.503452	0.138210
1115.662599	0.138172
1115.821727	0.145400
1115.980838	0.145249
1116.139930	0.143889
1116.299004	0.144701
1116.458059	0.142145
1116.617097	0.144041
1116.776116	0.145632
1116.935117	0.146841
1117.094099	0.146588
1117.253064	0.139767
1117.412010	0.136547
1117.570938	0.137972
1117.729848	0.142505
1117.888740	0.144960
1118.047613	0.143750
1118.206468	0.148952
1118.365305	0.144588
1118.524124	0.146222
1118.682924	0.151228
1118.841707	0.155548
1119.000471	0.154897
1119.159216	0.150708
1119.317944	0.152633
1119.476653	0.151440
1119.635344	0.145885
1119.794017	0.151500
1119.952672	0.145095
1120.111308	0.143540
1120.269927	0.141813
1120.428527	0.141978
1120.587108	0.137020
1120.745672	0.138190
1120.904217	0.138164
1121.062744	0.136865
1121.221253	0.139620
1121.379744	0.142138
1121.538216	0.140353
1121.696671	0.134819
1121.855107	0.137527
1122.013524	0.144023
1122.171924	0.143702
1122.330305	0.138899
1122.488668	0.137736
1122.647013	0.131320
1122.805340	0.135323
1122.963648	0.132726
1123.121938	0.136895
1123.280210	0.138239
1123.438464	0.135679
1123.596700	0.130282
1123.754917	0.136778
1123.913116	0.139248
1124.071297	0.144269
1124.229459	0.144487
1124.387604	0.147739
1124.545730	0.143730
1124.703838	0.139232
1124.861928	0.139586
1125.019999	0.147305
1125.178052	0.145866
1125.336088	0.149873
1125.494104	0.148518
1125.652103	0.144153
1125.810083	0.142693
1125.968045	0.141995
1126.125989	0.142987
1126.283915	0.143110
1126.441823	0.139860
1126.599712	0.136890
1126.757583	0.130272
1126.915436	0.127658
1127.073270	0.126851
1127.231087	0.126524
1127.388885	0.135967
1127.546665	0.136743
1127.704426	0.135321
1127.862170	0.135471
1128.019895	0.137112
1128.177602	0.136000
1128.335291	0.132289
1128.492961	0.133136
1128.650614	0.134322
1128.808248	0.127892
1128.965864	0.123239
1129.123461	0.123483
1129.281041	0.123722
1129.438602	0.123327
1129.596145	0.126549
1129.753670	0.122540
1129.911176	0.122797
1130.068665	0.122893
1130.226135	0.127863
1130.383587	0.133910
1130.541020	0.134242
1130.698436	0.133284
1130.855833	0.132467
1131.013212	0.130487
1131.170573	0.140721
1131.327915	0.139202
1131.485239	0.140148
1131.642545	0.130666
1131.799833	0.126346
1131.957103	0.123053
1132.114354	0.119913
1132.271588	0.119040
1132.428803	0.118724
1132.585999	0.118485
1132.743178	0.120228
1132.900338	0.119910
1133.057480	0.125607
1133.214604	0.127240
1133.371710	0.128041
1133.528797	0.132644
1133.685866	0.132566
1133.842917	0.136369
1133.999950	0.137696
1134.156964	0.133255
1134.313960	0.125908
1134.470938	0.125264
1134.627898	0.123525
1134.784840	0.127705
1134.941763	0.126847
1135.098668	0.124772
1135.255555	0.127846
1135.412424	0.124698
1135.569274	0.129249
1135.726107	0.138852
1135.882921	0.137946
1136.039716	0.140559
1136.196494	0.132433
1136.353253	0.134079
1136.509995	0.134229
1136.666717	0.132005
1136.823422	0.134185
1136.980109	0.135102
1137.136777	0.134234
1137.293427	0.136977
1137.450059	0.133586
1137.606672	0.139486
1137.763267	0.136577
1137.919844	0.140322
1138.076403	0.140163
1138.232944	0.136830
1138.389466	0.138554
1138.545971	0.137823
1138.702457	0.136615
1138.858924	0.136221
1139.015374	0.135354
1139.171805	0.137552
1139.328218	0.131113
1139.484613	0.125065
1139.640990	0.130242
1139.797348	0.128106
1139.953688	0.123495
1140.110010	0.119504
1140.266314	0.119307
1140.422600	0.119243
1140.578867	0.119924
1140.735116	0.122087
1140.891347	0.122066
1141.047559	0.118276
1141.203754	0.119405
1141.359930	0.121956
1141.516088	0.120152
1141.672228	0.118332
1141.828349	0.118578
1141.984452	0.118311
1142.140537	0.122095
1142.296604	0.128418
1142.452653	0.129020
1142.608683	0.122320
1142.764695	0.123563
1142.920689	0.131033
1143.076665	0.135137
1143.232622	0.134008
1143.388562	0.134268
1143.544483	0.129967
1143.700385	0.131308
1143.856270	0.122971
1144.012136	0.126190
1144.167985	0.123792
1144.323814	0.124336
1144.479626	0.118512
1144.635420	0.117104
1144.791195	0.116539
1144.946952	0.116980
1145.102691	0.113279
1145.258411	0.114969
1145.414113	0.112790
1145.569798	0.112873
1145.725463	0.110688
1145.881111	0.121469
1146.036741	0.120866
1146.192352	0.118339
1146.347945	0.116165
1146.503519	0.116950
1146.659076	0.117378
1146.814614	0.120228
1146.970134	0.119223
1147.125636	0.115432
1147.281120	0.102420
1147.436585	0.103118
1147.592032	0.110433
1147.747461	0.119785
1147.902872	0.118359
1148.058265	0.127731
1148.213639	0.126337
1148.368995	0.124111
1148.524333	0.126241
1148.679653	0.133541
1148.834954	0.134555
1148.990237	0.123868
1149.145502	0.115099
1149.300749	0.111928
1149.455977	0.106008
1149.611188	0.105006
1149.766380	0.100755
1149.921553	0.102520
1150.076709	0.102608
1150.231846	0.101623
1150.386966	0.104180
1150.542066	0.106650
1150.697149	0.109348
1150.852214	0.110043
1151.007260	0.107710
1151.162288	0.112421
1151.317298	0.105406
1151.472289	0.107705
1151.627263	0.109421
1151.782218	0.107719
1151.937155	0.109989
1152.092073	0.109328
1152.246974	0.106133
1152.401856	0.107299
1152.556720	0.110129
1152.711566	0.113293
1152.866393	0.098592
1153.021203	0.097069
1153.175994	0.090159
1153.330767	0.088625
1153.485521	0.092730
1153.640258	0.092949
1153.794976	0.087729
1153.949676	0.083340
1154.104358	0.086619
1154.259021	0.096951
1154.413667	0.089158
1154.568294	0.093744
1154.722903	0.085022
1154.877493	0.075711
1155.032066	0.076126
1155.186620	0.082810
1155.341156	0.080901
1155.495674	0.067682
1155.650173	0.067715
1155.804654	0.076344
1155.959118	0.071678
1156.113562	0.076083
1156.267989	0.074926
1156.422397	0.080134
1156.576788	0.078277
1156.731160	0.084137
1156.885513	0.094237
1157.039849	0.090562
1157.194166	0.095447
1157.348465	0.098011
1157.502746	0.103262
1157.657009	0.107105
1157.811253	0.101138
1157.965479	0.097846
1158.119687	0.094968
1158.273877	0.093465
1158.428048	0.088125
1158.582201	0.080850
1158.736337	0.079063
1158.890453	0.072923
1159.044552	0.075623
1159.198632	0.076526
1159.352694	0.078304
1159.506738	0.078263
1159.660764	0.078197
1159.814771	0.085962
1159.968761	0.086197
1160.122732	0.093041
1160.276685	0.102675
1160.430619	0.101637
1160.584535	0.103422
1160.738434	0.099805
1160.892313	0.096161
1161.046175	0.098407
1161.200019	0.094386
1161.353844	0.096962
1161.507651	0.093169
1161.661440	0.089443
1161.815210	0.086407
1161.968962	0.084548
1162.122697	0.088314
1162.276412	0.093182
1162.430110	0.088462
1162.583789	0.094599
1162.737451	0.097029
1162.891094	0.094305
1163.044718	0.087634
1163.198325	0.086696
1163.351913	0.087006
1163.505483	0.080828
1163.659035	0.072513
1163.812569	0.074123
1163.966084	0.065652
1164.119581	0.066163
1164.273060	0.068937
1164.426521	0.075403
1164.579964	0.077300
1164.733388	0.071076
1164.886794	0.075410
1165.040182	0.091062
1165.193551	0.089684
1165.346903	0.099242
1165.500236	0.089380
1165.653551	0.086974
1165.806848	0.083105
1165.960126	0.085055
1166.113386	0.089072
1166.266628	0.091046
1166.419852	0.088273
1166.573058	0.086956
1166.726245	0.073678
1166.879414	0.073124
1167.032565	0.073697
1167.185698	0.070316
1167.338812	0.061589
1167.491909	0.060084
1167.644987	0.061985
1167.798046	0.049131
1167.951088	0.051912
1168.104111	0.054475
1168.257117	0.055821
1168.410103	0.054850
1168.563072	0.055031
1168.716023	0.059650
1168.868955	0.057571
1169.021869	0.055831
1169.174765	0.056862
1169.327642	0.052812
1169.480501	0.053376
1169.633343	0.058598
1169.786165	0.058702
1169.938970	0.060532
1170.091757	0.060890
1170.244525	0.063547
1170.397275	0.063579
1170.550007	0.065158
1170.702720	0.073000
1170.855415	0.075221
1171.008092	0.066510
1171.160751	0.065429
1171.313392	0.062307
1171.466014	0.048985
1171.618619	0.042143
1171.771205	0.042143
1171.923772	0.042143
