sample name	sample
index	1433
start time	 05-10-2021  12:38:58 PM
880	0.332456
Peak Time (s)	92.538
Peak Height 	0.3325
calc peak height	90,93
Baseline Time (s)	9.039
Baseline Value 	-0.003881
subtract baseline	10,4
Abs	0.203995
Peak Time (s)	91.537
Peak Height 	0.204
calc peak height	90,93
Baseline Time (s)	10.537
Baseline Value 	0.003607
subtract baseline	10,3
PK_550	0.114298
Peak Time (s)	92.037
Peak Height 	0.1143
calc peak height	90,93
Baseline Time (s)	10.537
Baseline Value 	7.8433E-4
subtract baseline	10,2
PK_880	0.189688
Peak Time (s)	90.036
Peak Height 	0.1897
calc peak height	90,93
Baseline Time (s)	11.037
Baseline Value 	0.001543
subtract baseline	10,1


Time (s)	A880-A510	A880-A775	A880-A975	A880	I510	I775	I975	I880	
0.038500	-0.005095	-0.000248	-0.002811	0.005160	6425.208899	43725.253677	3929.688789	22484.516257
0.536500	-0.003275	-0.000551	-0.003662	0.003881	6450.812606	43817.081144	3930.788955	22542.402366
1.036500	-0.003045	-0.000314	-0.008790	0.003954	6452.117928	43832.528435	3917.508446	22539.100717
1.536500	-0.000999	0.000666	-0.001979	0.002212	6483.667399	44089.560573	3939.430182	22618.184975
2.037000	-0.001297	-0.000251	-0.000750	0.002251	6480.855959	43999.197504	3942.517522	22616.433681
2.534500	0.000162	0.000419	-0.003607	0.002196	6493.525768	44067.720493	3935.264225	22618.899147
3.035500	0.001691	-0.000815	-0.002274	-0.001380	6536.600946	44290.024196	3947.996270	22782.277926
3.535500	-0.000935	-0.000247	-0.005026	0.000785	6496.164377	44138.353294	3935.246495	22683.235985
4.035500	-0.002288	-0.001125	-0.002930	-0.000248	6493.475717	44152.954302	3943.342630	22730.409422
4.539000	-0.001515	0.000115	-0.000812	0.000708	6491.940646	44180.014555	3946.365437	22686.730393
5.036500	-0.001477	-0.000451	-0.005876	0.000461	6494.328063	44149.624341	3933.890050	22697.999169
5.537000	0.000546	-0.000386	-0.000139	0.000423	6511.665390	44159.428134	3948.862329	22699.731872
6.037000	0.001387	0.000778	0.001245	0.001313	6511.252039	44185.460463	3950.153172	22659.118993
6.537500	-0.003197	-0.000750	0.000166	-0.000050	6484.204913	44169.836840	3950.898786	22721.391036
7.034500	0.000800	0.000379	0.000890	0.000867	6510.063469	44189.907229	3950.391118	22679.463094
7.535500	-0.001346	-0.000439	0.003918	-0.000090	6500.061518	44203.138013	3960.856109	22723.204087
8.035500	-0.001933	0.000007	0.002232	0.000263	6492.164170	44211.928457	3955.489613	22707.044141
8.535500	-0.000346	-0.000376	0.000345	0.000424	6504.146214	44160.317502	3950.124701	22699.705041
9.039000	0.000294	0.000205	0.005338	0.000000	6513.111279	44255.819171	3964.368630	22719.086801
9.536000	0.000279	-0.000306	0.000556	-0.000293	6515.453239	44235.083610	3952.551859	22732.481825
10.036000	-0.001086	-0.000481	-0.000035	-0.000244	6503.539775	44213.867008	3950.879180	22730.261061
10.536500	0.000515	0.000000	0.000000	0.000020	6514.801739	44234.429021	3950.279469	22718.170423
11.037000	0.000000	0.000099	-0.003808	-0.000017	6510.774012	44247.381830	3940.468206	22719.875363
11.537500	-0.000983	0.000096	-0.002021	0.000878	6494.977043	44162.020688	3942.779809	22678.953917
12.035000	0.001205	0.000325	-0.002978	0.000284	6518.398181	44240.214024	3941.836150	22706.082525
12.535000	-0.000862	-0.000123	-0.001551	0.000488	6499.275380	44178.323711	3945.015241	22696.797357
13.035000	0.000987	0.000048	-0.002477	0.000273	6516.650209	44214.892077	3943.167342	22706.589985
13.537500	-0.002962	-0.000551	-0.000634	0.002405	6465.674718	43956.264236	3942.416547	22609.412261
14.036000	-0.000746	0.000094	0.000409	0.002195	6485.931096	44037.033463	3945.674665	22618.969505
14.536000	-0.001750	0.000010	-0.005017	0.002117	6478.177725	44036.433550	3931.837963	22622.505935
15.039000	0.000580	0.000356	0.000186	0.000477	6511.497944	44224.806796	3949.571192	22697.273441
15.540000	-0.000886	-0.000219	0.000075	0.003675	6472.382508	43867.671571	3940.959349	22551.712563
16.037500	-0.001110	-0.000427	-0.002428	-0.000073	6501.895857	44202.667209	3944.191407	22722.403458
16.537500	-0.000262	-0.000733	-0.003368	0.000082	6507.732131	44158.898919	3941.350567	22715.323143
17.038000	-0.000710	-0.000117	0.001789	-0.002999	6529.967516	44511.307646	3962.914738	22856.710605
17.535500	-0.003270	-0.000258	0.001564	0.002157	6465.175396	44007.343155	3948.781854	22620.674897
18.035500	-0.001147	-0.000116	-0.000302	0.001365	6489.524029	44095.791148	3945.983842	22656.778540
18.536000	-0.001264	0.000144	0.000977	0.001363	6488.556069	44120.610942	3949.324536	22656.853802
19.036500	-0.000137	-0.000393	-0.000504	0.001119	6500.058801	44092.873305	3946.097970	22667.988568
19.536500	-0.002883	0.000129	0.000660	0.002168	6468.301172	44042.815114	3946.395871	22620.166505
20.036500	-0.003369	-0.000260	-0.003839	0.000742	6476.140861	44141.119360	3938.422126	22685.174592
20.537000	-0.000210	0.000492	-0.003250	0.001411	6496.985891	44149.039388	3938.214683	22654.650635
21.037500	-0.001064	0.000075	-0.003169	0.000921	6493.938378	44155.962253	3939.691797	22677.008183
21.534500	-0.000981	-0.000037	-0.003435	0.001597	6488.968333	44081.283652	3937.256668	22646.185015
22.035500	-0.000172	0.000468	-0.003259	0.001516	6496.434049	44136.810052	3937.921446	22649.881743
22.535500	-0.000691	0.001056	0.001802	0.002034	6487.736036	44143.451317	3949.724773	22626.275610
23.036000	-0.001633	0.000341	-0.000606	0.001291	6486.070626	44146.174646	3945.384510	22660.153855
23.536000	-0.002052	-0.000165	-0.005363	0.001397	6481.667443	44088.018192	3932.800625	22655.280672
24.036000	-0.002294	0.000468	-0.001573	0.001634	6477.672918	44125.610802	3941.981228	22644.507447
24.536500	-0.000558	0.001142	-0.001042	0.002043	6488.770501	44150.750466	3942.298891	22625.883387
25.037000	-0.002433	0.000000	-0.002276	0.000947	6482.249969	44146.362458	3941.937573	22675.807998
25.537500	-0.002057	-0.000387	0.001121	0.000874	6486.001602	44116.568330	3950.976782	22679.136119
26.037500	-0.003103	-0.000101	-0.000548	0.001017	6476.062351	44130.163898	3946.248986	22672.610725
26.537500	-0.001224	0.001402	-0.004102	0.002471	6479.618327	44134.789926	3933.281630	22606.414964
27.035500	-0.000274	0.000457	0.002500	-0.000284	6510.713239	44306.843634	3957.630816	22732.070561
27.535500	-0.002496	-0.000400	-0.004520	0.003409	6461.199350	43875.697013	3929.797356	22563.799711
28.036000	0.000161	0.001456	-0.000623	0.001645	6498.136417	44218.342248	3944.418749	22643.978900
28.539000	-0.000446	0.000401	-0.002220	0.000973	6498.692855	44181.962061	3942.018272	22674.650164
29.036000	-0.000931	0.000089	-0.001127	0.000450	6499.004968	44201.952909	3946.215781	22698.495768
29.537000	-0.004421	-0.000807	0.005406	0.003836	6441.691855	43797.187214	3954.442189	22544.425949
30.037000	-0.000977	0.000308	0.000181	0.001189	6492.421193	44152.597867	3947.700847	22664.779296
30.534500	-0.001385	0.000669	-0.004516	0.002815	6475.397758	44032.774637	3931.330431	22590.751410
31.040000	-0.000404	-0.000095	-0.002863	0.002697	6484.579479	43971.704038	3935.892786	22596.113104
31.534500	-0.001257	0.000072	-0.002075	0.005000	6458.274024	43770.435478	3931.992197	22491.752966
32.035500	0.000896	0.000602	-0.000977	0.001059	6509.257271	44192.884893	3945.023280	22670.727889
32.535500	0.000175	0.000108	0.000459	0.000790	6505.451338	44171.490514	3949.466084	22682.989504
33.040000	-0.002687	0.000237	0.003082	0.000520	6483.700898	44209.429452	3957.049146	22695.325631
33.536000	-0.002193	-0.001563	-0.000528	0.003983	6458.946028	43712.300374	3938.602819	22537.779880
34.036500	-0.003401	-0.000571	-0.000410	0.002106	6464.509519	43982.549636	3943.774042	22623.007681
34.537000	-0.000195	0.000344	0.000245	0.002513	6487.875862	44030.553076	3944.418457	22604.474226
35.037000	-0.002368	0.000033	0.000437	0.002282	6471.640937	44022.961816	3945.519070	22614.981508
35.534000	-0.002077	-0.000116	-0.001014	0.003915	6460.470625	43854.734234	3937.520159	22540.836850
36.034500	-0.002278	0.000251	-0.003843	0.002500	6470.576728	44023.077118	3933.875246	22605.088231
36.535500	-0.000596	-0.000197	-0.004901	0.002506	6484.579034	43980.105930	3931.136811	22604.818164
37.035500	-0.003035	-0.000028	0.004975	0.002196	6466.805430	44025.452233	3957.619473	22618.923633
37.536000	-0.000938	-0.000067	-0.001797	0.002232	6484.010985	44018.270291	3939.851436	22617.275815
38.036500	-0.002160	-0.000113	0.001099	0.002227	6473.839563	44014.384069	3947.386265	22617.498864
38.536500	-0.002970	0.000162	-0.003690	0.002259	6466.822773	44037.455487	3934.890135	22616.052258
39.036500	0.000271	0.001157	-0.001830	0.002839	6489.050400	44076.769283	3938.195300	22589.700395
39.537000	-0.002436	0.000002	-0.000260	0.002738	6467.283754	43977.073864	3942.524511	22594.287450
40.037500	-0.001100	0.000850	0.002903	0.003205	6474.525007	44012.965705	3949.541670	22573.055880
40.535000	-0.000021	0.000775	-0.000283	0.002869	6486.352056	44037.700374	3942.123981	22588.313226
41.035000	-0.002856	-0.000874	-0.006326	0.001479	6474.273073	44013.155331	3930.113814	22651.561839
41.535000	-0.001716	-0.000275	0.000987	0.004361	6459.769123	43797.841125	3941.547561	22520.669385
42.036000	-0.000148	0.000043	-0.001983	0.002299	6490.065694	44022.403048	3939.195609	22614.229223
42.536000	-0.000793	0.000341	-0.003195	0.002654	6481.691802	44017.046093	3935.149048	22598.102845
43.036500	-0.002045	0.000209	-0.001419	0.002468	6472.788794	44022.055895	3940.218400	22606.542810
43.536500	-0.002485	0.000103	-0.002938	0.002312	6470.426477	44026.837912	3936.694827	22613.655432
44.037000	-0.001148	-0.000331	-0.002817	0.000249	6498.875864	44181.187904	3942.346142	22707.709135
44.537000	0.000260	0.000937	-0.001435	0.001422	6500.852004	44190.268737	3942.890339	22654.164775
45.037000	0.000844	0.000594	0.001567	0.001377	6506.141574	44161.933987	3950.829071	22656.221237
45.535000	-0.002129	-0.000354	-0.004858	0.007478	6430.552077	43498.240999	3918.545283	22380.041065
46.035000	-0.000241	0.000226	-0.002453	0.001182	6498.650018	44145.494038	3940.869562	22665.088521
46.535500	0.000671	-0.000092	0.000895	0.000627	6511.003168	44168.075334	3951.032607	22690.437080
47.035000	-0.001732	-0.000531	-0.003250	0.000319	6493.387770	44155.586170	3941.042595	22704.519805
47.536000	-0.002623	0.000072	-0.001783	0.004315	6452.621400	43834.907890	3934.507267	22522.754543
48.036500	-0.001076	0.001335	0.003010	0.003016	6476.303168	44076.777651	3950.315911	22581.640349
48.537000	0.001361	0.000329	-0.000605	0.001099	6512.834147	44163.106896	3945.885861	22668.874259
49.037000	-0.001429	-0.000406	0.001030	0.000278	6496.271347	44171.311765	3952.298731	22706.363476
49.537000	-0.004774	-0.000703	0.004255	0.006157	6419.651091	43589.175124	3945.371359	22439.509715
50.034500	0.000290	0.000026	0.002808	-0.001674	6527.218133	44398.262352	3962.107068	22795.788339
50.535000	0.002378	0.000060	-0.003131	0.001523	6517.841990	44097.412009	3938.231587	22649.551126
51.035500	0.000861	-0.010967	0.015281	0.033002	6249.522573	40260.117456	3904.950037	21265.795952
51.535000	-0.003031	-0.020599	0.009348	0.119645	5609.911584	32839.807514	3695.757119	17936.593440
52.036000	-0.012315	-0.049397	-0.029429	-0.195733	8434.160215	60782.559731	4479.924320	34027.757779
52.535500	-0.022502	-0.110187	-0.037475	-0.290816	9639.660385	65535.000000	4849.316858	41656.508445
53.039000	-0.013859	-0.064752	-0.023516	-0.231274	8888.823807	63534.498342	4646.645015	36685.779938
53.537000	-0.000461	-0.031830	-0.010918	-0.158345	8115.330191	58201.960711	4409.120281	31456.687112
54.036500	-0.002023	-0.022031	0.000206	-0.091119	7344.112972	51357.214334	4215.970734	27355.457192
54.537000	-0.011357	-0.024068	-0.009407	-0.142246	7798.035931	57151.326650	4356.472259	30415.975087
55.035000	-0.000886	-0.021542	-0.009797	-0.156592	8088.994103	59298.833996	4406.801242	31341.490518
55.535500	0.008152	-0.020586	0.011863	-0.135922	7950.538626	56797.568920	4410.429990	30017.562131
56.035000	0.019605	-0.010403	0.027537	-0.066405	7312.287951	49920.038354	4224.435691	26000.324365
56.536000	0.030746	0.003521	0.041645	0.015080	6645.073299	43151.687789	4021.928601	22041.307717
57.036000	0.041222	0.010262	0.053057	0.058000	6371.919957	39937.625631	3937.486575	20236.188403
57.539000	0.053174	0.019246	0.062813	0.089313	6218.378646	38083.449255	3883.143255	19027.314869
58.036500	0.066708	0.027950	0.076267	0.103157	6215.976408	37670.050296	3882.186066	18520.042109
58.537000	0.081827	0.035690	0.088439	0.127109	6148.207231	36397.383603	3853.631779	17679.633919
59.037000	0.093991	0.042341	0.102873	0.158775	6003.398964	34524.740194	3813.238325	16637.430105
59.534500	0.102215	0.051594	0.121316	0.186931	5861.962724	33179.460052	3791.166623	15772.443846
60.035000	0.115014	0.058589	0.125533	0.198312	5871.807408	32875.618441	3775.199905	15438.415982
60.535000	0.121003	0.064782	0.130278	0.204130	5873.002253	32901.499431	3772.831428	15271.014158
61.034500	0.131179	0.068785	0.145308	0.220629	5829.316436	32051.726462	3769.599147	14808.309760
61.538000	0.133212	0.072260	0.153415	0.262467	5568.420342	29590.486625	3698.282861	13710.818174
62.036500	0.140365	0.079858	0.156111	0.264999	5597.491979	29903.168009	3698.616291	13647.715936
62.596000	0.145091	0.083664	0.159588	0.255404	5689.589531	30748.092548	3725.607895	13888.744999
63.036500	0.148814	0.086506	0.158285	0.256417	5707.359330	30865.470918	3720.767108	13863.039175
63.548000	0.151533	0.087347	0.164169	0.254493	5738.073452	31043.834047	3737.193864	13911.910358
64.043000	0.155092	0.090079	0.167644	0.257671	5740.606524	31015.016701	3737.825575	13831.328719
64.537500	0.157097	0.092312	0.165561	0.260711	5733.727386	30962.888397	3727.007013	13754.788710
65.035500	0.160256	0.094104	0.167618	0.264297	5730.892971	30847.380609	3723.801414	13665.183423
65.536000	0.159550	0.093862	0.174176	0.267335	5706.167154	30637.396111	3731.195123	13589.850135
66.035500	0.160690	0.095418	0.171016	0.269865	5697.043191	30575.294731	3719.273693	13527.504031
66.536000	0.162576	0.096702	0.174261	0.273230	5687.361506	30443.208382	3719.023577	13445.158855
67.036000	0.163780	0.097079	0.174238	0.275205	5682.330639	30342.221676	3714.875953	13397.125505
67.537000	0.167312	0.100030	0.180971	0.280561	5670.463519	30190.852608	3717.730995	13267.946745
68.039500	0.167000	0.100507	0.179909	0.281491	5662.409793	30162.481530	3713.602462	13245.694962
68.537000	0.168535	0.101837	0.177392	0.284433	5653.312413	30061.633729	3702.381786	13175.554127
69.037000	0.171064	0.103435	0.183220	0.286568	5655.856503	30028.117131	3709.955604	13124.955265
69.535000	0.171402	0.102526	0.183532	0.289778	5637.366279	29772.422386	3704.004873	13049.348567
70.035000	0.174053	0.103529	0.186625	0.290977	5646.697658	29760.316812	3707.890657	13021.260992
70.535000	0.170600	0.102376	0.184127	0.291301	5622.485837	29669.254732	3702.107933	13013.673875
71.036000	0.173162	0.104433	0.187507	0.294048	5621.310113	29626.847384	3703.403888	12949.659200
71.536500	0.172182	0.103121	0.189002	0.298335	5587.905850	29285.006043	3697.712224	12850.535804
72.036000	0.177076	0.105605	0.186970	0.296510	5630.580671	29547.665620	3697.289902	12892.597244
72.536500	0.177623	0.106725	0.193310	0.297593	5627.156764	29549.958703	3708.032654	12867.616635
73.037000	0.175880	0.105976	0.190774	0.298344	5611.258359	29458.174322	3701.300331	12850.317956
73.537500	0.174373	0.105858	0.183677	0.302907	5572.939190	29173.901314	3677.830269	12745.896878
74.035000	0.177529	0.108204	0.197846	0.302935	5592.611609	29314.297745	3706.376586	12745.242745
74.535500	0.179786	0.107693	0.188890	0.303973	5600.329259	29220.439277	3686.106649	12721.660044
75.036000	0.175895	0.107648	0.190037	0.304168	5574.576388	29205.903015	3688.017120	12717.227124
75.536000	0.180471	0.108449	0.192802	0.309756	5568.236246	28917.975196	3682.361811	12591.182526
76.036000	0.180041	0.109468	0.194226	0.308560	5573.034004	29050.819497	3687.608396	12618.030056
76.536500	0.183067	0.110948	0.200113	0.310199	5581.744319	29041.249641	3696.184262	12581.268430
77.036000	0.180238	0.110113	0.193210	0.310455	5562.409507	28975.766096	3681.781862	12575.531843
77.536500	0.183649	0.112352	0.192942	0.315903	5549.717761	28784.056771	3670.451277	12454.388910
78.037000	0.184244	0.111768	0.197037	0.312237	5576.331969	28968.158704	3685.871630	12535.746242
78.535000	0.182222	0.112175	0.199434	0.312746	5560.488853	28962.014135	3689.664099	12524.405274
79.035000	0.184605	0.112483	0.194138	0.312408	5577.526122	29000.780002	3679.739087	12531.939179
79.537500	0.185680	0.113415	0.195232	0.314536	5570.915073	28929.062989	3677.681576	12484.635918
80.035500	0.183504	0.113174	0.199787	0.312190	5571.981901	29055.328282	3691.494628	12536.781286
80.536000	0.185436	0.113822	0.199749	0.312393	5582.843855	29082.127004	3691.010095	12532.271929
81.036000	0.186768	0.114266	0.199910	0.312848	5588.360556	29081.451010	3690.416168	12522.126755
81.536500	0.187946	0.114605	0.203486	0.313171	5593.757144	29082.396445	3696.996286	12514.940888
82.036500	0.185464	0.114133	0.200994	0.313112	5578.498382	29057.542849	3692.071117	12516.256914
82.537000	0.187905	0.115978	0.198606	0.314786	5583.316990	29067.831399	3683.908261	12479.101683
83.037500	0.190184	0.116942	0.202921	0.315992	5590.080563	29053.291915	3690.149458	12452.427956
83.534500	0.187935	0.116175	0.197324	0.315146	5581.245442	29058.069427	3680.629778	12471.135189
84.037500	0.188840	0.115630	0.197620	0.315714	5583.359630	28991.183357	3680.087923	12458.563563
84.535000	0.190287	0.116118	0.204957	0.317171	5583.297178	28933.157019	3691.876446	12426.412004
85.035500	0.191798	0.114738	0.201420	0.316611	5596.362748	28884.138142	3685.888310	12438.763109
85.536500	0.187791	0.116301	0.198761	0.321464	5540.908530	28688.299431	3670.959014	12332.294893
86.036000	0.190127	0.114707	0.201264	0.318745	5572.414373	28755.130935	3681.311530	12391.808483
86.536500	0.187991	0.115072	0.198564	0.320231	5549.804818	28688.554407	3673.002770	12359.243346
87.037000	0.186926	0.115088	0.198678	0.321283	5536.680155	28627.208562	3671.151808	12336.256242
87.537000	0.186943	0.114305	0.207334	0.324069	5519.606076	28416.988552	3682.798782	12275.646424
88.034500	0.189675	0.114348	0.201464	0.323246	5541.543626	28467.855818	3672.776839	12293.516573
88.538000	0.189354	0.114626	0.205005	0.323866	5535.717036	28447.760563	3678.563403	12280.046830
89.035500	0.187627	0.114847	0.195573	0.325234	5516.653378	28380.495663	3657.359947	12250.427428
89.536000	0.186732	0.113220	0.203152	0.327495	5497.341936	28153.739170	3667.734324	12201.648622
90.036000	0.189688	0.114078	0.203046	0.327721	5514.041103	28190.465410	3667.083678	12196.797519
90.536000	0.188716	0.113533	0.199119	0.328303	5504.522120	28125.039800	3658.285428	12184.291317
91.036500	0.187825	0.113356	0.201865	0.328749	5496.359547	28088.866212	3662.760319	12174.699719
91.537000	0.188489	0.113320	0.203995	0.332135	5479.835731	27891.530584	3660.314380	12102.366334
92.037000	0.189554	0.114298	0.203886	0.332235	5485.681590	27942.030611	3659.908359	12100.237619
92.537500	0.188341	0.112468	0.203445	0.332456	5476.996128	27824.227269	3658.621871	12095.532348
93.038000	0.189265	0.113243	0.203636	0.333805	5474.425209	27791.372327	3656.375250	12066.880941
93.588500	0.186647	0.112985	0.207897	0.336607	5441.877341	27616.860008	3659.205349	12007.659223
94.035000	0.188250	0.113591	0.204110	0.336876	5449.851717	27636.026563	3651.359330	12001.989717
94.535500	0.186865	0.112083	0.202429	0.336090	5446.269506	27594.993908	3649.639846	12018.561859
95.036000	0.189625	0.113093	0.208273	0.337778	5452.684600	27556.526029	3657.661153	11983.013264
95.535000	0.190744	0.113109	0.211724	0.340042	5445.829622	27429.426758	3659.967264	11935.571900
96.036500	0.187987	0.112563	0.206151	0.339997	5429.676369	27401.215551	3649.282970	11936.510778
96.536500	0.187750	0.111565	0.211333	0.340331	5426.286356	27326.300267	3658.644713	11929.531380
