sample name	sample
index	1441
start time	 05-10-2021  01:02:22 PM


Wavelength (nm)	Absorbance
494.344910	-0.038730
494.563924	-0.038730
494.782919	-0.038730
495.001897	0.070546
495.220856	-0.005785
495.439797	-0.002812
495.658719	-0.001524
495.877624	-0.002384
496.096510	-0.017427
496.315378	-0.019145
496.534227	-0.010641
496.753059	-0.028249
496.971872	-0.019969
497.190667	0.033001
497.409444	0.059973
497.628203	0.073788
497.846943	0.080402
498.065665	0.085753
498.284369	0.087355
498.503055	0.086831
498.721723	0.087862
498.940372	0.089414
499.159003	0.089341
499.377616	0.090013
499.596210	0.088785
499.814787	0.089106
500.033345	0.088790
500.251885	0.088511
500.470406	0.089795
500.688910	0.090686
500.907395	0.089602
501.125862	0.090456
501.344311	0.090292
501.562742	0.090437
501.781154	0.089672
501.999548	0.089377
502.217924	0.090478
502.436282	0.089508
502.654621	0.089451
502.872942	0.090766
503.091245	0.091317
503.309530	0.091515
503.527797	0.092255
503.746045	0.092008
503.964275	0.092118
504.182487	0.091264
504.400681	0.092139
504.618856	0.092130
504.837013	0.091299
505.055152	0.090856
505.273273	0.090951
505.491376	0.090835
505.709460	0.090698
505.927526	0.090319
506.145574	0.090417
506.363604	0.089867
506.581615	0.090062
506.799608	0.090096
507.017583	0.090152
507.235540	0.090090
507.453478	0.089827
507.671399	0.090808
507.889301	0.091067
508.107185	0.091520
508.325050	0.091057
508.542898	0.091165
508.760727	0.091499
508.978538	0.091447
509.196330	0.091441
509.414105	0.092385
509.631861	0.092469
509.849599	0.093076
510.067319	0.091484
510.285021	0.092231
510.502704	0.092223
510.720369	0.092514
510.938016	0.092947
511.155645	0.092943
511.373255	0.092499
511.590848	0.091976
511.808422	0.091810
512.025977	0.093580
512.243515	0.093368
512.461034	0.093362
512.678536	0.092986
512.896018	0.092735
513.113483	0.092815
513.330930	0.092135
513.548358	0.093045
513.765768	0.093637
513.983160	0.092951
514.200533	0.093874
514.417889	0.094180
514.635226	0.093880
514.852545	0.093757
515.069845	0.093983
515.287128	0.094959
515.504392	0.094951
515.721638	0.094823
515.938866	0.095238
516.156075	0.094626
516.373267	0.094632
516.590440	0.095340
516.807594	0.095456
517.024731	0.095924
517.241850	0.095585
517.458950	0.095662
517.676032	0.095716
517.893095	0.096612
518.110141	0.097104
518.327168	0.096718
518.544177	0.096849
518.761168	0.097212
518.978141	0.096622
519.195095	0.097361
519.412031	0.096697
519.628949	0.096483
519.845849	0.095758
520.062731	0.095148
520.279594	0.095762
520.496439	0.096465
520.713266	0.096916
520.930074	0.097638
521.146865	0.097253
521.363637	0.098305
521.580391	0.098480
521.797127	0.099042
522.013844	0.099993
522.230543	0.100195
522.447224	0.099534
522.663887	0.099084
522.880532	0.098754
523.097158	0.098551
523.313766	0.098093
523.530356	0.098039
523.746928	0.097993
523.963481	0.097709
524.180017	0.097899
524.396534	0.098362
524.613032	0.098677
524.829513	0.098818
525.045975	0.099327
525.262420	0.099575
525.478845	0.099744
525.695253	0.099929
525.911643	0.099770
526.128014	0.099766
526.344367	0.099660
526.560702	0.099766
526.777018	0.099926
526.993316	0.100228
527.209597	0.100383
527.425858	0.100676
527.642102	0.100560
527.858328	0.100940
528.074535	0.100954
528.290724	0.101033
528.506894	0.101781
528.723047	0.101818
528.939181	0.102156
529.155297	0.102109
529.371395	0.101772
529.587475	0.101836
529.803536	0.101333
530.019579	0.101480
530.235604	0.100998
530.451611	0.100320
530.667600	0.100169
530.883570	0.100014
531.099522	0.099844
531.315456	0.099906
531.531372	0.099749
531.747269	0.100819
531.963148	0.100875
532.179009	0.101472
532.394852	0.101851
532.610676	0.102266
532.826482	0.102056
533.042271	0.103156
533.258040	0.103541
533.473792	0.104532
533.689525	0.104120
533.905240	0.104746
534.120937	0.104979
534.336616	0.105205
534.552277	0.105287
534.767919	0.105752
534.983543	0.105529
535.199149	0.105787
535.414736	0.105270
535.630306	0.105857
535.845857	0.105368
536.061390	0.105430
536.276904	0.105065
536.492401	0.105629
536.707879	0.105902
536.923339	0.105881
537.138781	0.105961
537.354204	0.106587
537.569610	0.105949
537.784997	0.106254
538.000366	0.106504
538.215716	0.107265
538.431049	0.106834
538.646363	0.106580
538.861659	0.106490
539.076937	0.106793
539.292196	0.106394
539.507438	0.107094
539.722661	0.106881
539.937866	0.106438
540.153052	0.106095
540.368221	0.106410
540.583371	0.106631
540.798503	0.107359
541.013617	0.107001
541.228712	0.106827
541.443789	0.106727
541.658848	0.107304
541.873889	0.107664
542.088912	0.107904
542.303916	0.107861
542.518902	0.108322
542.733870	0.108047
542.948820	0.108481
543.163752	0.108749
543.378665	0.108879
543.593560	0.108883
543.808437	0.109168
544.023295	0.109212
544.238136	0.109553
544.452958	0.109221
544.667762	0.108970
544.882548	0.108864
545.097315	0.108878
545.312064	0.108851
545.526795	0.108981
545.741508	0.109218
545.956203	0.109109
546.170879	0.109040
546.385537	0.109290
546.600177	0.109539
546.814799	0.109688
547.029402	0.110205
547.243988	0.110274
547.458555	0.110140
547.673103	0.110317
547.887634	0.110384
548.102146	0.110731
548.316640	0.110389
548.531116	0.110741
548.745574	0.110825
548.960013	0.111197
549.174435	0.111222
549.388838	0.111449
549.603222	0.111227
549.817589	0.111422
550.031937	0.111088
550.246267	0.111141
550.460579	0.110766
550.674873	0.111092
550.889148	0.110873
551.103405	0.111306
551.317644	0.111309
551.531865	0.111707
551.746068	0.111878
551.960252	0.112078
552.174418	0.112234
552.388566	0.112646
552.602696	0.112742
552.816807	0.112251
553.030900	0.111989
553.244975	0.111868
553.459032	0.111494
553.673070	0.111694
553.887091	0.112071
554.101093	0.112276
554.315077	0.112529
554.529042	0.112466
554.742990	0.112906
554.956919	0.112990
555.170830	0.113374
555.384722	0.113472
555.598597	0.112993
555.812453	0.112799
556.026291	0.112921
556.240111	0.112622
556.453913	0.112534
556.667696	0.112439
556.881461	0.112647
557.095208	0.112333
557.308937	0.112634
557.522647	0.112901
557.736339	0.113179
557.950013	0.113057
558.163669	0.112869
558.377307	0.112640
558.590926	0.112780
558.804527	0.112799
559.018110	0.112735
559.231675	0.112324
559.445221	0.112421
559.658749	0.112271
559.872259	0.112431
560.085751	0.112653
560.299225	0.112642
560.512680	0.112255
560.726117	0.112054
560.939536	0.112193
561.152937	0.112397
561.366319	0.112434
561.579683	0.112644
561.793029	0.112612
562.006357	0.112771
562.219667	0.113387
562.432958	0.113911
562.646231	0.114385
562.859486	0.114415
563.072723	0.114843
563.285941	0.115055
563.499141	0.114928
563.712323	0.115378
563.925487	0.115501
564.138632	0.115216
564.351760	0.114981
564.564869	0.114986
564.777960	0.115461
564.991032	0.115202
565.204087	0.115407
565.417123	0.115347
565.630141	0.115258
565.843140	0.115196
566.056122	0.115575
566.269085	0.115995
566.482030	0.116101
566.694957	0.116322
566.907866	0.116562
567.120756	0.116210
567.333628	0.116555
567.546482	0.116498
567.759318	0.116579
567.972135	0.116734
568.184935	0.116643
568.397716	0.116267
568.610478	0.116140
568.823223	0.115948
569.035949	0.116085
569.248657	0.116131
569.461347	0.116339
569.674019	0.116141
569.886672	0.115919
570.099308	0.116252
570.311925	0.116265
570.524523	0.115958
570.737104	0.116054
570.949666	0.116286
571.162210	0.115908
571.374736	0.115585
571.587244	0.115771
571.799733	0.116054
572.012205	0.115996
572.224658	0.116445
572.437092	0.116957
572.649509	0.117335
572.861907	0.117421
573.074287	0.117881
573.286649	0.118218
573.498993	0.118520
573.711318	0.118457
573.923625	0.118830
574.135914	0.118971
574.348185	0.118853
574.560438	0.118548
574.772672	0.118497
574.984888	0.118393
575.197086	0.118457
575.409266	0.118741
575.621427	0.118888
575.833570	0.118743
576.045695	0.118807
576.257802	0.118887
576.469890	0.119156
576.681961	0.119405
576.894013	0.119529
577.106046	0.119767
577.318062	0.119476
577.530059	0.119223
577.742039	0.119252
577.954000	0.119078
578.165942	0.119070
578.377867	0.119039
578.589773	0.119285
578.801661	0.119686
579.013531	0.119810
579.225382	0.120040
579.437216	0.120464
579.649031	0.120802
579.860828	0.121401
580.072606	0.121368
580.284367	0.121399
580.496109	0.121363
580.707833	0.120932
580.919539	0.120881
581.131227	0.120768
581.342896	0.120854
581.554547	0.120577
581.766180	0.120127
581.977795	0.120504
582.189391	0.120970
582.400969	0.120731
582.612529	0.121386
582.824071	0.121346
583.035595	0.121630
583.247100	0.121834
583.458587	0.122213
583.670056	0.122743
583.881506	0.122961
584.092939	0.123064
584.304353	0.123468
584.515749	0.123048
584.727127	0.123196
584.938486	0.123212
585.149828	0.122838
585.361151	0.122929
585.572456	0.123251
585.783742	0.123202
585.995011	0.122905
586.206261	0.123008
586.417493	0.123623
586.628706	0.123908
586.839902	0.124067
587.051079	0.124634
587.262238	0.124627
587.473379	0.124753
587.684502	0.124790
587.895606	0.125153
588.106692	0.125348
588.317760	0.125056
588.528810	0.125164
588.739841	0.125518
588.950855	0.125368
589.161850	0.125614
589.372827	0.125295
589.583785	0.125575
589.794726	0.125638
590.005648	0.125817
590.216552	0.125968
590.427437	0.125657
590.638305	0.125520
590.849154	0.125672
591.059985	0.125537
591.270798	0.125707
591.481592	0.125361
591.692369	0.125380
591.903127	0.124842
592.113867	0.124780
592.324588	0.125197
592.535292	0.125101
592.745977	0.125127
592.956644	0.124928
593.167293	0.124875
593.377923	0.125235
593.588536	0.125256
593.799130	0.125434
594.009706	0.125676
594.220263	0.125726
594.430803	0.125897
594.641324	0.125926
594.851827	0.126067
595.062312	0.126097
595.272778	0.126036
595.483227	0.126139
595.693657	0.126422
595.904069	0.126461
596.114462	0.126424
596.324838	0.126761
596.535195	0.126946
596.745534	0.127151
596.955855	0.127200
597.166157	0.127524
597.376441	0.127564
597.586707	0.127709
597.796955	0.127931
598.007185	0.127799
598.217396	0.127844
598.427589	0.127895
598.637764	0.127527
598.847921	0.127797
599.058060	0.127508
599.268180	0.127472
599.478282	0.127611
599.688366	0.127687
599.898431	0.127806
600.108479	0.127924
600.318508	0.127778
600.528519	0.128448
600.738511	0.128363
600.948486	0.128491
601.158442	0.128585
601.368380	0.128506
601.578300	0.128482
601.788202	0.128894
601.998085	0.128652
602.207950	0.128889
602.417797	0.128783
602.627626	0.128842
602.837436	0.128938
603.047228	0.129041
603.257002	0.129024
603.466758	0.128995
603.676496	0.128832
603.886215	0.128807
604.095916	0.129057
604.305599	0.129150
604.515264	0.129153
604.724910	0.129322
604.934538	0.129556
605.144148	0.129503
605.353740	0.129373
605.563314	0.129534
605.772869	0.129830
605.982406	0.129692
606.191925	0.129386
606.401425	0.129464
606.610908	0.129348
606.820372	0.129241
607.029818	0.129438
607.239246	0.129778
607.448655	0.130152
607.658047	0.130145
607.867420	0.130231
608.076775	0.130707
608.286111	0.131037
608.495430	0.131144
608.704730	0.131315
608.914012	0.131451
609.123275	0.131598
609.332521	0.131353
609.541748	0.131467
609.750957	0.131471
609.960148	0.131643
610.169321	0.131821
610.378475	0.132073
610.587611	0.132248
610.796729	0.132221
611.005829	0.132241
611.214910	0.132436
611.423974	0.132503
611.633019	0.132866
611.842045	0.133021
612.051054	0.132900
612.260044	0.133211
612.469017	0.133104
612.677970	0.133276
612.886906	0.133301
613.095824	0.133311
613.304723	0.133326
613.513604	0.133315
613.722467	0.133231
613.931311	0.133314
614.140138	0.133137
614.348946	0.133489
614.557736	0.133854
614.766507	0.133854
614.975261	0.134199
615.183996	0.134220
615.392713	0.134014
615.601412	0.134252
615.810092	0.134202
616.018754	0.134151
616.227399	0.134091
616.436024	0.134181
616.644632	0.134389
616.853222	0.134141
617.061793	0.134436
617.270346	0.134814
617.478880	0.134855
617.687397	0.135007
617.895895	0.135364
618.104375	0.135315
618.312837	0.134967
618.521281	0.134931
618.729706	0.134962
618.938113	0.134992
619.146502	0.134900
619.354873	0.134828
619.563226	0.134831
619.771560	0.134651
619.979876	0.134676
620.188174	0.134948
620.396453	0.134948
620.604715	0.134981
620.812958	0.134845
621.021183	0.135070
621.229390	0.135213
621.437578	0.135137
621.645748	0.135169
621.853900	0.135367
622.062034	0.135436
622.270150	0.135504
622.478247	0.135639
622.686326	0.135890
622.894387	0.136014
623.102430	0.136082
623.310454	0.136361
623.518461	0.136415
623.726449	0.136681
623.934418	0.136885
624.142370	0.137221
624.350303	0.137236
624.558218	0.137404
624.766115	0.137177
624.973994	0.137078
625.181855	0.137210
625.389697	0.137379
625.597521	0.137349
625.805327	0.137101
626.013114	0.136967
626.220883	0.136911
626.428634	0.136657
626.636367	0.136550
626.844082	0.136320
627.051778	0.136485
627.259457	0.136452
627.467117	0.136271
627.674758	0.136106
627.882382	0.136148
628.089987	0.136304
628.297574	0.136284
628.505143	0.136477
628.712694	0.136940
628.920226	0.136710
629.127740	0.136663
629.335236	0.136761
629.542714	0.136993
629.750174	0.136941
629.957615	0.137281
630.165038	0.137389
630.372443	0.137545
630.579829	0.137366
630.787198	0.137447
630.994548	0.137630
631.201880	0.137634
631.409194	0.137667
631.616489	0.137793
631.823766	0.137638
632.031025	0.137904
632.238266	0.138027
632.445489	0.138284
632.652693	0.138170
632.859879	0.138475
633.067047	0.138605
633.274197	0.138772
633.481329	0.138881
633.688442	0.138904
633.895537	0.138882
634.102614	0.138877
634.309672	0.138969
634.516713	0.139162
634.723735	0.138955
634.930739	0.139240
635.137724	0.139393
635.344692	0.139495
635.551641	0.139502
635.758572	0.139593
635.965485	0.139637
636.172379	0.139595
636.379256	0.139782
636.586114	0.139884
636.792954	0.139748
636.999775	0.139699
637.206579	0.139878
637.413364	0.140072
637.620131	0.140078
637.826880	0.140333
638.033610	0.140495
638.240323	0.140623
638.447017	0.140965
638.653692	0.141168
638.860350	0.141418
639.066990	0.141640
639.273611	0.141731
639.480214	0.142065
639.686798	0.142084
639.893365	0.142325
640.099913	0.142490
640.306443	0.142545
640.512955	0.142687
640.719449	0.142871
640.925924	0.142821
641.132381	0.142882
641.338820	0.142836
641.545241	0.143006
641.751644	0.143104
641.958028	0.143069
642.164394	0.143044
642.370742	0.143083
642.577071	0.143103
642.783383	0.143042
642.989676	0.143058
643.195951	0.143069
643.402207	0.143180
643.608446	0.142953
643.814666	0.143069
644.020868	0.143171
644.227052	0.143295
644.433218	0.143199
644.639365	0.143472
644.845494	0.143814
645.051605	0.143993
645.257698	0.143932
645.463772	0.144401
645.669828	0.144563
645.875866	0.144457
646.081886	0.144411
646.287888	0.144637
646.493871	0.144466
646.699836	0.144408
646.905783	0.144603
647.111712	0.144662
647.317622	0.144280
647.523514	0.144193
647.729388	0.144157
647.935244	0.144258
648.141082	0.144232
648.346901	0.144346
648.552702	0.144050
648.758485	0.143982
648.964250	0.144149
649.169996	0.144585
649.375724	0.144725
649.581434	0.145091
649.787126	0.145225
649.992800	0.145394
650.198455	0.145592
650.404092	0.145797
650.609711	0.145677
650.815311	0.145347
651.020894	0.144968
651.226458	0.144940
651.432004	0.144785
651.637532	0.144661
651.843041	0.144621
652.048532	0.144598
652.254006	0.144736
652.459460	0.144978
652.664897	0.145316
652.870315	0.145608
653.075716	0.145891
653.281097	0.146025
653.486461	0.146185
653.691807	0.146277
653.897134	0.146442
654.102443	0.146721
654.307734	0.146768
654.513006	0.147012
654.718261	0.147241
654.923497	0.147206
655.128715	0.147235
655.333915	0.147253
655.539096	0.147579
655.744259	0.147540
655.949404	0.147487
656.154531	0.147716
656.359640	0.147735
656.564730	0.147825
656.769802	0.147850
656.974856	0.148115
657.179892	0.148425
657.384909	0.148288
657.589908	0.148580
657.794889	0.148721
657.999852	0.148863
658.204797	0.149058
658.409723	0.149132
658.614631	0.149457
658.819521	0.149539
659.024393	0.149682
659.229246	0.149960
659.434081	0.150135
659.638898	0.150120
659.843697	0.150014
660.048478	0.149840
660.253240	0.149838
660.457984	0.149890
660.662710	0.150063
660.867417	0.150054
661.072107	0.149936
661.276778	0.149697
661.481431	0.149785
661.686066	0.149815
661.890682	0.149980
662.095281	0.150000
662.299861	0.149843
662.504422	0.149693
662.708966	0.149676
662.913491	0.150006
663.117999	0.150215
663.322488	0.150251
663.526958	0.150618
663.731411	0.150763
663.935845	0.151015
664.140261	0.151259
664.344659	0.151543
664.549038	0.151699
664.753400	0.151767
664.957743	0.151986
665.162068	0.152381
665.366375	0.152117
665.570663	0.152406
665.774933	0.152306
665.979185	0.152105
666.183419	0.152073
666.387635	0.151864
666.591832	0.151665
666.796011	0.151532
667.000172	0.151519
667.204315	0.151665
667.408439	0.151433
667.612545	0.151556
667.816634	0.152127
668.020703	0.152208
668.224755	0.152632
668.428788	0.152915
668.632803	0.152981
668.836800	0.152990
669.040779	0.152960
669.244739	0.153043
669.448681	0.153193
669.652605	0.153067
669.856511	0.153166
670.060399	0.153092
670.264268	0.153266
670.468119	0.153587
670.671952	0.153793
670.875767	0.154034
671.079563	0.154459
671.283341	0.154405
671.487101	0.154418
671.690843	0.154534
671.894567	0.154703
672.098272	0.154580
672.301959	0.154638
672.505628	0.154441
672.709278	0.154614
672.912911	0.154566
673.116525	0.154702
673.320121	0.154786
673.523699	0.154832
673.727258	0.154854
673.930799	0.154922
674.134322	0.154754
674.337827	0.154910
674.541314	0.154983
674.744782	0.154895
674.948232	0.155136
675.151664	0.155227
675.355078	0.155287
675.558474	0.155525
675.761851	0.155665
675.965210	0.155946
676.168551	0.155989
676.371873	0.155961
676.575178	0.156012
676.778464	0.156134
676.981732	0.156170
677.184981	0.156259
677.388213	0.155987
677.591426	0.155780
677.794621	0.155721
677.997798	0.155898
678.200956	0.156070
678.404097	0.156211
678.607219	0.156197
678.810323	0.156284
679.013408	0.156515
679.216476	0.156848
679.419525	0.157214
679.622556	0.157355
679.825569	0.157519
680.028563	0.157463
680.231540	0.157527
680.434498	0.157614
680.637438	0.157780
680.840359	0.157706
681.043263	0.157794
681.246148	0.157811
681.449015	0.157916
681.651864	0.157933
681.854694	0.158211
682.057506	0.158287
682.260301	0.158175
682.463076	0.158105
682.665834	0.158324
682.868573	0.158360
683.071295	0.158625
683.273998	0.158888
683.476682	0.159048
683.679349	0.159005
683.881997	0.159178
684.084627	0.159350
684.287239	0.159485
684.489833	0.159477
684.692408	0.159500
684.894965	0.159181
685.097504	0.158934
685.300025	0.158891
685.502527	0.158840
685.705012	0.158812
685.907478	0.158847
686.109925	0.158698
686.312355	0.158594
686.514766	0.158700
686.717159	0.159070
686.919534	0.159187
687.121891	0.159384
687.324230	0.159594
687.526550	0.159582
687.728852	0.159624
687.931136	0.159944
688.133401	0.159945
688.335649	0.160070
688.537878	0.160085
688.740089	0.160106
688.942281	0.159896
689.144456	0.159895
689.346612	0.160096
689.548750	0.160188
689.750870	0.160229
689.952971	0.160604
690.155055	0.160686
690.357120	0.160763
690.559167	0.160770
690.761195	0.161105
690.963206	0.161140
691.165198	0.161158
691.367172	0.161307
691.569128	0.161284
691.771065	0.161274
691.972984	0.161161
692.174885	0.161065
692.376768	0.161169
692.578633	0.160985
692.780479	0.160851
692.982308	0.160575
693.184118	0.160341
693.385909	0.160222
693.587683	0.160148
693.789438	0.160171
693.991175	0.160033
694.192894	0.159932
694.394595	0.160071
694.596277	0.160385
694.797941	0.160790
694.999587	0.161182
695.201215	0.161372
695.402824	0.161502
695.604416	0.161904
695.805989	0.162493
696.007543	0.162680
696.209080	0.162864
696.410598	0.162812
696.612099	0.162889
696.813580	0.162872
697.015044	0.163085
697.216490	0.163258
697.417917	0.163102
697.619326	0.162968
697.820717	0.163193
698.022089	0.163075
698.223444	0.163405
698.424780	0.163646
698.626098	0.163943
698.827397	0.164095
699.028679	0.164259
699.229942	0.164401
699.431187	0.164459
699.632414	0.164627
699.833622	0.164906
700.034813	0.165028
700.235985	0.164842
700.437139	0.164772
700.638274	0.164958
700.839392	0.165034
701.040491	0.165319
701.241572	0.165574
701.442635	0.165578
701.643679	0.165630
701.844706	0.165560
702.045714	0.165644
702.246704	0.165835
702.447675	0.165629
702.648629	0.165595
702.849564	0.165353
703.050481	0.165094
703.251380	0.165224
703.452260	0.165132
703.653122	0.165162
703.853966	0.165225
704.054792	0.165111
704.255600	0.165228
704.456389	0.165184
704.657160	0.165311
704.857913	0.165498
705.058648	0.165407
705.259365	0.165333
705.460063	0.165308
705.660743	0.165466
705.861405	0.165449
706.062048	0.165462
706.262674	0.165523
706.463281	0.165281
706.663870	0.165202
706.864441	0.165203
707.064993	0.165317
707.265527	0.165306
707.466043	0.164972
707.666541	0.165035
707.867021	0.165050
708.067482	0.164889
708.267925	0.165239
708.468350	0.165199
708.668757	0.165176
708.869145	0.165451
709.069516	0.165263
709.269868	0.165449
709.470201	0.165198
709.670517	0.165077
709.870814	0.165152
710.071093	0.165049
710.271354	0.165062
710.471597	0.165088
710.671821	0.165088
710.872028	0.165476
711.072216	0.165603
711.272385	0.165691
711.472537	0.166051
711.672670	0.166106
711.872785	0.166135
712.072882	0.166192
712.272961	0.166365
712.473021	0.166396
712.673063	0.166442
712.873087	0.166468
713.073093	0.166861
713.273081	0.166607
713.473050	0.166613
713.673001	0.166615
713.872934	0.166731
714.072849	0.166569
714.272745	0.166528
714.472623	0.166474
714.672483	0.166646
714.872325	0.166603
715.072148	0.166777
715.271954	0.167005
715.471741	0.167085
715.671509	0.167184
715.871260	0.167172
716.070992	0.167165
716.270707	0.167272
716.470403	0.167232
716.670080	0.167402
716.869740	0.167410
717.069381	0.167519
717.269004	0.167642
717.468609	0.167870
717.668195	0.168188
717.867764	0.168293
718.067314	0.168152
718.266846	0.168138
718.466360	0.167906
718.665855	0.167927
718.865332	0.167540
719.064791	0.167282
719.264232	0.166958
719.463655	0.166621
719.663059	0.166396
719.862445	0.166191
720.061813	0.166161
720.261163	0.166074
720.460494	0.166015
720.659807	0.166076
720.859102	0.166077
721.058379	0.166079
721.257638	0.166249
721.456878	0.166124
721.656100	0.166283
721.855304	0.166200
722.054490	0.166201
722.253657	0.166169
722.452806	0.166234
722.651937	0.166198
722.851050	0.166293
723.050145	0.166139
723.249221	0.166120
723.448279	0.165842
723.647319	0.165713
723.846340	0.165496
724.045344	0.165325
724.244329	0.165005
724.443296	0.164885
724.642245	0.164565
724.841175	0.164456
725.040088	0.164236
725.238982	0.164192
725.437857	0.163882
725.636715	0.163819
725.835554	0.163618
726.034376	0.163555
726.233179	0.163427
726.431963	0.163119
726.630730	0.162922
726.829478	0.162773
727.028208	0.162698
727.226920	0.162820
727.425614	0.162654
727.624289	0.162591
727.822946	0.162580
728.021585	0.162489
728.220206	0.162669
728.418808	0.162563
728.617392	0.162775
728.815958	0.162932
729.014506	0.163141
729.213036	0.163140
729.411547	0.163218
729.610040	0.163410
729.808515	0.163341
730.006972	0.163282
730.205410	0.163293
730.403831	0.163137
730.602233	0.162980
730.800616	0.162631
730.998982	0.162693
731.197329	0.162617
731.395658	0.162284
731.593969	0.162502
731.792262	0.162340
731.990536	0.162366
732.188793	0.162479
732.387031	0.162356
732.585250	0.162519
732.783452	0.162475
732.981635	0.162438
733.179800	0.162581
733.377947	0.162516
733.576076	0.162651
733.774186	0.162665
733.972278	0.162528
734.170352	0.162524
734.368408	0.162117
734.566446	0.162030
734.764465	0.161969
734.962466	0.161739
735.160449	0.161569
735.358413	0.161464
735.556360	0.161056
735.754288	0.160723
735.952198	0.160481
736.150090	0.160628
736.347963	0.160138
736.545818	0.159907
736.743655	0.159816
736.941474	0.159479
737.139275	0.159132
737.337057	0.159166
737.534821	0.159094
737.732567	0.159208
737.930295	0.158966
738.128005	0.159219
738.325696	0.159162
738.523369	0.158792
738.721024	0.159063
738.918660	0.159210
739.116279	0.159190
739.313879	0.159400
739.511461	0.159322
739.709024	0.159334
739.906570	0.159443
740.104097	0.159481
740.301606	0.159594
740.499097	0.159477
740.696569	0.159431
740.894024	0.159490
741.091460	0.159172
741.288878	0.158961
741.486277	0.158635
741.683659	0.158350
741.881022	0.158135
742.078367	0.158165
742.275694	0.157884
742.473002	0.157665
742.670293	0.157437
742.867565	0.157363
743.064819	0.157298
743.262054	0.157266
743.459272	0.157213
743.656471	0.157036
743.853652	0.156868
744.050815	0.156877
744.247959	0.156691
744.445085	0.156602
744.642194	0.156722
744.839283	0.156522
745.036355	0.156570
745.233408	0.156368
745.430444	0.156222
745.627461	0.156311
745.824459	0.156323
746.021440	0.156353
746.218402	0.156290
746.415346	0.156220
746.612272	0.156200
746.809180	0.156183
747.006069	0.156207
747.202940	0.156452
747.399793	0.156543
747.596628	0.156442
747.793444	0.156632
747.990243	0.156868
748.187023	0.156868
748.383784	0.157229
748.580528	0.157246
748.777253	0.157496
748.973960	0.157475
749.170649	0.157338
749.367320	0.157454
749.563973	0.157367
749.760607	0.157150
749.957223	0.157111
750.153821	0.156830
750.350400	0.156969
750.546962	0.156713
750.743505	0.156475
750.940030	0.156275
751.136536	0.156101
751.333025	0.156164
751.529495	0.156161
751.725947	0.156082
751.922381	0.156068
752.118796	0.155650
752.315194	0.155627
752.511573	0.155622
752.707934	0.155564
752.904276	0.155519
753.100601	0.155289
753.296907	0.155372
753.493195	0.155203
753.689465	0.155019
753.885716	0.155356
754.081949	0.155432
754.278164	0.155537
754.474361	0.155475
754.670540	0.155417
754.866700	0.155362
755.062843	0.155274
755.258967	0.155203
755.455072	0.155283
755.651160	0.155104
755.847229	0.154922
756.043280	0.154909
756.239313	0.154910
756.435328	0.154875
756.631324	0.154746
756.827302	0.154623
757.023262	0.154671
757.219204	0.154764
757.415127	0.154527
757.611033	0.154414
757.806920	0.154450
758.002788	0.154452
758.198639	0.154477
758.394471	0.154586
758.590286	0.154407
758.786081	0.154388
758.981859	0.154036
759.177619	0.153963
759.373360	0.153882
759.569083	0.153638
759.764788	0.153590
759.960474	0.153432
760.156143	0.153229
760.351793	0.153055
760.547425	0.152871
760.743038	0.152838
760.938634	0.152949
761.134211	0.153041
761.329770	0.153035
761.525311	0.152911
761.720833	0.152663
761.916338	0.152710
762.111824	0.152806
762.307292	0.153036
762.502741	0.153111
762.698173	0.152565
762.893586	0.152430
763.088981	0.152247
763.284358	0.152239
763.479716	0.152220
763.675057	0.152084
763.870379	0.152064
764.065683	0.152034
764.260968	0.151837
764.456236	0.152214
764.651485	0.152211
764.846716	0.152200
765.041929	0.152271
765.237123	0.152596
765.432299	0.152614
765.627457	0.152656
765.822597	0.152199
766.017719	0.152361
766.212822	0.152198
766.407907	0.152108
766.602974	0.152060
766.798023	0.151841
766.993054	0.151381
767.188066	0.151249
767.383060	0.151237
767.578036	0.151413
767.772993	0.151212
767.967933	0.151017
768.162854	0.151023
768.357757	0.150999
768.552642	0.150855
768.747508	0.150810
768.942356	0.150726
769.137186	0.150508
769.331998	0.150444
769.526792	0.150308
769.721567	0.150306
769.916324	0.150058
770.111063	0.149809
770.305784	0.149867
770.500486	0.149860
770.695171	0.150053
770.889837	0.149878
771.084484	0.149814
771.279114	0.150095
771.473725	0.150331
771.668318	0.150322
771.862893	0.150594
772.057450	0.150682
772.251988	0.150620
772.446509	0.150442
772.641011	0.150580
772.835494	0.150517
773.029960	0.150213
773.224407	0.150043
773.418836	0.149937
773.613247	0.149918
773.807640	0.149640
774.002014	0.149639
774.196370	0.149346
774.390708	0.149340
774.585028	0.149357
774.779330	0.149310
774.973613	0.149255
775.167878	0.149255
775.362125	0.148899
775.556354	0.148992
775.750564	0.149127
775.944756	0.149213
776.138930	0.149026
776.333086	0.149029
776.527223	0.149049
776.721343	0.148820
776.915444	0.148797
777.109526	0.149013
777.303591	0.148936
777.497637	0.148875
777.691666	0.149005
777.885676	0.149107
778.079667	0.148819
778.273641	0.148926
778.467596	0.149164
778.661533	0.149145
778.855452	0.149028
779.049352	0.149159
779.243235	0.149125
779.437099	0.149192
779.630945	0.149108
779.824773	0.149406
780.018582	0.149405
780.212373	0.149474
780.406146	0.149701
780.599901	0.149726
780.793638	0.149715
780.987356	0.149834
781.181056	0.149776
781.374738	0.149790
781.568402	0.149574
781.762047	0.149647
781.955674	0.149713
782.149283	0.149760
782.342874	0.149896
782.536447	0.149996
782.730001	0.150054
782.923537	0.150281
783.117055	0.150589
783.310555	0.150926
783.504036	0.151067
783.697499	0.151003
783.890944	0.151122
784.084371	0.151438
784.277780	0.151440
784.471170	0.151513
784.664542	0.151310
784.857896	0.151351
785.051231	0.151311
785.244549	0.151124
785.437848	0.151365
785.631129	0.151136
785.824392	0.150931
786.017636	0.150846
786.210863	0.150660
786.404071	0.150886
786.597260	0.150920
786.790432	0.151027
786.983585	0.151180
787.176721	0.151054
787.369838	0.151390
787.562936	0.151384
787.756017	0.151396
787.949079	0.151726
788.142123	0.151451
788.335149	0.151218
788.528156	0.151111
788.721146	0.150994
788.914117	0.151151
789.107070	0.151005
789.300005	0.150952
789.492921	0.151017
789.685819	0.150819
789.878699	0.151218
790.071561	0.151531
790.264405	0.151658
790.457230	0.151602
790.650037	0.151532
790.842826	0.151473
791.035597	0.151564
791.228349	0.151692
791.421084	0.151816
791.613800	0.151708
791.806497	0.151672
791.999177	0.151644
792.191838	0.151843
792.384481	0.151893
792.577106	0.152110
792.769713	0.152009
792.962301	0.151870
793.154871	0.151696
793.347423	0.151707
793.539957	0.151674
793.732473	0.151988
793.924970	0.152191
794.117449	0.152243
794.309910	0.152287
794.502353	0.152820
794.694777	0.153199
794.887183	0.153477
795.079571	0.153586
795.271941	0.153782
795.464293	0.153714
795.656626	0.153832
795.848941	0.154014
796.041238	0.154369
796.233516	0.154142
796.425777	0.154144
796.618019	0.154329
796.810243	0.154531
797.002449	0.154517
797.194636	0.154624
797.386805	0.154871
797.578956	0.154925
797.771089	0.154658
797.963204	0.154734
798.155300	0.154716
798.347378	0.154587
798.539438	0.154600
798.731480	0.154866
798.923503	0.154850
799.115509	0.154632
799.307496	0.154797
799.499465	0.154992
799.691415	0.155131
799.883348	0.155175
800.075262	0.155580
800.267158	0.155607
800.459035	0.155583
800.650895	0.155855
800.842736	0.156002
801.034559	0.155917
801.226364	0.155951
801.418150	0.156116
801.609919	0.156461
801.801669	0.156354
801.993401	0.156674
802.185114	0.156814
802.376810	0.156915
802.568487	0.157186
802.760146	0.157481
802.951787	0.157601
803.143409	0.157607
803.335014	0.157938
803.526600	0.158153
803.718168	0.158274
803.909717	0.158435
804.101249	0.158516
804.292762	0.158571
804.484257	0.158644
804.675734	0.159123
804.867192	0.159383
805.058632	0.159483
805.250054	0.159769
805.441458	0.159838
805.632844	0.159963
805.824211	0.159938
806.015561	0.160113
806.206891	0.160280
806.398204	0.160067
806.589499	0.160064
806.780775	0.159989
806.972033	0.160017
807.163273	0.160282
807.354495	0.160260
807.545698	0.160723
807.736883	0.160979
807.928050	0.161216
808.119199	0.161483
808.310329	0.161744
808.501441	0.162029
808.692535	0.162380
808.883611	0.162634
809.074669	0.163074
809.265708	0.163404
809.456729	0.163453
809.647732	0.163812
809.838717	0.164227
810.029683	0.164773
810.220632	0.165066
810.411562	0.165085
810.602474	0.165243
810.793367	0.165774
810.984242	0.165626
811.175100	0.165676
811.365938	0.165774
811.556759	0.165765
811.747562	0.165612
811.938346	0.165611
812.129112	0.165821
812.319860	0.165916
812.510589	0.165949
812.701300	0.166483
812.891994	0.166830
813.082668	0.166833
813.273325	0.167049
813.463964	0.167318
813.654584	0.167475
813.845186	0.167819
814.035769	0.168187
814.226335	0.168330
814.416882	0.168130
814.607411	0.168301
814.797922	0.168434
814.988415	0.168730
815.178889	0.168843
815.369345	0.169084
815.559783	0.169084
815.750203	0.169134
815.940605	0.169072
816.130988	0.169572
816.321353	0.169724
816.511700	0.170134
816.702028	0.170185
816.892339	0.170420
817.082631	0.170466
817.272905	0.170735
817.463161	0.170968
817.653398	0.171224
817.843617	0.171378
818.033819	0.171609
818.224001	0.171549
818.414166	0.171614
818.604312	0.171974
818.794440	0.172164
818.984550	0.172264
819.174642	0.172326
819.364716	0.172189
819.554771	0.172239
819.744808	0.172306
819.934827	0.172507
820.124827	0.172591
820.314810	0.172431
820.504774	0.172515
820.694720	0.172730
820.884647	0.172873
821.074557	0.173175
821.264448	0.173291
821.454321	0.173371
821.644176	0.173465
821.834012	0.173845
822.023831	0.174022
822.213631	0.174483
822.403413	0.174581
822.593176	0.174619
822.782922	0.174959
822.972649	0.175189
823.162358	0.175403
823.352049	0.175682
823.541721	0.175888
823.731376	0.176041
823.921012	0.176201
824.110629	0.176438
824.300229	0.176800
824.489811	0.176945
824.679374	0.176828
824.868919	0.177303
825.058445	0.177451
825.247954	0.177557
825.437444	0.177954
825.626916	0.178226
825.816370	0.178361
826.005806	0.178600
826.195223	0.178967
826.384622	0.179398
826.574003	0.179380
826.763366	0.179604
826.952711	0.179846
827.142037	0.180069
827.331345	0.180131
827.520635	0.180388
827.709906	0.180580
827.899160	0.180543
828.088395	0.180630
828.277612	0.180698
828.466810	0.180958
828.655991	0.181207
828.845153	0.181466
829.034297	0.181926
829.223423	0.182097
829.412531	0.182018
829.601620	0.182682
829.790691	0.183097
829.979744	0.183532
830.168779	0.184008
830.357795	0.184176
830.546793	0.184416
830.735773	0.184431
830.924735	0.184640
831.113679	0.185065
831.302604	0.184834
831.491511	0.184826
831.680400	0.185047
831.869271	0.185167
832.058123	0.185515
832.246957	0.185343
832.435773	0.185384
832.624571	0.185592
832.813351	0.185904
833.002112	0.186125
833.190855	0.186421
833.379580	0.186675
833.568287	0.186701
833.756975	0.186626
833.945645	0.187032
834.134297	0.186995
834.322931	0.186851
834.511547	0.186733
834.700144	0.186818
834.888723	0.187293
835.077284	0.187336
835.265826	0.187519
835.454351	0.187863
835.642857	0.188178
835.831345	0.188829
836.019815	0.189251
836.208266	0.189933
836.396699	0.190352
836.585114	0.190573
836.773511	0.190938
836.961890	0.191400
837.150250	0.191812
837.338592	0.192343
837.526916	0.192802
837.715222	0.193388
837.903510	0.193529
838.091779	0.194187
838.280030	0.194620
838.468263	0.195034
838.656477	0.195483
838.844674	0.195677
839.032852	0.195803
839.221012	0.196270
839.409153	0.196680
839.597277	0.197078
839.785382	0.197085
839.973469	0.197121
840.161538	0.197427
840.349589	0.197456
840.537621	0.198040
840.725635	0.198011
840.913631	0.198337
841.101609	0.198462
841.289568	0.198426
841.477509	0.198657
841.665432	0.198828
841.853337	0.198983
842.041224	0.199147
842.229092	0.198964
842.416942	0.199246
842.604774	0.199276
842.792588	0.199278
842.980383	0.200006
843.168160	0.200505
843.355919	0.200840
843.543660	0.201164
843.731382	0.201283
843.919087	0.201815
844.106773	0.202297
844.294441	0.202367
844.482090	0.202757
844.669722	0.202659
844.857335	0.202614
845.044930	0.202622
845.232507	0.202870
845.420065	0.203518
845.607605	0.203781
845.795127	0.203844
845.982631	0.204196
846.170117	0.204204
846.357584	0.204593
846.545033	0.204950
846.732464	0.205169
846.919877	0.205581
847.107272	0.205537
847.294648	0.205663
847.482006	0.206219
847.669346	0.206241
847.856667	0.206967
848.043971	0.206989
848.231256	0.206957
848.418523	0.207606
848.605771	0.208040
848.793002	0.208454
848.980214	0.208385
849.167408	0.208316
849.354584	0.208713
849.541742	0.208911
849.728881	0.209380
849.916002	0.210077
850.103105	0.210282
850.290190	0.210188
850.477256	0.210455
850.664304	0.211104
850.851334	0.211565
851.038346	0.211829
851.225340	0.211918
851.412315	0.212176
851.599272	0.212182
851.786211	0.212568
851.973132	0.212633
852.160034	0.212711
852.346918	0.212972
852.533784	0.213336
852.720632	0.213303
852.907462	0.213579
853.094273	0.213886
853.281066	0.213976
853.467841	0.213737
853.654598	0.213959
853.841336	0.214238
854.028056	0.214474
854.214758	0.214502
854.401442	0.214783
854.588107	0.214961
854.774755	0.214954
854.961384	0.215521
855.147995	0.215840
855.334587	0.215862
855.521162	0.216194
855.707718	0.216395
855.894256	0.216669
856.080775	0.217307
856.267277	0.217878
856.453760	0.218228
856.640225	0.218377
856.826672	0.218946
857.013101	0.219205
857.199511	0.219519
857.385903	0.219651
857.572277	0.219902
857.758633	0.220122
857.944970	0.220293
858.131290	0.220588
858.317591	0.220753
858.503873	0.220709
858.690138	0.221529
858.876384	0.221613
859.062612	0.222038
859.248822	0.222267
859.435014	0.222425
859.621188	0.222489
859.807343	0.222670
859.993480	0.223027
860.179599	0.223216
860.365699	0.223195
860.551781	0.223696
860.737846	0.223591
860.923891	0.223505
861.109919	0.223710
861.295929	0.223899
861.481920	0.224171
861.667893	0.224526
861.853848	0.225178
862.039784	0.225279
862.225702	0.225502
862.411603	0.225904
862.597484	0.226542
862.783348	0.226740
862.969193	0.226847
863.155021	0.227285
863.340830	0.227306
863.526620	0.227305
863.712393	0.227564
863.898147	0.227697
864.083883	0.227819
864.269601	0.227963
864.455301	0.227880
864.640982	0.228455
864.826645	0.228513
865.012290	0.228760
865.197917	0.228828
865.383526	0.229178
865.569116	0.229195
865.754688	0.229968
865.940242	0.229612
866.125777	0.229864
866.311295	0.229825
866.496794	0.229635
866.682275	0.229502
866.867737	0.229933
867.053182	0.230190
867.238608	0.230342
867.424016	0.230069
867.609406	0.230434
867.794778	0.230871
867.980131	0.230998
868.165466	0.231169
868.350783	0.231026
868.536082	0.230709
868.721362	0.230420
868.906625	0.230309
869.091869	0.230239
869.277094	0.230660
869.462302	0.230477
869.647491	0.230406
869.832662	0.230584
870.017815	0.230789
870.202950	0.231049
870.388066	0.231387
870.573165	0.231727
870.758245	0.232048
870.943306	0.231957
871.128350	0.232175
871.313375	0.232751
871.498382	0.232939
871.683371	0.233769
871.868342	0.234027
872.053294	0.234563
872.238229	0.234929
872.423144	0.235156
872.608042	0.236145
872.792922	0.236658
872.977783	0.236915
873.162626	0.237358
873.347451	0.237593
873.532258	0.237910
873.717046	0.237937
873.901816	0.238291
874.086568	0.238121
874.271302	0.237908
874.456017	0.238055
874.640715	0.238109
874.825394	0.238210
875.010055	0.238004
875.194697	0.238097
875.379322	0.238256
875.563928	0.238212
875.748516	0.238727
875.933085	0.239295
876.117637	0.239474
876.302170	0.239600
876.486685	0.239681
876.671182	0.240182
876.855661	0.240334
877.040121	0.240813
877.224563	0.240920
877.408987	0.241177
877.593393	0.240890
877.777780	0.240937
877.962150	0.240959
878.146501	0.241278
878.330833	0.241197
878.515148	0.241695
878.699444	0.241660
878.883722	0.241656
879.067982	0.241781
879.252224	0.241695
879.436447	0.241928
879.620653	0.242002
879.804840	0.242034
879.989008	0.242353
880.173159	0.242027
880.357291	0.241790
880.541405	0.242049
880.725501	0.241958
880.909579	0.242058
881.093638	0.242287
881.277680	0.242269
881.461703	0.242293
881.645707	0.242080
881.829694	0.242565
882.013662	0.242671
882.197612	0.242801
882.381544	0.242974
882.565458	0.243324
882.749353	0.242967
882.933230	0.242937
883.117089	0.243113
883.300930	0.243138
883.484753	0.243050
883.668557	0.242866
883.852343	0.242633
884.036111	0.243176
884.219861	0.243345
884.403592	0.243611
884.587305	0.243458
884.771000	0.243012
884.954677	0.243148
885.138335	0.243078
885.321976	0.243656
885.505598	0.243631
885.689201	0.243238
885.872787	0.242997
886.056354	0.242883
886.239904	0.243328
886.423434	0.243441
886.606947	0.243292
886.790442	0.243175
886.973918	0.242797
887.157376	0.243152
887.340816	0.243020
887.524237	0.242988
887.707641	0.243178
887.891026	0.243711
888.074393	0.243918
888.257741	0.243833
888.441072	0.243977
888.624384	0.244301
888.807678	0.244330
888.990954	0.244628
889.174211	0.244624
889.357451	0.244763
889.540672	0.244505
889.723875	0.244527
889.907059	0.244776
890.090226	0.245052
890.273374	0.244677
890.456504	0.244969
890.639616	0.244980
890.822709	0.245160
891.005785	0.245557
891.188842	0.245238
891.371881	0.245431
891.554901	0.245131
891.737904	0.244881
891.920888	0.245212
892.103854	0.244989
892.286802	0.245114
892.469731	0.244747
892.652643	0.244141
892.835536	0.243992
893.018410	0.244295
893.201267	0.244591
893.384106	0.244666
893.566926	0.244346
893.749728	0.244159
893.932511	0.243934
894.115277	0.244100
894.298024	0.244235
894.480753	0.244535
894.663464	0.243946
894.846157	0.244160
895.028831	0.244063
895.211487	0.243897
895.394125	0.243986
895.576745	0.243588
895.759346	0.243362
895.941930	0.243010
896.124495	0.242724
896.307041	0.242645
896.489570	0.242369
896.672080	0.242484
896.854573	0.242911
897.037046	0.242880
897.219502	0.242929
897.401940	0.243298
897.584359	0.243578
897.766760	0.243723
897.949143	0.243610
898.131507	0.243920
898.313854	0.243466
898.496182	0.243194
898.678492	0.242780
898.860783	0.242703
899.043057	0.242341
899.225312	0.242056
899.407549	0.241835
899.589768	0.242034
899.771968	0.241523
899.954151	0.241703
900.136315	0.241490
900.318461	0.241739
900.500588	0.241614
900.682698	0.241221
900.864789	0.241066
901.046862	0.240835
901.228917	0.240306
901.410953	0.239842
901.592971	0.239657
901.774972	0.238989
901.956953	0.238545
902.138917	0.238358
902.320862	0.238129
902.502790	0.237356
902.684699	0.236830
902.866589	0.236504
903.048462	0.236223
903.230316	0.235627
903.412152	0.235892
903.593970	0.235825
903.775770	0.236144
903.957551	0.236634
904.139314	0.236862
904.321059	0.237199
904.502786	0.237088
904.684494	0.236953
904.866185	0.237067
905.047857	0.237260
905.229510	0.236848
905.411146	0.235967
905.592763	0.235401
905.774363	0.234775
905.955943	0.234304
906.137506	0.234170
906.319051	0.234339
906.500577	0.233704
906.682085	0.233438
906.863575	0.233461
907.045046	0.233094
907.226500	0.232729
907.407935	0.232864
907.589352	0.232664
907.770750	0.232315
907.952131	0.231785
908.133493	0.231648
908.314837	0.231089
908.496163	0.230893
908.677470	0.230604
908.858760	0.230127
909.040031	0.229739
909.221284	0.229520
909.402518	0.229377
909.583735	0.228981
909.764933	0.228619
909.946113	0.227915
910.127275	0.227500
910.308418	0.227003
910.489544	0.226827
910.670651	0.226439
910.851740	0.226111
911.032810	0.225639
911.213863	0.225438
911.394897	0.225202
911.575913	0.225072
911.756911	0.224344
911.937890	0.224445
912.118851	0.224111
912.299794	0.224305
912.480719	0.223622
912.661626	0.223241
912.842514	0.223445
913.023384	0.223125
913.204236	0.223185
913.385070	0.222905
913.565886	0.222231
913.746683	0.221648
913.927462	0.221038
914.108223	0.221090
914.288965	0.220679
914.469690	0.220318
914.650396	0.219878
914.831084	0.218942
915.011754	0.218614
915.192405	0.218339
915.373038	0.218462
915.553653	0.217957
915.734250	0.217840
915.914829	0.217707
916.095389	0.216871
916.275931	0.216753
916.456455	0.216686
916.636961	0.216655
916.817448	0.216587
916.997917	0.216102
917.178368	0.215911
917.358801	0.215132
917.539216	0.215000
917.719612	0.214519
917.899990	0.214213
918.080350	0.213654
918.260692	0.212868
918.441015	0.212579
918.621320	0.212460
918.801607	0.212120
918.981876	0.211132
919.162127	0.210353
919.342359	0.210376
919.522573	0.210052
919.702769	0.209624
919.882947	0.209368
920.063106	0.208534
920.243247	0.207612
920.423370	0.206715
920.603475	0.207034
920.783562	0.206573
920.963630	0.205729
921.143680	0.205209
921.323712	0.204881
921.503725	0.204094
921.683721	0.203658
921.863698	0.203486
922.043657	0.202934
922.223598	0.202199
922.403520	0.201725
922.583424	0.200664
922.763311	0.199517
922.943178	0.198417
923.123028	0.198311
923.302859	0.198084
923.482673	0.197513
923.662467	0.197484
923.842244	0.196560
924.022003	0.195791
924.201743	0.195964
924.381465	0.195346
924.561169	0.195626
924.740854	0.195237
924.920522	0.194806
925.100171	0.194085
925.279802	0.193196
925.459414	0.192973
925.639009	0.192524
925.818585	0.191991
925.998143	0.192604
926.177683	0.191910
926.357205	0.191029
926.536708	0.190011
926.716193	0.189437
926.895660	0.189528
927.075109	0.188971
927.254539	0.188619
927.433951	0.187399
927.613345	0.185953
927.792721	0.185516
927.972079	0.185142
928.151418	0.184986
928.330739	0.184464
928.510042	0.183252
928.689327	0.182538
928.868593	0.181839
929.047841	0.181333
929.227071	0.181369
929.406283	0.180673
929.585476	0.180100
929.764652	0.179621
929.943809	0.178594
930.122948	0.178287
930.302068	0.177796
930.481171	0.177498
930.660255	0.176984
930.839321	0.176090
931.018369	0.175843
931.197398	0.175100
931.376409	0.174337
931.555402	0.173599
931.734377	0.173046
931.913334	0.172714
932.092272	0.172270
932.271192	0.172138
932.450094	0.170851
932.628978	0.169966
932.807844	0.169408
932.986691	0.168733
933.165520	0.168409
933.344331	0.167109
933.523123	0.166624
933.701898	0.166101
933.880654	0.164938
934.059392	0.164643
934.238111	0.164256
934.416813	0.163796
934.595496	0.162938
934.774161	0.162882
934.952808	0.163241
935.131437	0.162151
935.310047	0.161536
935.488639	0.161607
935.667213	0.160954
935.845769	0.160403
936.024306	0.158943
936.202825	0.158435
936.381326	0.158193
936.559809	0.157316
936.738274	0.156707
936.916720	0.155544
937.095148	0.153999
937.273558	0.152592
937.451950	0.151797
937.630323	0.151045
937.808678	0.150384
937.987015	0.148931
938.165334	0.147932
938.343635	0.147281
938.521917	0.146568
938.700181	0.146625
938.878427	0.146844
939.056655	0.145606
939.234864	0.145638
939.413055	0.144617
939.591228	0.143327
939.769383	0.142415
939.947519	0.141164
940.125638	0.141069
940.303738	0.140874
940.481820	0.139784
940.659883	0.139624
940.837929	0.138287
941.015956	0.137729
941.193965	0.138540
941.371955	0.138210
941.549928	0.138675
941.727882	0.138072
941.905818	0.136993
942.083736	0.135653
942.261636	0.134764
942.439517	0.134387
942.617380	0.134263
942.795225	0.132392
942.973052	0.130790
943.150860	0.129058
943.328651	0.126918
943.506423	0.126483
943.684176	0.126854
943.861912	0.125148
944.039629	0.125402
944.217328	0.125261
944.395009	0.124669
944.572672	0.125426
944.750317	0.124682
944.927943	0.125488
945.105551	0.125154
945.283141	0.125169
945.460712	0.125884
945.638265	0.125240
945.815801	0.123391
945.993317	0.124279
946.170816	0.124007
946.348297	0.123969
946.525759	0.122839
946.703203	0.122228
946.880629	0.121047
947.058036	0.120208
947.235425	0.118471
947.412797	0.118948
947.590149	0.116802
947.767484	0.114515
947.944800	0.114733
948.122099	0.114390
948.299379	0.113028
948.476640	0.112923
948.653884	0.111132
948.831109	0.111830
949.008316	0.110685
949.185505	0.110415
949.362676	0.110806
949.539828	0.111621
949.716962	0.111237
949.894078	0.110155
950.071176	0.109195
950.248256	0.109745
950.425317	0.108254
950.602360	0.107947
950.779385	0.107605
950.956391	0.105063
951.133380	0.101047
951.310350	0.099625
951.487302	0.099106
951.664235	0.098173
951.841151	0.097614
952.018048	0.097493
952.194927	0.096731
952.371788	0.095975
952.548631	0.097264
952.725455	0.097772
952.902261	0.097674
953.079049	0.096010
953.255819	0.094621
953.432570	0.094044
953.609303	0.094258
953.786018	0.092934
953.962715	0.093666
954.139394	0.092235
954.316054	0.093352
954.492696	0.092887
954.669320	0.095323
954.845926	0.096345
955.022513	0.095876
955.199083	0.093949
955.375634	0.092984
955.552166	0.090457
955.728681	0.090793
955.905177	0.088819
956.081655	0.088655
956.258115	0.085967
956.434557	0.086214
956.610980	0.085449
956.787385	0.085837
956.963772	0.086109
957.140141	0.088489
957.316492	0.088845
957.492824	0.089778
957.669138	0.089978
957.845434	0.090994
958.021712	0.090279
958.197971	0.089775
958.374212	0.088601
958.550435	0.088222
958.726640	0.084484
958.902826	0.084488
959.078995	0.085573
959.255145	0.084995
959.431277	0.083695
959.607390	0.083815
959.783486	0.085116
959.959563	0.086319
960.135622	0.087995
960.311662	0.088402
960.487685	0.089050
960.663689	0.088049
960.839675	0.088683
961.015643	0.089434
961.191593	0.087952
961.367524	0.088438
961.543437	0.087531
961.719332	0.086068
961.895209	0.086520
962.071067	0.085774
962.246907	0.085387
962.422730	0.084495
962.598533	0.085218
962.774319	0.085519
962.950086	0.084498
963.125835	0.085474
963.301566	0.086695
963.477279	0.088420
963.652973	0.087551
963.828650	0.086443
964.004308	0.086567
964.179947	0.084889
964.355569	0.086989
964.531172	0.087177
964.706757	0.085716
964.882324	0.084427
965.057873	0.082516
965.233403	0.082426
965.408916	0.082912
965.584410	0.084544
965.759885	0.087804
965.935343	0.086175
966.110782	0.087664
966.286203	0.088098
966.461606	0.089424
966.636991	0.089994
966.812357	0.090710
966.987705	0.089792
967.163035	0.089277
967.338347	0.089622
967.513641	0.088659
967.688916	0.086397
967.864173	0.085711
968.039412	0.084786
968.214632	0.083887
968.389835	0.084211
968.565019	0.084057
968.740185	0.082569
968.915333	0.079676
969.090462	0.078588
969.265573	0.078296
969.440667	0.081351
969.615741	0.082498
969.790798	0.082964
969.965836	0.080332
970.140856	0.080753
970.315858	0.079472
970.490842	0.079734
970.665808	0.080215
970.840755	0.078404
971.015684	0.075293
971.190595	0.074909
971.365487	0.075420
971.540362	0.077450
971.715218	0.078407
971.890056	0.079979
972.064875	0.079722
972.239677	0.080264
972.414460	0.082063
972.589225	0.084185
972.763972	0.082988
972.938700	0.083152
973.113411	0.083218
973.288103	0.081107
973.462777	0.080200
973.637432	0.082330
973.812070	0.083637
973.986689	0.082450
974.161290	0.080759
974.335873	0.081002
974.510437	0.082917
974.684984	0.083535
974.859512	0.083776
975.034022	0.083862
975.208513	0.081641
975.382987	0.081778
975.557442	0.083097
975.731879	0.083921
975.906298	0.084217
976.080698	0.082850
976.255080	0.081496
976.429445	0.082769
976.603790	0.084131
976.778118	0.083809
976.952427	0.084226
977.126719	0.084011
977.300992	0.083633
977.475246	0.085100
977.649483	0.083270
977.823701	0.082601
977.997901	0.083453
978.172083	0.082245
978.346247	0.084807
978.520392	0.083313
978.694519	0.083960
978.868628	0.084623
979.042719	0.082274
979.216791	0.084684
979.390845	0.085433
979.564882	0.083672
979.738899	0.085348
979.912899	0.083098
980.086880	0.085339
980.260843	0.085105
980.434788	0.084922
980.608715	0.084213
980.782623	0.083737
980.956514	0.083849
981.130386	0.085838
981.304240	0.085001
981.478075	0.083977
981.651892	0.083101
981.825692	0.083202
981.999472	0.083930
982.173235	0.086078
982.346980	0.085713
982.520706	0.085743
982.694414	0.084217
982.868104	0.084060
983.041775	0.087523
983.215428	0.085809
983.389064	0.085984
983.562680	0.085316
983.736279	0.085679
983.909860	0.086315
984.083422	0.085881
984.256966	0.086985
984.430491	0.086955
984.603999	0.085448
984.777488	0.088000
984.950959	0.086660
985.124412	0.086621
985.297847	0.085495
985.471263	0.085381
985.644661	0.085803
985.818041	0.085329
985.991403	0.085797
986.164747	0.085010
986.338072	0.083856
986.511379	0.085719
986.684668	0.086566
986.857938	0.087412
987.031191	0.086354
987.204425	0.084746
987.377641	0.084711
987.550839	0.084434
987.724018	0.085414
987.897179	0.084846
988.070322	0.083581
988.243447	0.083683
988.416554	0.083069
988.589642	0.082997
988.762712	0.084646
988.935764	0.082909
989.108798	0.081912
989.281813	0.081546
989.454811	0.082264
989.627790	0.082399
989.800751	0.081526
989.973693	0.080726
990.146617	0.082450
990.319524	0.083144
990.492412	0.085625
990.665281	0.087055
990.838133	0.085616
991.010966	0.085708
991.183781	0.087218
991.356578	0.087229
991.529356	0.087988
991.702117	0.086701
991.874859	0.086715
992.047583	0.085459
992.220288	0.085223
992.392976	0.087028
992.565645	0.086445
992.738296	0.083575
992.910929	0.082634
993.083543	0.080406
993.256139	0.079957
993.428718	0.078900
993.601277	0.079241
993.773819	0.076761
993.946342	0.077186
994.118848	0.077124
994.291335	0.080286
994.463803	0.080602
994.636254	0.083678
994.808686	0.084709
994.981100	0.084427
995.153496	0.085121
995.325874	0.086876
995.498233	0.086234
995.670574	0.087193
995.842897	0.086338
996.015202	0.086322
996.187488	0.085083
996.359757	0.085394
996.532007	0.084497
996.704239	0.084439
996.876452	0.083116
997.048648	0.083699
997.220825	0.082578
997.392984	0.081867
997.565124	0.082353
997.737247	0.082529
997.909351	0.080986
998.081437	0.081188
998.253505	0.080077
998.425554	0.082993
998.597586	0.081676
998.769599	0.081580
998.941594	0.080976
999.113571	0.080056
999.285529	0.078889
999.457469	0.080194
999.629391	0.081385
999.801295	0.081498
999.973181	0.078613
1000.145048	0.080568
1000.316897	0.080768
1000.488728	0.079780
1000.660541	0.080965
1000.832335	0.082035
1001.004111	0.081981
1001.175869	0.081232
1001.347609	0.082039
1001.519331	0.084092
1001.691034	0.082577
1001.862719	0.082806
1002.034386	0.084360
1002.206035	0.082938
1002.377665	0.083460
1002.549277	0.082378
1002.720871	0.082659
1002.892447	0.082508
1003.064004	0.080378
1003.235544	0.081614
1003.407065	0.080910
1003.578568	0.080817
1003.750052	0.082357
1003.921519	0.081191
1004.092967	0.082979
1004.264397	0.083511
1004.435809	0.083068
1004.607202	0.084988
1004.778577	0.082018
1004.949934	0.082320
1005.121273	0.083129
1005.292594	0.081648
1005.463896	0.082112
1005.635180	0.080512
1005.806446	0.081025
1005.977694	0.082902
1006.148923	0.082325
1006.320135	0.082714
1006.491328	0.083095
1006.662503	0.082327
1006.833659	0.084603
1007.004798	0.084260
1007.175918	0.085372
1007.347020	0.083543
1007.518103	0.081267
1007.689169	0.080290
1007.860216	0.081003
1008.031245	0.079285
1008.202256	0.077762
1008.373248	0.076248
1008.544223	0.077638
1008.715179	0.074680
1008.886117	0.075064
1009.057036	0.075539
1009.227938	0.075666
1009.398821	0.076285
1009.569686	0.078655
1009.740533	0.078939
1009.911361	0.078297
1010.082172	0.076954
1010.252964	0.079424
1010.423738	0.080739
1010.594493	0.081355
1010.765231	0.081466
1010.935950	0.079995
1011.106651	0.079316
1011.277334	0.080594
1011.447998	0.080163
1011.618645	0.080428
1011.789273	0.080189
1011.959882	0.079133
1012.130474	0.077909
1012.301048	0.077996
1012.471603	0.080478
1012.642140	0.079973
1012.812658	0.079850
1012.983159	0.081370
1013.153641	0.080049
1013.324105	0.079425
1013.494551	0.080736
1013.664979	0.079556
1013.835388	0.079809
1014.005779	0.078343
1014.176152	0.077900
1014.346507	0.077894
1014.516843	0.076021
1014.687162	0.077368
1014.857462	0.078267
1015.027744	0.076350
1015.198007	0.078512
1015.368252	0.078099
1015.538480	0.078075
1015.708689	0.076883
1015.878879	0.077852
1016.049052	0.079965
1016.219206	0.079749
1016.389342	0.078219
1016.559460	0.079789
1016.729559	0.078416
1016.899641	0.081440
1017.069704	0.082430
1017.239749	0.083783
1017.409775	0.083637
1017.579784	0.083683
1017.749774	0.083958
1017.919746	0.084655
1018.089700	0.084356
1018.259635	0.085350
1018.429553	0.082872
1018.599452	0.081207
1018.769333	0.080983
1018.939195	0.080733
1019.109040	0.080881
1019.278866	0.081249
1019.448674	0.081301
1019.618464	0.081292
1019.788235	0.081732
1019.957989	0.081270
1020.127724	0.082728
1020.297441	0.083314
1020.467139	0.082089
1020.636820	0.081261
1020.806482	0.080740
1020.976126	0.081321
1021.145752	0.079933
1021.315359	0.080549
1021.484948	0.080242
1021.654519	0.079128
1021.824072	0.078951
1021.993607	0.080176
1022.163123	0.080810
1022.332621	0.082237
1022.502101	0.081271
1022.671563	0.082456
1022.841007	0.080320
1023.010432	0.082507
1023.179839	0.084200
1023.349228	0.084831
1023.518598	0.084985
1023.687951	0.085386
1023.857285	0.083638
1024.026601	0.085365
1024.195899	0.086687
1024.365178	0.086219
1024.534439	0.083913
1024.703682	0.082195
1024.872907	0.080807
1025.042114	0.078826
1025.211302	0.076855
1025.380472	0.076747
1025.549624	0.075663
1025.718758	0.073864
1025.887873	0.075148
1026.056970	0.077281
1026.226049	0.076336
1026.395110	0.077888
1026.564153	0.079047
1026.733177	0.078976
1026.902183	0.077630
1027.071171	0.077127
1027.240141	0.077139
1027.409092	0.077684
1027.578026	0.075312
1027.746940	0.076685
1027.915837	0.075215
1028.084716	0.074848
1028.253576	0.074849
1028.422418	0.075160
1028.591242	0.075026
1028.760048	0.073411
1028.928835	0.073731
1029.097604	0.075862
1029.266355	0.075843
1029.435088	0.074961
1029.603803	0.074842
1029.772499	0.075664
1029.941177	0.075309
1030.109837	0.074926
1030.278478	0.076323
1030.447102	0.075217
1030.615707	0.074323
1030.784294	0.074338
1030.952863	0.077425
1031.121413	0.077134
1031.289945	0.077176
1031.458460	0.079092
1031.626955	0.078904
1031.795433	0.079577
1031.963892	0.077813
1032.132334	0.078592
1032.300756	0.077605
1032.469161	0.077424
1032.637548	0.079354
1032.805916	0.079501
1032.974266	0.078440
1033.142598	0.078312
1033.310911	0.078792
1033.479207	0.082264
1033.647484	0.080677
1033.815743	0.081448
1033.983983	0.078902
1034.152206	0.078574
1034.320410	0.077195
1034.488596	0.077881
1034.656764	0.077563
1034.824914	0.075685
1034.993045	0.074996
1035.161158	0.074659
1035.329253	0.075960
1035.497330	0.077669
1035.665388	0.075323
1035.833428	0.075558
1036.001450	0.076453
1036.169454	0.076047
1036.337440	0.077117
1036.505407	0.076275
1036.673356	0.077486
1036.841287	0.075173
1037.009200	0.074809
1037.177094	0.077076
1037.344970	0.077715
1037.512828	0.077197
1037.680668	0.078939
1037.848489	0.080919
1038.016293	0.080835
1038.184078	0.080306
1038.351845	0.081769
1038.519593	0.081396
1038.687324	0.080120
1038.855036	0.079730
1039.022730	0.080709
1039.190406	0.082721
1039.358063	0.081581
1039.525702	0.081260
1039.693323	0.082093
1039.860926	0.081366
1040.028511	0.081319
1040.196077	0.081455
1040.363625	0.081285
1040.531155	0.081150
1040.698667	0.078940
1040.866161	0.078658
1041.033636	0.079764
1041.201093	0.078715
1041.368532	0.079707
1041.535952	0.079974
1041.703355	0.081303
1041.870739	0.082010
1042.038105	0.081327
1042.205452	0.081583
1042.372782	0.081186
1042.540093	0.080594
1042.707386	0.079832
1042.874661	0.079642
1043.041918	0.079703
1043.209156	0.078951
1043.376376	0.078345
1043.543578	0.078634
1043.710762	0.079112
1043.877927	0.078516
1044.045074	0.078410
1044.212203	0.078919
1044.379314	0.077925
1044.546407	0.078225
1044.713481	0.076544
1044.880537	0.075586
1045.047575	0.074803
1045.214595	0.075551
1045.381596	0.076640
1045.548579	0.076476
1045.715544	0.077889
1045.882491	0.077533
1046.049420	0.077789
1046.216330	0.079955
1046.383222	0.081499
1046.550096	0.080382
1046.716951	0.079014
1046.883789	0.078040
1047.050608	0.077722
1047.217409	0.076946
1047.384192	0.077487
1047.550956	0.077408
1047.717703	0.075073
1047.884431	0.075220
1048.051140	0.077462
1048.217832	0.076974
1048.384505	0.077496
1048.551161	0.076260
1048.717798	0.075846
1048.884416	0.074688
1049.051017	0.074036
1049.217599	0.076663
1049.384163	0.077029
1049.550709	0.075413
1049.717237	0.075195
1049.883746	0.075506
1050.050237	0.077070
1050.216710	0.077122
1050.383165	0.078581
1050.549601	0.077594
1050.716019	0.076896
1050.882420	0.075404
1051.048801	0.075972
1051.215165	0.077860
1051.381510	0.075733
1051.547837	0.076927
1051.714146	0.077304
1051.880437	0.076600
1052.046709	0.076787
1052.212964	0.076100
1052.379200	0.076668
1052.545417	0.076570
1052.711617	0.075804
1052.877798	0.077125
1053.043961	0.076911
1053.210106	0.076886
1053.376233	0.080022
1053.542341	0.079859
1053.708432	0.080240
1053.874504	0.080847
1054.040557	0.081250
1054.206593	0.080435
1054.372610	0.079456
1054.538609	0.079018
1054.704590	0.076937
1054.870553	0.074887
1055.036497	0.076283
1055.202424	0.075521
1055.368331	0.076442
1055.534221	0.075230
1055.700093	0.075599
1055.865946	0.076480
1056.031781	0.076099
1056.197598	0.077676
1056.363397	0.077988
1056.529177	0.076313
1056.694939	0.076457
1056.860683	0.074179
1057.026409	0.074389
1057.192116	0.073291
1057.357806	0.073024
1057.523477	0.070720
1057.689130	0.071537
1057.854764	0.071048
1058.020381	0.072255
1058.185979	0.072335
1058.351559	0.073096
1058.517120	0.072315
1058.682664	0.072153
1058.848189	0.073458
1059.013696	0.075759
1059.179185	0.075421
1059.344656	0.073684
1059.510108	0.073329
1059.675542	0.072056
1059.840958	0.071923
1060.006356	0.072736
1060.171735	0.073093
1060.337096	0.071786
1060.502439	0.071538
1060.667764	0.070647
1060.833071	0.072101
1060.998359	0.071827
1061.163629	0.074655
1061.328881	0.073998
1061.494115	0.074582
1061.659330	0.075500
1061.824527	0.076346
1061.989706	0.076884
1062.154867	0.076976
1062.320010	0.077715
1062.485134	0.079376
1062.650240	0.076968
1062.815328	0.078593
1062.980398	0.078127
1063.145449	0.077267
1063.310482	0.076073
1063.475497	0.073731
1063.640494	0.074136
1063.805473	0.073986
1063.970433	0.071856
1064.135375	0.072446
1064.300299	0.073245
1064.465204	0.072864
1064.630092	0.072594
1064.794961	0.072522
1064.959812	0.075096
1065.124645	0.073884
1065.289459	0.072083
1065.454256	0.072967
1065.619034	0.073264
1065.783793	0.071181
1065.948535	0.071082
1066.113258	0.071846
1066.277964	0.071773
1066.442651	0.071850
1066.607319	0.072363
1066.771970	0.072830
1066.936602	0.072172
1067.101216	0.073219
1067.265812	0.073333
1067.430389	0.074287
1067.594949	0.073258
1067.759490	0.072341
1067.924013	0.070786
1068.088518	0.070431
1068.253004	0.071012
1068.417472	0.071037
1068.581922	0.069208
1068.746354	0.071068
1068.910768	0.070710
1069.075163	0.072561
1069.239540	0.072436
1069.403899	0.074029
1069.568240	0.075188
1069.732562	0.075434
1069.896866	0.077033
1070.061152	0.078528
1070.225420	0.076549
1070.389670	0.074855
1070.553901	0.074252
1070.718114	0.076903
1070.882309	0.075606
1071.046486	0.077045
1071.210644	0.075444
1071.374784	0.073885
1071.538906	0.072772
1071.703010	0.072021
1071.867096	0.072941
1072.031163	0.073508
1072.195212	0.071418
1072.359243	0.069881
1072.523256	0.070491
1072.687250	0.071135
1072.851226	0.073719
1073.015184	0.073052
1073.179124	0.075184
1073.343045	0.075577
1073.506949	0.076150
1073.670834	0.076426
1073.834701	0.076596
1073.998549	0.076335
1074.162380	0.078488
1074.326192	0.075124
1074.489986	0.076778
1074.653761	0.075973
1074.817519	0.076719
1074.981258	0.075067
1075.144979	0.076988
1075.308682	0.076134
1075.472367	0.073845
1075.636033	0.071696
1075.799681	0.070558
1075.963311	0.070122
1076.126923	0.068918
1076.290516	0.066668
1076.454092	0.067136
1076.617649	0.065808
1076.781187	0.066892
1076.944708	0.068958
1077.108210	0.070674
1077.271695	0.071116
1077.435160	0.072021
1077.598608	0.074327
1077.762038	0.076024
1077.925449	0.075340
1078.088842	0.077303
1078.252217	0.080218
1078.415573	0.078418
1078.578912	0.076860
1078.742232	0.079976
1078.905534	0.078659
1079.068817	0.076256
1079.232083	0.077373
1079.395330	0.078209
1079.558559	0.076100
1079.721770	0.075208
1079.884962	0.076172
1080.048136	0.078142
1080.211293	0.077727
1080.374430	0.077560
1080.537550	0.079435
1080.700651	0.077804
1080.863735	0.078691
1081.026800	0.080113
1081.189846	0.080885
1081.352875	0.079551
1081.515885	0.080516
1081.678877	0.080702
1081.841851	0.080098
1082.004807	0.077450
1082.167744	0.079745
1082.330663	0.077863
1082.493564	0.074172
1082.656447	0.072795
1082.819312	0.072270
1082.982158	0.069808
1083.144986	0.068512
1083.307796	0.068801
1083.470587	0.070787
1083.633361	0.068106
1083.796116	0.068888
1083.958853	0.071534
1084.121571	0.071561
1084.284272	0.072178
1084.446954	0.073643
1084.609618	0.072045
1084.772264	0.074021
1084.934892	0.071729
1085.097501	0.073037
1085.260092	0.073033
1085.422665	0.072771
1085.585220	0.071523
1085.747756	0.072087
1085.910274	0.070277
1086.072774	0.071710
1086.235256	0.069984
1086.397720	0.070136
1086.560165	0.069825
1086.722592	0.070631
1086.885001	0.071655
1087.047392	0.074313
1087.209764	0.077072
1087.372119	0.075932
1087.534455	0.078360
1087.696772	0.080153
1087.859072	0.081337
1088.021353	0.081028
1088.183616	0.079938
1088.345861	0.080212
1088.508088	0.079976
1088.670296	0.075975
1088.832486	0.077723
1088.994658	0.075908
1089.156812	0.078143
1089.318948	0.079019
1089.481065	0.079221
1089.643164	0.077930
1089.805245	0.074980
1089.967308	0.073956
1090.129352	0.076051
1090.291378	0.074980
1090.453386	0.074383
1090.615376	0.069886
1090.777347	0.071329
1090.939301	0.072679
1091.101236	0.071378
1091.263153	0.074322
1091.425051	0.073349
1091.586932	0.070398
1091.748794	0.069060
1091.910638	0.066650
1092.072463	0.069344
1092.234271	0.069462
1092.396060	0.069505
1092.557831	0.071193
1092.719584	0.071819
1092.881319	0.072561
1093.043035	0.071429
1093.204733	0.072226
1093.366413	0.076989
1093.528075	0.077156
1093.689718	0.073099
1093.851343	0.069634
1094.012950	0.068423
1094.174539	0.067367
1094.336110	0.067073
1094.497662	0.069801
1094.659196	0.070619
1094.820712	0.068490
1094.982210	0.065775
1095.143689	0.068888
1095.305151	0.073705
1095.466594	0.075257
1095.628018	0.075172
1095.789425	0.074952
1095.950813	0.073667
1096.112183	0.074491
1096.273535	0.075416
1096.434869	0.075397
1096.596184	0.070481
1096.757482	0.068424
1096.918761	0.069012
1097.080021	0.071118
1097.241264	0.071798
1097.402488	0.070468
1097.563694	0.068970
1097.724882	0.066277
1097.886052	0.068726
1098.047203	0.072895
1098.208336	0.071688
1098.369451	0.070147
1098.530548	0.063976
1098.691627	0.062720
1098.852687	0.063784
1099.013729	0.065810
1099.174753	0.066602
1099.335758	0.065267
1099.496746	0.063028
1099.657715	0.061750
1099.818666	0.062803
1099.979599	0.066907
1100.140513	0.067347
1100.301409	0.070466
1100.462287	0.068240
1100.623147	0.066979
1100.783989	0.065881
1100.944812	0.065621
1101.105617	0.063241
1101.266404	0.065086
1101.427173	0.064552
1101.587923	0.065600
1101.748656	0.062023
1101.909370	0.061323
1102.070066	0.064058
1102.230743	0.065330
1102.391403	0.066457
1102.552044	0.068978
1102.712667	0.067960
1102.873271	0.066057
1103.033858	0.067363
1103.194426	0.067666
1103.354976	0.067993
1103.515508	0.067312
1103.676021	0.064953
1103.836517	0.066141
1103.996994	0.067017
1104.157453	0.069001
1104.317893	0.075276
1104.478316	0.074499
1104.638720	0.074691
1104.799106	0.076839
1104.959474	0.077025
1105.119823	0.076053
1105.280155	0.074453
1105.440468	0.074457
1105.600763	0.072120
1105.761039	0.068549
1105.921298	0.066961
1106.081538	0.068335
1106.241760	0.069458
1106.401964	0.068249
1106.562149	0.072593
1106.722316	0.072982
1106.882465	0.074039
1107.042596	0.072365
1107.202709	0.068720
1107.362803	0.067350
1107.522879	0.067511
1107.682937	0.067973
1107.842977	0.068533
1108.002999	0.067393
1108.163002	0.066309
1108.322987	0.065455
1108.482954	0.064281
1108.642902	0.066959
1108.802833	0.067440
1108.962745	0.066380
1109.122639	0.060693
1109.282515	0.062054
1109.442372	0.060317
1109.602211	0.060107
1109.762032	0.059621
1109.921835	0.063727
1110.081620	0.063738
1110.241386	0.064392
1110.401134	0.065124
1110.560864	0.067357
1110.720576	0.064817
1110.880269	0.067651
1111.039945	0.067747
1111.199602	0.068044
1111.359240	0.065997
1111.518861	0.066139
1111.678463	0.066368
1111.838047	0.065024
1111.997613	0.067428
1112.157161	0.067941
1112.316690	0.063418
1112.476202	0.068810
1112.635695	0.073536
1112.795169	0.074991
1112.954626	0.071381
1113.114064	0.069642
1113.273484	0.074248
1113.432886	0.073857
1113.592270	0.070739
1113.751635	0.072821
1113.910983	0.068289
1114.070312	0.060062
1114.229622	0.058143
1114.388915	0.059498
1114.548189	0.059405
1114.707445	0.059668
1114.866683	0.058850
1115.025903	0.058058
1115.185104	0.058638
1115.344287	0.060371
1115.503452	0.063414
1115.662599	0.062970
1115.821727	0.064555
1115.980838	0.069536
1116.139930	0.062780
1116.299004	0.060521
1116.458059	0.065041
1116.617097	0.063853
1116.776116	0.061249
1116.935117	0.057559
1117.094099	0.060404
1117.253064	0.057555
1117.412010	0.056246
1117.570938	0.059317
1117.729848	0.063887
1117.888740	0.064217
1118.047613	0.063358
1118.206468	0.065991
1118.365305	0.071399
1118.524124	0.070149
1118.682924	0.073441
1118.841707	0.073148
1119.000471	0.071307
1119.159216	0.069248
1119.317944	0.072375
1119.476653	0.075347
1119.635344	0.075864
1119.794017	0.073017
1119.952672	0.073449
1120.111308	0.073604
1120.269927	0.070944
1120.428527	0.073035
1120.587108	0.067317
1120.745672	0.064415
1120.904217	0.064594
1121.062744	0.064580
1121.221253	0.067842
1121.379744	0.066674
1121.538216	0.069618
1121.696671	0.067870
1121.855107	0.068506
1122.013524	0.072258
1122.171924	0.073943
1122.330305	0.073237
1122.488668	0.071482
1122.647013	0.070642
1122.805340	0.072791
1122.963648	0.067108
1123.121938	0.070384
1123.280210	0.070360
1123.438464	0.071351
1123.596700	0.069909
1123.754917	0.070061
1123.913116	0.067235
1124.071297	0.068787
1124.229459	0.069431
1124.387604	0.070477
1124.545730	0.073642
1124.703838	0.070109
1124.861928	0.067288
1125.019999	0.070192
1125.178052	0.068629
1125.336088	0.072582
1125.494104	0.068715
1125.652103	0.067972
1125.810083	0.067763
1125.968045	0.064093
1126.125989	0.068561
1126.283915	0.072481
1126.441823	0.071074
1126.599712	0.070841
1126.757583	0.067898
1126.915436	0.073186
1127.073270	0.073665
1127.231087	0.077749
1127.388885	0.075400
1127.546665	0.071818
1127.704426	0.071748
1127.862170	0.064775
1128.019895	0.064662
1128.177602	0.068014
1128.335291	0.063091
1128.492961	0.058361
1128.650614	0.055808
1128.808248	0.056578
1128.965864	0.061180
1129.123461	0.064824
1129.281041	0.070251
1129.438602	0.071905
1129.596145	0.069464
1129.753670	0.070382
1129.911176	0.075419
1130.068665	0.071759
1130.226135	0.074103
1130.383587	0.073253
1130.541020	0.069261
1130.698436	0.068671
1130.855833	0.070608
1131.013212	0.073129
1131.170573	0.069615
1131.327915	0.065280
1131.485239	0.064804
1131.642545	0.063692
1131.799833	0.058429
1131.957103	0.058007
1132.114354	0.058983
1132.271588	0.053453
1132.428803	0.048801
1132.585999	0.051585
1132.743178	0.051478
1132.900338	0.052857
1133.057480	0.047403
1133.214604	0.044976
1133.371710	0.045480
1133.528797	0.039084
1133.685866	0.041251
1133.842917	0.043488
1133.999950	0.045736
1134.156964	0.047072
1134.313960	0.050689
1134.470938	0.054588
1134.627898	0.055585
1134.784840	0.054819
1134.941763	0.060941
1135.098668	0.066769
1135.255555	0.063089
1135.412424	0.058857
1135.569274	0.064853
1135.726107	0.062416
1135.882921	0.061841
1136.039716	0.066097
1136.196494	0.061025
1136.353253	0.059181
1136.509995	0.053853
1136.666717	0.055016
1136.823422	0.056361
1136.980109	0.051086
1137.136777	0.053366
1137.293427	0.055145
1137.450059	0.051814
1137.606672	0.059899
1137.763267	0.060498
1137.919844	0.063203
1138.076403	0.069231
1138.232944	0.071412
1138.389466	0.069002
1138.545971	0.070031
1138.702457	0.069787
1138.858924	0.068877
1139.015374	0.069917
1139.171805	0.068007
1139.328218	0.066113
1139.484613	0.064724
1139.640990	0.062236
1139.797348	0.056325
1139.953688	0.052314
1140.110010	0.054214
1140.266314	0.055885
1140.422600	0.055629
1140.578867	0.054140
1140.735116	0.054510
1140.891347	0.056892
1141.047559	0.061876
1141.203754	0.066756
1141.359930	0.068334
1141.516088	0.062944
1141.672228	0.067121
1141.828349	0.063742
1141.984452	0.067459
1142.140537	0.064461
1142.296604	0.060049
1142.452653	0.054106
1142.608683	0.055797
1142.764695	0.058506
1142.920689	0.063415
1143.076665	0.065648
1143.232622	0.063534
1143.388562	0.066964
1143.544483	0.068330
1143.700385	0.070402
1143.856270	0.071368
1144.012136	0.074528
1144.167985	0.072889
1144.323814	0.073494
1144.479626	0.073168
1144.635420	0.070288
1144.791195	0.066189
1144.946952	0.068403
1145.102691	0.070066
1145.258411	0.074701
1145.414113	0.070126
1145.569798	0.065976
1145.725463	0.070265
1145.881111	0.070037
1146.036741	0.072604
1146.192352	0.077912
1146.347945	0.069834
1146.503519	0.065559
1146.659076	0.062659
1146.814614	0.066046
1146.970134	0.063042
1147.125636	0.058131
1147.281120	0.052953
1147.436585	0.056873
1147.592032	0.051235
1147.747461	0.053227
1147.902872	0.050538
1148.058265	0.050491
1148.213639	0.051861
1148.368995	0.058178
1148.524333	0.055231
1148.679653	0.054087
1148.834954	0.051331
1148.990237	0.048831
1149.145502	0.053529
1149.300749	0.052396
1149.455977	0.054030
1149.611188	0.054595
1149.766380	0.051245
1149.921553	0.047508
1150.076709	0.050143
1150.231846	0.051499
1150.386966	0.061660
1150.542066	0.059351
1150.697149	0.064272
1150.852214	0.060538
1151.007260	0.059408
1151.162288	0.061935
1151.317298	0.063907
1151.472289	0.061584
1151.627263	0.060787
1151.782218	0.055689
1151.937155	0.057235
1152.092073	0.056713
1152.246974	0.059027
1152.401856	0.058252
1152.556720	0.054459
1152.711566	0.053893
1152.866393	0.055276
1153.021203	0.059435
1153.175994	0.053783
1153.330767	0.054040
1153.485521	0.054648
1153.640258	0.053237
1153.794976	0.054477
1153.949676	0.052336
1154.104358	0.057702
1154.259021	0.058596
1154.413667	0.055539
1154.568294	0.060703
1154.722903	0.056473
1154.877493	0.058969
1155.032066	0.054377
1155.186620	0.046388
1155.341156	0.049847
1155.495674	0.048303
1155.650173	0.049116
1155.804654	0.047309
1155.959118	0.045271
1156.113562	0.050179
1156.267989	0.050846
1156.422397	0.054405
1156.576788	0.061114
1156.731160	0.059462
1156.885513	0.059146
1157.039849	0.054746
1157.194166	0.056627
1157.348465	0.052666
1157.502746	0.057078
1157.657009	0.053158
1157.811253	0.055290
1157.965479	0.054290
1158.119687	0.062537
1158.273877	0.063012
1158.428048	0.065361
1158.582201	0.050420
1158.736337	0.050294
1158.890453	0.037453
1159.044552	0.034178
1159.198632	0.027707
1159.352694	0.023521
1159.506738	0.018144
1159.660764	0.018900
1159.814771	0.012127
1159.968761	0.024431
1160.122732	0.023671
1160.276685	0.030020
1160.430619	0.031895
1160.584535	0.034449
1160.738434	0.037394
1160.892313	0.036050
1161.046175	0.036662
1161.200019	0.038977
1161.353844	0.039828
1161.507651	0.044699
1161.661440	0.040360
1161.815210	0.040305
1161.968962	0.042845
1162.122697	0.039673
1162.276412	0.038773
1162.430110	0.028763
1162.583789	0.037638
1162.737451	0.035947
1162.891094	0.046231
1163.044718	0.054235
1163.198325	0.050059
1163.351913	0.046909
1163.505483	0.047812
1163.659035	0.050594
1163.812569	0.058235
1163.966084	0.048861
1164.119581	0.045947
1164.273060	0.040122
1164.426521	0.038601
1164.579964	0.047107
1164.733388	0.047266
1164.886794	0.044221
1165.040182	0.041077
1165.193551	0.045694
1165.346903	0.047495
1165.500236	0.052551
1165.653551	0.048057
1165.806848	0.044567
1165.960126	0.043522
1166.113386	0.047262
1166.266628	0.059259
1166.419852	0.064188
1166.573058	0.062198
1166.726245	0.067699
1166.879414	0.061495
1167.032565	0.055670
1167.185698	0.055282
1167.338812	0.058222
1167.491909	0.054944
1167.644987	0.046195
1167.798046	0.036982
1167.951088	0.031537
1168.104111	0.024649
1168.257117	0.028040
1168.410103	0.033962
1168.563072	0.033120
1168.716023	0.023541
1168.868955	0.027557
1169.021869	0.020977
1169.174765	0.032424
1169.327642	0.030659
1169.480501	0.039764
1169.633343	0.044936
1169.786165	0.043048
1169.938970	0.048937
1170.091757	0.053602
1170.244525	0.048758
1170.397275	0.055226
1170.550007	0.047055
1170.702720	0.045366
1170.855415	0.037608
1171.008092	0.029571
1171.160751	0.027485
1171.313392	0.020927
1171.466014	0.016438
1171.618619	0.025198
1171.771205	0.025198
1171.923772	0.025198
