sample name	sample
index	1515
start time	 05-18-2021  03:13:20 PM


Wavelength (nm)	Absorbance
494.344910	NaN
494.563924	NaN
494.782919	NaN
495.001897	-0.498806
495.220856	0.023515
495.439797	-0.096923
495.658719	-0.164630
495.877624	-0.192188
496.096510	-0.111285
496.315378	-0.123976
496.534227	-0.122217
496.753059	-0.150221
496.971872	-0.129829
497.190667	0.134748
497.409444	0.177460
497.628203	0.183424
497.846943	0.183123
498.065665	0.184955
498.284369	0.185732
498.503055	0.186100
498.721723	0.185394
498.940372	0.185238
499.159003	0.185780
499.377616	0.184418
499.596210	0.184129
499.814787	0.184366
500.033345	0.184654
500.251885	0.185692
500.470406	0.184640
500.688910	0.185667
500.907395	0.187224
501.125862	0.187838
501.344311	0.188449
501.562742	0.188371
501.781154	0.189475
501.999548	0.189093
502.217924	0.188330
502.436282	0.189429
502.654621	0.188855
502.872942	0.187001
503.091245	0.187007
503.309530	0.186717
503.527797	0.186763
503.746045	0.186607
503.964275	0.186067
504.182487	0.186291
504.400681	0.185115
504.618856	0.185436
504.837013	0.185770
505.055152	0.185395
505.273273	0.185734
505.491376	0.186162
505.709460	0.184841
505.927526	0.184927
506.145574	0.184551
506.363604	0.186560
506.581615	0.187733
506.799608	0.188307
507.017583	0.188375
507.235540	0.187878
507.453478	0.186808
507.671399	0.187613
507.889301	0.188598
508.107185	0.189176
508.325050	0.189017
508.542898	0.188696
508.760727	0.188584
508.978538	0.189564
509.196330	0.190312
509.414105	0.190224
509.631861	0.190235
509.849599	0.189617
510.067319	0.189392
510.285021	0.189641
510.502704	0.190496
510.720369	0.190205
510.938016	0.189645
511.155645	0.189228
511.373255	0.190346
511.590848	0.190111
511.808422	0.191273
512.025977	0.191518
512.243515	0.190010
512.461034	0.189510
512.678536	0.190111
512.896018	0.190437
513.113483	0.191188
513.330930	0.190501
513.548358	0.191540
513.765768	0.191371
513.983160	0.192416
514.200533	0.193322
514.417889	0.193520
514.635226	0.193973
514.852545	0.194438
515.069845	0.193413
515.287128	0.194725
515.504392	0.194486
515.721638	0.194790
515.938866	0.194271
516.156075	0.193815
516.373267	0.194345
516.590440	0.195410
516.807594	0.195151
517.024731	0.196179
517.241850	0.195938
517.458950	0.196642
517.676032	0.196046
517.893095	0.195409
518.110141	0.197361
518.327168	0.196566
518.544177	0.195629
518.761168	0.195444
518.978141	0.195048
519.195095	0.195178
519.412031	0.194707
519.628949	0.195757
519.845849	0.197237
520.062731	0.196350
520.279594	0.196884
520.496439	0.196656
520.713266	0.196839
520.930074	0.196663
521.146865	0.196722
521.363637	0.197354
521.580391	0.196741
521.797127	0.196393
522.013844	0.196664
522.230543	0.196537
522.447224	0.196851
522.663887	0.196904
522.880532	0.197862
523.097158	0.198280
523.313766	0.198269
523.530356	0.198477
523.746928	0.197697
523.963481	0.197445
524.180017	0.197952
524.396534	0.198322
524.613032	0.198914
524.829513	0.198738
525.045975	0.199009
525.262420	0.198954
525.478845	0.199283
525.695253	0.200905
525.911643	0.202344
526.128014	0.202459
526.344367	0.202392
526.560702	0.202903
526.777018	0.203385
526.993316	0.203586
527.209597	0.204108
527.425858	0.204290
527.642102	0.203814
527.858328	0.202561
528.074535	0.202785
528.290724	0.203303
528.506894	0.203260
528.723047	0.203002
528.939181	0.203347
529.155297	0.202972
529.371395	0.202917
529.587475	0.202492
529.803536	0.203360
530.019579	0.203757
530.235604	0.203941
530.451611	0.203891
530.667600	0.204201
530.883570	0.203751
531.099522	0.204607
531.315456	0.204916
531.531372	0.206149
531.747269	0.206248
531.963148	0.206475
532.179009	0.206343
532.394852	0.206793
532.610676	0.207671
532.826482	0.208562
533.042271	0.208337
533.258040	0.208219
533.473792	0.208130
533.689525	0.208184
533.905240	0.208321
534.120937	0.209347
534.336616	0.209230
534.552277	0.208831
534.767919	0.208261
534.983543	0.208620
535.199149	0.209512
535.414736	0.209681
535.630306	0.209941
535.845857	0.210008
536.061390	0.209756
536.276904	0.209920
536.492401	0.209822
536.707879	0.210790
536.923339	0.210652
537.138781	0.211214
537.354204	0.211289
537.569610	0.211865
537.784997	0.212090
538.000366	0.212152
538.215716	0.212426
538.431049	0.213069
538.646363	0.213053
538.861659	0.213551
539.076937	0.213355
539.292196	0.213421
539.507438	0.213146
539.722661	0.212952
539.937866	0.213409
540.153052	0.213669
540.368221	0.214036
540.583371	0.213686
540.798503	0.213569
541.013617	0.214081
541.228712	0.214758
541.443789	0.214946
541.658848	0.215695
541.873889	0.215916
542.088912	0.216465
542.303916	0.216471
542.518902	0.216747
542.733870	0.217197
542.948820	0.216483
543.163752	0.216443
543.378665	0.216184
543.593560	0.216062
543.808437	0.215721
544.023295	0.215957
544.238136	0.215785
544.452958	0.216506
544.667762	0.216989
544.882548	0.217604
545.097315	0.217621
545.312064	0.218377
545.526795	0.218279
545.741508	0.219172
545.956203	0.219219
546.170879	0.219577
546.385537	0.219504
546.600177	0.219360
546.814799	0.219796
547.029402	0.220136
547.243988	0.220185
547.458555	0.220324
547.673103	0.220111
547.887634	0.220362
548.102146	0.220660
548.316640	0.220989
548.531116	0.221208
548.745574	0.221217
548.960013	0.221134
549.174435	0.221296
549.388838	0.221544
549.603222	0.221383
549.817589	0.221541
550.031937	0.221852
550.246267	0.221658
550.460579	0.221815
550.674873	0.221507
550.889148	0.221530
551.103405	0.221637
551.317644	0.222241
551.531865	0.222150
551.746068	0.221890
551.960252	0.221962
552.174418	0.222276
552.388566	0.222648
552.602696	0.222985
552.816807	0.222900
553.030900	0.223171
553.244975	0.223072
553.459032	0.223531
553.673070	0.223647
553.887091	0.223707
554.101093	0.223737
554.315077	0.224238
554.529042	0.224822
554.742990	0.225225
554.956919	0.225463
555.170830	0.225683
555.384722	0.225688
555.598597	0.225881
555.812453	0.226132
556.026291	0.225988
556.240111	0.225811
556.453913	0.225688
556.667696	0.225771
556.881461	0.225800
557.095208	0.225424
557.308937	0.225862
557.522647	0.226384
557.736339	0.226474
557.950013	0.226897
558.163669	0.226610
558.377307	0.226472
558.590926	0.226825
558.804527	0.226805
559.018110	0.227684
559.231675	0.227375
559.445221	0.227429
559.658749	0.227712
559.872259	0.228380
560.085751	0.228463
560.299225	0.228623
560.512680	0.228863
560.726117	0.229004
560.939536	0.228934
561.152937	0.229493
561.366319	0.229353
561.579683	0.229165
561.793029	0.228945
562.006357	0.229074
562.219667	0.229143
562.432958	0.228966
562.646231	0.229131
562.859486	0.229365
563.072723	0.229217
563.285941	0.229385
563.499141	0.229090
563.712323	0.229022
563.925487	0.229173
564.138632	0.229111
564.351760	0.229129
564.564869	0.229186
564.777960	0.229039
564.991032	0.229397
565.204087	0.229614
565.417123	0.230124
565.630141	0.230257
565.843140	0.230324
566.056122	0.230931
566.269085	0.230871
566.482030	0.231386
566.694957	0.231215
566.907866	0.231194
567.120756	0.231360
567.333628	0.231491
567.546482	0.231598
567.759318	0.231832
567.972135	0.231756
568.184935	0.232280
568.397716	0.231645
568.610478	0.231793
568.823223	0.231881
569.035949	0.231674
569.248657	0.231594
569.461347	0.231381
569.674019	0.231085
569.886672	0.230929
570.099308	0.230757
570.311925	0.231600
570.524523	0.232107
570.737104	0.232252
570.949666	0.232382
571.162210	0.232715
571.374736	0.233196
571.587244	0.233853
571.799733	0.233978
572.012205	0.234415
572.224658	0.234622
572.437092	0.234307
572.649509	0.234342
572.861907	0.234557
573.074287	0.234480
573.286649	0.234640
573.498993	0.234359
573.711318	0.234924
573.923625	0.235359
574.135914	0.234928
574.348185	0.235149
574.560438	0.235492
574.772672	0.235438
574.984888	0.235939
575.197086	0.236095
575.409266	0.236558
575.621427	0.236105
575.833570	0.235573
576.045695	0.235859
576.257802	0.236200
576.469890	0.236356
576.681961	0.236698
576.894013	0.236431
577.106046	0.236117
577.318062	0.236664
577.530059	0.237549
577.742039	0.237901
577.954000	0.237869
578.165942	0.238035
578.377867	0.238147
578.589773	0.238117
578.801661	0.238478
579.013531	0.239208
579.225382	0.238773
579.437216	0.238596
579.649031	0.238556
579.860828	0.239213
580.072606	0.239294
580.284367	0.239078
580.496109	0.239230
580.707833	0.239334
580.919539	0.239670
581.131227	0.240016
581.342896	0.240057
581.554547	0.240456
581.766180	0.240202
581.977795	0.240073
582.189391	0.240480
582.400969	0.240428
582.612529	0.240564
582.824071	0.240335
583.035595	0.240219
583.247100	0.240311
583.458587	0.240429
583.670056	0.240635
583.881506	0.240508
584.092939	0.240382
584.304353	0.240296
584.515749	0.240015
584.727127	0.239649
584.938486	0.239523
585.149828	0.239222
585.361151	0.239246
585.572456	0.239329
585.783742	0.239547
585.995011	0.239695
586.206261	0.240136
586.417493	0.240354
586.628706	0.240385
586.839902	0.240608
587.051079	0.241260
587.262238	0.241441
587.473379	0.241357
587.684502	0.241515
587.895606	0.241338
588.106692	0.241438
588.317760	0.241438
588.528810	0.241902
588.739841	0.241664
588.950855	0.241812
589.161850	0.241742
589.372827	0.242066
589.583785	0.241895
589.794726	0.242411
590.005648	0.242657
590.216552	0.242756
590.427437	0.242466
590.638305	0.242785
590.849154	0.242530
591.059985	0.242658
591.270798	0.242544
591.481592	0.243202
591.692369	0.242871
591.903127	0.242779
592.113867	0.243121
592.324588	0.243667
592.535292	0.244013
592.745977	0.243978
592.956644	0.244291
593.167293	0.244345
593.377923	0.244334
593.588536	0.244505
593.799130	0.244525
594.009706	0.244525
594.220263	0.244304
594.430803	0.244378
594.641324	0.244796
594.851827	0.244645
595.062312	0.245087
595.272778	0.245287
595.483227	0.245857
595.693657	0.246159
595.904069	0.246278
596.114462	0.246424
596.324838	0.246760
596.535195	0.247031
596.745534	0.247324
596.955855	0.247702
597.166157	0.248086
597.376441	0.248232
597.586707	0.248376
597.796955	0.248577
598.007185	0.249121
598.217396	0.249054
598.427589	0.249287
598.637764	0.249430
598.847921	0.249090
599.058060	0.249019
599.268180	0.249024
599.478282	0.248886
599.688366	0.248745
599.898431	0.248506
600.108479	0.248227
600.318508	0.247776
600.528519	0.247283
600.738511	0.247149
600.948486	0.246889
601.158442	0.246894
601.368380	0.247140
601.578300	0.247377
601.788202	0.247557
601.998085	0.247734
602.207950	0.248011
602.417797	0.248667
602.627626	0.249145
602.837436	0.249450
603.047228	0.249148
603.257002	0.249175
603.466758	0.249413
603.676496	0.249523
603.886215	0.249507
604.095916	0.249973
604.305599	0.249913
604.515264	0.249789
604.724910	0.250137
604.934538	0.250561
605.144148	0.250515
605.353740	0.250554
605.563314	0.250700
605.772869	0.250783
605.982406	0.250472
606.191925	0.250509
606.401425	0.250543
606.610908	0.250297
606.820372	0.250314
607.029818	0.250782
607.239246	0.251075
607.448655	0.251215
607.658047	0.251591
607.867420	0.251603
608.076775	0.251926
608.286111	0.251749
608.495430	0.251785
608.704730	0.251470
608.914012	0.250986
609.123275	0.250815
609.332521	0.250793
609.541748	0.250756
609.750957	0.250950
609.960148	0.251058
610.169321	0.251552
610.378475	0.251676
610.587611	0.252331
610.796729	0.252767
611.005829	0.252839
611.214910	0.252798
611.423974	0.252857
611.633019	0.253111
611.842045	0.253203
612.051054	0.253462
612.260044	0.253645
612.469017	0.253720
612.677970	0.253775
612.886906	0.254282
613.095824	0.254442
613.304723	0.254883
613.513604	0.254971
613.722467	0.255055
613.931311	0.255038
614.140138	0.255059
614.348946	0.255078
614.557736	0.255558
614.766507	0.255236
614.975261	0.255394
615.183996	0.255451
615.392713	0.255526
615.601412	0.255414
615.810092	0.255368
616.018754	0.255452
616.227399	0.254995
616.436024	0.254632
616.644632	0.254639
616.853222	0.254893
617.061793	0.254863
617.270346	0.254760
617.478880	0.254790
617.687397	0.254915
617.895895	0.255171
618.104375	0.255985
618.312837	0.256470
618.521281	0.256641
618.729706	0.256444
618.938113	0.256505
619.146502	0.256717
619.354873	0.257160
619.563226	0.257075
619.771560	0.257166
619.979876	0.257028
620.188174	0.256858
620.396453	0.256970
620.604715	0.257076
620.812958	0.257172
621.021183	0.257208
621.229390	0.257105
621.437578	0.257201
621.645748	0.257208
621.853900	0.257148
622.062034	0.257079
622.270150	0.257260
622.478247	0.257448
622.686326	0.257408
622.894387	0.257603
623.102430	0.257813
623.310454	0.258132
623.518461	0.258460
623.726449	0.258800
623.934418	0.259271
624.142370	0.259224
624.350303	0.259478
624.558218	0.259715
624.766115	0.259608
624.973994	0.259547
625.181855	0.259689
625.389697	0.259565
625.597521	0.259694
625.805327	0.259531
626.013114	0.259817
626.220883	0.259985
626.428634	0.260086
626.636367	0.260321
626.844082	0.260389
627.051778	0.260247
627.259457	0.260110
627.467117	0.259995
627.674758	0.259728
627.882382	0.259621
628.089987	0.259249
628.297574	0.259072
628.505143	0.259077
628.712694	0.259624
628.920226	0.259895
629.127740	0.260195
629.335236	0.260306
629.542714	0.260897
629.750174	0.261120
629.957615	0.261528
630.165038	0.261676
630.372443	0.261697
630.579829	0.261329
630.787198	0.261441
630.994548	0.261586
631.201880	0.261850
631.409194	0.261674
631.616489	0.261820
631.823766	0.261726
632.031025	0.262031
632.238266	0.262226
632.445489	0.262380
632.652693	0.262333
632.859879	0.262441
633.067047	0.262416
633.274197	0.262805
633.481329	0.262968
633.688442	0.263121
633.895537	0.263053
634.102614	0.263186
634.309672	0.263079
634.516713	0.263309
634.723735	0.263248
634.930739	0.263536
635.137724	0.263499
635.344692	0.263674
635.551641	0.263917
635.758572	0.263955
635.965485	0.264225
636.172379	0.264521
636.379256	0.264510
636.586114	0.264707
636.792954	0.264832
636.999775	0.265105
637.206579	0.265023
637.413364	0.265059
637.620131	0.265425
637.826880	0.265233
638.033610	0.265362
638.240323	0.265637
638.447017	0.265700
638.653692	0.265533
638.860350	0.265329
639.066990	0.265458
639.273611	0.265620
639.480214	0.265468
639.686798	0.265417
639.893365	0.265426
640.099913	0.265286
640.306443	0.265414
640.512955	0.265894
640.719449	0.266141
640.925924	0.266231
641.132381	0.266234
641.338820	0.266394
641.545241	0.266731
641.751644	0.266939
641.958028	0.266951
642.164394	0.267065
642.370742	0.266953
642.577071	0.266938
642.783383	0.266856
642.989676	0.266864
643.195951	0.266993
643.402207	0.267244
643.608446	0.267014
643.814666	0.267250
644.020868	0.267436
644.227052	0.267616
644.433218	0.267954
644.639365	0.268174
644.845494	0.268297
645.051605	0.268439
645.257698	0.268562
645.463772	0.268850
645.669828	0.269125
645.875866	0.269177
646.081886	0.269333
646.287888	0.269481
646.493871	0.269617
646.699836	0.269777
646.905783	0.269853
647.111712	0.270049
647.317622	0.270616
647.523514	0.270375
647.729388	0.270327
647.935244	0.270066
648.141082	0.269973
648.346901	0.270073
648.552702	0.270108
648.758485	0.270262
648.964250	0.269967
649.169996	0.269601
649.375724	0.269749
649.581434	0.269953
649.787126	0.270284
649.992800	0.270435
650.198455	0.270457
650.404092	0.270483
650.609711	0.270376
650.815311	0.270563
651.020894	0.270629
651.226458	0.270849
651.432004	0.270711
651.637532	0.270754
651.843041	0.270567
652.048532	0.270823
652.254006	0.270906
652.459460	0.271111
652.664897	0.271183
652.870315	0.271285
653.075716	0.271285
653.281097	0.271342
653.486461	0.271363
653.691807	0.271690
653.897134	0.271727
654.102443	0.271948
654.307734	0.272155
654.513006	0.272634
654.718261	0.272917
654.923497	0.273221
655.128715	0.273639
655.333915	0.273885
655.539096	0.273985
655.744259	0.274098
655.949404	0.274375
656.154531	0.274260
656.359640	0.274283
656.564730	0.274500
656.769802	0.274751
656.974856	0.274817
657.179892	0.275190
657.384909	0.275402
657.589908	0.275464
657.794889	0.275751
657.999852	0.276261
658.204797	0.276134
658.409723	0.276217
658.614631	0.276246
658.819521	0.276341
659.024393	0.276210
659.229246	0.276233
659.434081	0.276275
659.638898	0.276306
659.843697	0.276389
660.048478	0.276772
660.253240	0.276893
660.457984	0.276985
660.662710	0.277176
660.867417	0.277352
661.072107	0.277627
661.276778	0.278016
661.481431	0.278061
661.686066	0.278074
661.890682	0.278266
662.095281	0.278401
662.299861	0.278523
662.504422	0.278607
662.708966	0.278899
662.913491	0.278787
663.117999	0.278722
663.322488	0.278574
663.526958	0.278802
663.731411	0.278791
663.935845	0.278796
664.140261	0.278975
664.344659	0.279130
664.549038	0.279146
664.753400	0.279598
664.957743	0.279839
665.162068	0.280182
665.366375	0.280025
665.570663	0.279961
665.774933	0.280008
665.979185	0.280103
666.183419	0.280373
666.387635	0.280313
666.591832	0.280273
666.796011	0.280173
667.000172	0.280182
667.204315	0.280584
667.408439	0.280686
667.612545	0.280844
667.816634	0.280793
668.020703	0.280927
668.224755	0.281133
668.428788	0.281275
668.632803	0.281606
668.836800	0.281934
669.040779	0.282103
669.244739	0.282327
669.448681	0.282588
669.652605	0.282761
669.856511	0.282742
670.060399	0.283014
670.264268	0.283125
670.468119	0.283216
670.671952	0.283279
670.875767	0.283378
671.079563	0.283659
671.283341	0.283967
671.487101	0.284418
671.690843	0.284505
671.894567	0.284202
672.098272	0.284455
672.301959	0.284438
672.505628	0.284634
672.709278	0.284919
672.912911	0.285181
673.116525	0.285083
673.320121	0.284963
673.523699	0.285311
673.727258	0.285856
673.930799	0.285821
674.134322	0.286161
674.337827	0.286320
674.541314	0.286056
674.744782	0.286091
674.948232	0.286322
675.151664	0.286452
675.355078	0.286289
675.558474	0.286193
675.761851	0.286219
675.965210	0.286455
676.168551	0.286460
676.371873	0.286729
676.575178	0.286608
676.778464	0.286596
676.981732	0.286829
677.184981	0.287124
677.388213	0.287195
677.591426	0.287731
677.794621	0.287820
677.997798	0.288208
678.200956	0.288558
678.404097	0.288875
678.607219	0.289134
678.810323	0.289234
679.013408	0.289329
679.216476	0.289389
679.419525	0.289140
679.622556	0.289402
679.825569	0.289321
680.028563	0.289272
680.231540	0.289480
680.434498	0.289332
680.637438	0.289107
680.840359	0.289060
681.043263	0.289470
681.246148	0.289810
681.449015	0.289649
681.651864	0.289618
681.854694	0.289673
682.057506	0.289593
682.260301	0.289953
682.463076	0.290409
682.665834	0.290663
682.868573	0.290831
683.071295	0.291114
683.273998	0.291377
683.476682	0.291684
683.679349	0.291780
683.881997	0.291793
684.084627	0.292064
684.287239	0.292320
684.489833	0.292576
684.692408	0.292466
684.894965	0.292523
685.097504	0.292667
685.300025	0.292773
685.502527	0.292936
685.705012	0.293202
685.907478	0.292969
686.109925	0.292734
686.312355	0.292748
686.514766	0.292955
686.717159	0.292759
686.919534	0.292674
687.121891	0.292549
687.324230	0.292684
687.526550	0.292639
687.728852	0.292870
687.931136	0.292935
688.133401	0.292897
688.335649	0.293012
688.537878	0.293166
688.740089	0.293091
688.942281	0.293172
689.144456	0.293159
689.346612	0.293155
689.548750	0.293153
689.750870	0.293532
689.952971	0.293649
690.155055	0.293685
690.357120	0.293674
690.559167	0.293999
690.761195	0.294186
690.963206	0.294349
691.165198	0.294683
691.367172	0.294788
691.569128	0.294583
691.771065	0.294850
691.972984	0.294798
692.174885	0.294927
692.376768	0.295110
692.578633	0.295315
692.780479	0.295270
692.982308	0.295140
693.184118	0.295196
693.385909	0.295319
693.587683	0.295211
693.789438	0.295428
693.991175	0.295597
694.192894	0.295838
694.394595	0.295839
694.596277	0.295798
694.797941	0.296118
694.999587	0.296149
695.201215	0.296170
695.402824	0.296483
695.604416	0.296575
695.805989	0.296796
696.007543	0.296543
696.209080	0.296555
696.410598	0.296904
696.612099	0.297220
696.813580	0.297340
697.015044	0.297578
697.216490	0.297472
697.417917	0.297307
697.619326	0.297115
697.820717	0.297144
698.022089	0.297181
698.223444	0.297298
698.424780	0.297025
698.626098	0.297284
698.827397	0.297322
699.028679	0.297466
699.229942	0.297626
699.431187	0.297828
699.632414	0.298013
699.833622	0.298050
700.034813	0.298035
700.235985	0.298092
700.437139	0.297984
700.638274	0.298239
700.839392	0.298443
701.040491	0.298722
701.241572	0.298921
701.442635	0.298896
701.643679	0.299072
701.844706	0.298963
702.045714	0.299004
702.246704	0.299338
702.447675	0.299346
702.648629	0.299288
702.849564	0.299254
703.050481	0.299507
703.251380	0.299784
703.452260	0.299997
703.653122	0.300422
703.853966	0.300821
704.054792	0.300545
704.255600	0.300549
704.456389	0.300624
704.657160	0.300885
704.857913	0.300662
705.058648	0.300360
705.259365	0.300123
705.460063	0.299968
705.660743	0.299615
705.861405	0.299828
706.062048	0.299940
706.262674	0.299864
706.463281	0.299706
706.663870	0.299502
706.864441	0.299625
707.064993	0.299576
707.265527	0.299552
707.466043	0.299563
707.666541	0.299651
707.867021	0.299678
708.067482	0.299650
708.267925	0.299596
708.468350	0.299956
708.668757	0.300025
708.869145	0.300340
709.069516	0.300568
709.269868	0.300585
709.470201	0.300364
709.670517	0.300520
709.870814	0.300761
710.071093	0.301060
710.271354	0.300995
710.471597	0.300803
710.671821	0.300740
710.872028	0.300474
711.072216	0.300666
711.272385	0.300696
711.472537	0.300522
711.672670	0.300277
711.872785	0.299986
712.072882	0.299942
712.272961	0.300052
712.473021	0.299905
712.673063	0.299995
712.873087	0.299886
713.073093	0.299818
713.273081	0.299641
713.473050	0.299666
713.673001	0.299871
713.872934	0.299905
714.072849	0.299826
714.272745	0.299794
714.472623	0.299569
714.672483	0.299491
714.872325	0.299574
715.072148	0.299875
715.271954	0.300035
715.471741	0.300056
715.671509	0.299987
715.871260	0.300397
716.070992	0.300691
716.270707	0.301140
716.470403	0.301265
716.670080	0.301484
716.869740	0.301458
717.069381	0.301341
717.269004	0.301184
717.468609	0.301089
717.668195	0.300781
717.867764	0.300733
718.067314	0.300471
718.266846	0.300526
718.466360	0.300248
718.665855	0.300054
718.865332	0.299843
719.064791	0.299610
719.264232	0.299549
719.463655	0.299598
719.663059	0.299348
719.862445	0.299242
720.061813	0.299165
720.261163	0.299013
720.460494	0.299105
720.659807	0.299172
720.859102	0.299214
721.058379	0.299199
721.257638	0.299124
721.456878	0.299233
721.656100	0.299267
721.855304	0.299328
722.054490	0.299526
722.253657	0.299383
722.452806	0.299400
722.651937	0.299568
722.851050	0.299509
723.050145	0.299655
723.249221	0.299466
723.448279	0.299059
723.647319	0.298810
723.846340	0.298773
724.045344	0.298665
724.244329	0.298628
724.443296	0.298469
724.642245	0.298284
724.841175	0.298079
725.040088	0.298118
725.238982	0.298406
725.437857	0.298210
725.636715	0.297938
725.835554	0.297900
726.034376	0.297513
726.233179	0.297262
726.431963	0.297514
726.630730	0.297360
726.829478	0.297017
727.028208	0.296677
727.226920	0.296631
727.425614	0.296552
727.624289	0.296321
727.822946	0.296331
728.021585	0.296371
728.220206	0.296006
728.418808	0.295631
728.617392	0.295739
728.815958	0.295957
729.014506	0.295952
729.213036	0.296005
729.411547	0.295728
729.610040	0.295924
729.808515	0.295728
730.006972	0.295611
730.205410	0.295582
730.403831	0.295458
730.602233	0.295536
730.800616	0.295569
730.998982	0.295336
731.197329	0.295746
731.395658	0.295622
731.593969	0.295582
731.792262	0.295622
731.990536	0.295787
732.188793	0.295758
732.387031	0.295506
732.585250	0.295221
732.783452	0.295128
732.981635	0.294673
733.179800	0.294479
733.377947	0.294411
733.576076	0.294194
733.774186	0.293997
733.972278	0.293956
734.170352	0.293741
734.368408	0.293843
734.566446	0.293854
734.764465	0.293794
734.962466	0.293633
735.160449	0.293191
735.358413	0.293417
735.556360	0.293165
735.754288	0.293210
735.952198	0.293112
736.150090	0.292786
736.347963	0.292691
736.545818	0.292627
736.743655	0.292352
736.941474	0.292404
737.139275	0.292049
737.337057	0.292001
737.534821	0.291572
737.732567	0.291394
737.930295	0.291399
738.128005	0.291085
738.325696	0.290734
738.523369	0.290687
738.721024	0.290528
738.918660	0.290259
739.116279	0.290255
739.313879	0.289955
739.511461	0.289729
739.709024	0.289489
739.906570	0.289585
740.104097	0.289695
740.301606	0.289664
740.499097	0.289722
740.696569	0.289870
740.894024	0.289903
741.091460	0.290015
741.288878	0.289816
741.486277	0.289706
741.683659	0.289285
741.881022	0.289282
742.078367	0.289291
742.275694	0.289414
742.473002	0.289052
742.670293	0.288540
742.867565	0.288499
743.064819	0.288689
743.262054	0.288458
743.459272	0.288402
743.656471	0.288314
743.853652	0.288072
744.050815	0.287813
744.247959	0.288035
744.445085	0.288008
744.642194	0.287737
744.839283	0.287506
745.036355	0.287458
745.233408	0.287463
745.430444	0.287174
745.627461	0.287115
745.824459	0.286861
746.021440	0.286695
746.218402	0.286701
746.415346	0.286803
746.612272	0.286648
746.809180	0.286668
747.006069	0.286777
747.202940	0.286680
747.399793	0.286580
747.596628	0.286504
747.793444	0.286089
747.990243	0.286093
748.187023	0.286073
748.383784	0.286216
748.580528	0.286047
748.777253	0.286073
748.973960	0.285747
749.170649	0.285510
749.367320	0.285553
749.563973	0.285550
749.760607	0.285212
749.957223	0.284736
750.153821	0.284353
750.350400	0.284202
750.546962	0.283795
750.743505	0.283844
750.940030	0.283688
751.136536	0.283334
751.333025	0.283129
751.529495	0.283127
751.725947	0.283068
751.922381	0.283016
752.118796	0.282634
752.315194	0.282268
752.511573	0.282011
752.707934	0.281769
752.904276	0.281700
753.100601	0.281469
753.296907	0.281578
753.493195	0.281376
753.689465	0.281100
753.885716	0.281161
754.081949	0.280908
754.278164	0.280802
754.474361	0.280558
754.670540	0.280313
754.866700	0.280328
755.062843	0.279834
755.258967	0.279686
755.455072	0.279652
755.651160	0.279357
755.847229	0.279339
756.043280	0.279392
756.239313	0.279728
756.435328	0.279471
756.631324	0.279202
756.827302	0.279198
757.023262	0.279357
757.219204	0.279068
757.415127	0.279030
757.611033	0.279005
757.806920	0.278491
758.002788	0.277943
758.198639	0.277986
758.394471	0.277963
758.590286	0.277610
758.786081	0.277400
758.981859	0.277471
759.177619	0.277371
759.373360	0.277543
759.569083	0.277775
759.764788	0.277940
759.960474	0.277903
760.156143	0.277871
760.351793	0.277970
760.547425	0.277815
760.743038	0.277632
760.938634	0.277490
761.134211	0.277329
761.329770	0.277383
761.525311	0.277141
761.720833	0.276783
761.916338	0.276866
762.111824	0.276945
762.307292	0.276770
762.502741	0.276898
762.698173	0.277068
762.893586	0.276842
763.088981	0.276575
763.284358	0.276539
763.479716	0.276936
763.675057	0.276742
763.870379	0.276572
764.065683	0.276725
764.260968	0.276440
764.456236	0.276068
764.651485	0.275866
764.846716	0.275632
765.041929	0.275855
765.237123	0.275540
765.432299	0.275472
765.627457	0.275346
765.822597	0.274978
766.017719	0.275101
766.212822	0.275230
766.407907	0.275640
766.602974	0.275875
766.798023	0.275772
766.993054	0.275682
767.188066	0.275581
767.383060	0.275533
767.578036	0.275744
767.772993	0.275723
767.967933	0.275835
768.162854	0.275546
768.357757	0.275473
768.552642	0.275238
768.747508	0.275178
768.942356	0.275131
769.137186	0.275100
769.331998	0.274948
769.526792	0.274807
769.721567	0.274460
769.916324	0.274197
770.111063	0.274051
770.305784	0.274115
770.500486	0.274032
770.695171	0.274153
770.889837	0.274176
771.084484	0.274262
771.279114	0.274046
771.473725	0.273984
771.668318	0.274070
771.862893	0.274049
772.057450	0.274137
772.251988	0.274320
772.446509	0.274077
772.641011	0.274152
772.835494	0.273813
773.029960	0.274235
773.224407	0.274555
773.418836	0.274446
773.613247	0.274619
773.807640	0.274770
774.002014	0.274723
774.196370	0.274812
774.390708	0.274750
774.585028	0.274857
774.779330	0.274256
774.973613	0.273941
775.167878	0.273828
775.362125	0.273630
775.556354	0.273069
775.750564	0.273112
775.944756	0.272926
776.138930	0.272686
776.333086	0.272653
776.527223	0.273161
776.721343	0.273339
776.915444	0.273433
777.109526	0.273352
777.303591	0.273381
777.497637	0.273206
777.691666	0.273336
777.885676	0.273349
778.079667	0.273511
778.273641	0.273161
778.467596	0.273095
778.661533	0.272796
778.855452	0.272630
779.049352	0.272527
779.243235	0.272682
779.437099	0.272898
779.630945	0.273071
779.824773	0.272867
780.018582	0.273013
780.212373	0.273141
780.406146	0.273691
780.599901	0.274041
780.793638	0.274312
780.987356	0.274474
781.181056	0.274152
781.374738	0.273996
781.568402	0.274265
781.762047	0.274350
781.955674	0.274543
782.149283	0.274161
782.342874	0.274160
782.536447	0.274226
782.730001	0.274157
782.923537	0.274451
783.117055	0.274696
783.310555	0.274668
783.504036	0.274706
783.697499	0.274559
783.890944	0.275001
784.084371	0.274942
784.277780	0.274883
784.471170	0.274818
784.664542	0.274703
784.857896	0.274590
785.051231	0.274617
785.244549	0.274768
785.437848	0.274821
785.631129	0.274813
785.824392	0.274981
786.017636	0.275207
786.210863	0.275335
786.404071	0.275405
786.597260	0.275604
786.790432	0.275474
786.983585	0.275419
787.176721	0.275290
787.369838	0.275280
787.562936	0.275476
787.756017	0.275367
787.949079	0.275377
788.142123	0.275426
788.335149	0.275591
788.528156	0.275764
788.721146	0.275890
788.914117	0.276174
789.107070	0.276214
789.300005	0.276133
789.492921	0.276106
789.685819	0.276179
789.878699	0.276438
790.071561	0.276442
790.264405	0.276628
790.457230	0.276558
790.650037	0.276169
790.842826	0.276293
791.035597	0.276420
791.228349	0.276560
791.421084	0.276730
791.613800	0.276655
791.806497	0.276779
791.999177	0.276971
792.191838	0.277137
792.384481	0.277652
792.577106	0.277593
792.769713	0.277479
792.962301	0.277426
793.154871	0.277495
793.347423	0.277615
793.539957	0.277480
793.732473	0.277378
793.924970	0.277252
794.117449	0.277369
794.309910	0.277820
794.502353	0.278196
794.694777	0.278339
794.887183	0.278477
795.079571	0.278592
795.271941	0.278835
795.464293	0.278947
795.656626	0.279547
795.848941	0.279737
796.041238	0.279679
796.233516	0.279920
796.425777	0.280267
796.618019	0.280349
796.810243	0.280125
797.002449	0.280295
797.194636	0.280583
797.386805	0.280636
797.578956	0.280657
797.771089	0.280753
797.963204	0.280732
798.155300	0.280799
798.347378	0.280919
798.539438	0.281498
798.731480	0.281454
798.923503	0.281392
799.115509	0.281398
799.307496	0.281743
799.499465	0.282117
799.691415	0.282205
799.883348	0.282455
800.075262	0.282551
800.267158	0.282469
800.459035	0.282716
800.650895	0.282816
800.842736	0.282910
801.034559	0.282858
801.226364	0.282843
801.418150	0.282971
801.609919	0.283138
801.801669	0.283451
801.993401	0.283805
802.185114	0.284197
802.376810	0.284541
802.568487	0.284731
802.760146	0.284878
802.951787	0.284750
803.143409	0.284851
803.335014	0.285217
803.526600	0.285281
803.718168	0.285434
803.909717	0.285369
804.101249	0.285644
804.292762	0.285817
804.484257	0.286206
804.675734	0.286869
804.867192	0.287150
805.058632	0.287374
805.250054	0.287558
805.441458	0.287618
805.632844	0.287901
805.824211	0.288213
806.015561	0.288356
806.206891	0.288450
806.398204	0.288491
806.589499	0.288549
806.780775	0.288514
806.972033	0.288831
807.163273	0.289011
807.354495	0.289121
807.545698	0.289248
807.736883	0.289767
807.928050	0.290029
808.119199	0.290305
808.310329	0.290776
808.501441	0.290952
808.692535	0.291109
808.883611	0.291795
809.074669	0.292164
809.265708	0.292501
809.456729	0.292680
809.647732	0.293080
809.838717	0.293047
810.029683	0.293251
810.220632	0.293564
810.411562	0.293953
810.602474	0.293988
810.793367	0.294232
810.984242	0.294354
811.175100	0.294358
811.365938	0.294217
811.556759	0.294719
811.747562	0.295028
811.938346	0.295160
812.129112	0.295151
812.319860	0.295330
812.510589	0.295387
812.701300	0.295610
812.891994	0.295733
813.082668	0.296256
813.273325	0.296707
813.463964	0.296815
813.654584	0.297030
813.845186	0.297305
814.035769	0.297407
814.226335	0.297590
814.416882	0.297819
814.607411	0.298560
814.797922	0.298915
814.988415	0.299043
815.178889	0.299679
815.369345	0.300050
815.559783	0.299934
815.750203	0.300307
815.940605	0.300827
816.130988	0.300946
816.321353	0.300818
816.511700	0.300985
816.702028	0.300903
816.892339	0.300633
817.082631	0.300837
817.272905	0.301599
817.463161	0.301719
817.653398	0.301742
817.843617	0.301726
818.033819	0.301763
818.224001	0.301613
818.414166	0.302030
818.604312	0.302089
818.794440	0.302395
818.984550	0.302115
819.174642	0.302449
819.364716	0.302758
819.554771	0.302876
819.744808	0.303273
819.934827	0.303703
820.124827	0.303695
820.314810	0.304193
820.504774	0.304228
820.694720	0.304766
820.884647	0.304968
821.074557	0.305206
821.264448	0.305699
821.454321	0.305789
821.644176	0.305946
821.834012	0.306449
822.023831	0.306843
822.213631	0.307412
822.403413	0.307719
822.593176	0.307879
822.782922	0.307940
822.972649	0.308420
823.162358	0.308946
823.352049	0.309268
823.541721	0.309364
823.731376	0.309711
823.921012	0.309877
824.110629	0.310296
824.300229	0.310763
824.489811	0.311345
824.679374	0.311502
824.868919	0.311802
825.058445	0.312307
825.247954	0.312835
825.437444	0.312935
825.626916	0.312942
825.816370	0.313297
826.005806	0.313592
826.195223	0.313959
826.384622	0.314224
826.574003	0.314420
826.763366	0.314646
826.952711	0.315184
827.142037	0.316036
827.331345	0.316842
827.520635	0.316947
827.709906	0.317605
827.899160	0.318211
828.088395	0.318822
828.277612	0.319359
828.466810	0.319801
828.655991	0.319956
828.845153	0.319906
829.034297	0.320119
829.223423	0.320467
829.412531	0.320491
829.601620	0.320330
829.790691	0.320507
829.979744	0.320845
830.168779	0.321067
830.357795	0.321160
830.546793	0.321286
830.735773	0.321327
830.924735	0.321567
831.113679	0.321800
831.302604	0.321967
831.491511	0.322389
831.680400	0.322797
831.869271	0.322872
832.058123	0.323197
832.246957	0.323522
832.435773	0.324143
832.624571	0.324710
832.813351	0.325240
833.002112	0.325855
833.190855	0.326184
833.379580	0.326520
833.568287	0.327036
833.756975	0.327402
833.945645	0.327802
834.134297	0.328285
834.322931	0.328470
834.511547	0.328726
834.700144	0.329071
834.888723	0.329290
835.077284	0.329365
835.265826	0.329781
835.454351	0.329999
835.642857	0.330212
835.831345	0.330138
836.019815	0.330441
836.208266	0.330502
836.396699	0.330702
836.585114	0.331240
836.773511	0.331408
836.961890	0.331509
837.150250	0.331785
837.338592	0.332353
837.526916	0.333116
837.715222	0.333479
837.903510	0.333874
838.091779	0.334405
838.280030	0.334778
838.468263	0.335517
838.656477	0.336028
838.844674	0.336806
839.032852	0.337257
839.221012	0.337327
839.409153	0.337528
839.597277	0.338239
839.785382	0.338648
839.973469	0.339058
840.161538	0.339458
840.349589	0.340334
840.537621	0.340678
840.725635	0.340864
840.913631	0.341224
841.101609	0.342017
841.289568	0.342245
841.477509	0.342564
841.665432	0.342699
841.853337	0.342925
842.041224	0.343097
842.229092	0.343594
842.416942	0.343940
842.604774	0.344451
842.792588	0.345154
842.980383	0.345930
843.168160	0.346814
843.355919	0.347263
843.543660	0.347705
843.731382	0.347980
843.919087	0.348049
844.106773	0.348707
844.294441	0.349097
844.482090	0.349387
844.669722	0.349526
844.857335	0.349327
845.044930	0.349560
845.232507	0.350114
845.420065	0.350386
845.607605	0.350763
845.795127	0.350930
845.982631	0.351501
846.170117	0.351440
846.357584	0.351542
846.545033	0.351965
846.732464	0.352286
846.919877	0.352371
847.107272	0.352719
847.294648	0.352901
847.482006	0.353678
847.669346	0.353880
847.856667	0.354480
848.043971	0.354899
848.231256	0.355546
848.418523	0.356295
848.605771	0.356924
848.793002	0.357476
848.980214	0.358209
849.167408	0.357806
849.354584	0.357954
849.541742	0.358332
849.728881	0.358669
849.916002	0.358589
850.103105	0.358798
850.290190	0.359157
850.477256	0.359507
850.664304	0.359921
850.851334	0.360534
851.038346	0.361151
851.225340	0.361344
851.412315	0.362014
851.599272	0.362423
851.786211	0.362825
851.973132	0.363133
852.160034	0.363288
852.346918	0.363635
852.533784	0.364350
852.720632	0.364343
852.907462	0.364591
853.094273	0.364440
853.281066	0.364827
853.467841	0.364688
853.654598	0.364521
853.841336	0.364454
854.028056	0.364391
854.214758	0.364194
854.401442	0.364583
854.588107	0.364819
854.774755	0.365221
854.961384	0.365256
855.147995	0.365744
855.334587	0.366416
855.521162	0.367110
855.707718	0.367970
855.894256	0.368584
856.080775	0.368752
856.267277	0.368977
856.453760	0.369921
856.640225	0.370496
856.826672	0.370811
857.013101	0.370965
857.199511	0.371399
857.385903	0.371319
857.572277	0.371411
857.758633	0.372338
857.944970	0.372736
858.131290	0.372732
858.317591	0.372999
858.503873	0.373402
858.690138	0.373664
858.876384	0.373566
859.062612	0.373901
859.248822	0.374336
859.435014	0.374286
859.621188	0.374670
859.807343	0.374867
859.993480	0.375339
860.179599	0.375738
860.365699	0.376010
860.551781	0.376510
860.737846	0.377080
860.923891	0.377212
861.109919	0.377741
861.295929	0.378413
861.481920	0.378696
861.667893	0.379354
861.853848	0.379484
862.039784	0.380022
862.225702	0.380804
862.411603	0.381162
862.597484	0.381772
862.783348	0.382321
862.969193	0.382584
863.155021	0.382685
863.340830	0.382948
863.526620	0.383905
863.712393	0.384188
863.898147	0.384355
864.083883	0.384444
864.269601	0.384945
864.455301	0.384859
864.640982	0.385243
864.826645	0.385877
865.012290	0.386003
865.197917	0.385948
865.383526	0.386308
865.569116	0.386754
865.754688	0.387314
865.940242	0.387194
866.125777	0.387435
866.311295	0.387397
866.496794	0.387558
866.682275	0.387346
866.867737	0.387412
867.053182	0.387787
867.238608	0.387309
867.424016	0.387134
867.609406	0.387200
867.794778	0.387192
867.980131	0.387163
868.165466	0.387454
868.350783	0.388270
868.536082	0.388591
868.721362	0.388832
868.906625	0.389556
869.091869	0.389889
869.277094	0.390418
869.462302	0.391240
869.647491	0.392013
869.832662	0.391921
870.017815	0.391658
870.202950	0.392020
870.388066	0.392112
870.573165	0.392174
870.758245	0.392302
870.943306	0.392410
871.128350	0.392120
871.313375	0.392508
871.498382	0.393401
871.683371	0.393736
871.868342	0.393959
872.053294	0.394254
872.238229	0.394623
872.423144	0.395107
872.608042	0.395738
872.792922	0.396028
872.977783	0.396062
873.162626	0.395644
873.347451	0.395864
873.532258	0.395845
873.717046	0.395657
873.901816	0.395720
874.086568	0.395379
874.271302	0.394859
874.456017	0.394935
874.640715	0.395294
874.825394	0.395429
875.010055	0.395788
875.194697	0.396314
875.379322	0.396716
875.563928	0.397311
875.748516	0.397970
875.933085	0.398728
876.117637	0.399001
876.302170	0.399145
876.486685	0.399621
876.671182	0.399876
876.855661	0.399725
877.040121	0.399995
877.224563	0.399959
877.408987	0.400168
877.593393	0.400058
877.777780	0.400292
877.962150	0.399932
878.146501	0.400040
878.330833	0.399894
878.515148	0.400093
878.699444	0.400105
878.883722	0.399972
879.067982	0.399753
879.252224	0.399848
879.436447	0.400278
879.620653	0.400048
879.804840	0.399892
879.989008	0.400201
880.173159	0.400288
880.357291	0.400372
880.541405	0.400462
880.725501	0.400321
880.909579	0.400470
881.093638	0.400537
881.277680	0.401065
881.461703	0.401241
881.645707	0.400824
881.829694	0.400991
882.013662	0.401045
882.197612	0.401187
882.381544	0.401749
882.565458	0.401135
882.749353	0.400717
882.933230	0.400476
883.117089	0.400543
883.300930	0.400897
883.484753	0.400627
883.668557	0.400547
883.852343	0.400344
884.036111	0.400367
884.219861	0.400814
884.403592	0.401200
884.587305	0.401403
884.771000	0.401737
884.954677	0.402122
885.138335	0.401912
885.321976	0.401893
885.505598	0.401898
885.689201	0.402186
885.872787	0.402179
886.056354	0.402202
886.239904	0.402597
886.423434	0.402406
886.606947	0.402309
886.790442	0.403146
886.973918	0.403564
887.157376	0.403851
887.340816	0.403573
887.524237	0.403795
887.707641	0.403822
887.891026	0.403587
888.074393	0.403261
888.257741	0.403068
888.441072	0.402542
888.624384	0.402660
888.807678	0.402488
888.990954	0.402378
889.174211	0.402254
889.357451	0.401668
889.540672	0.401610
889.723875	0.402124
889.907059	0.402388
890.090226	0.402299
890.273374	0.401481
890.456504	0.401817
890.639616	0.401609
890.822709	0.401663
891.005785	0.401466
891.188842	0.401724
891.371881	0.400842
891.554901	0.400282
891.737904	0.400715
891.920888	0.401237
892.103854	0.401192
892.286802	0.401550
892.469731	0.401782
892.652643	0.402467
892.835536	0.402464
893.018410	0.403561
893.201267	0.403427
893.384106	0.403156
893.566926	0.403093
893.749728	0.402744
893.932511	0.402324
894.115277	0.402380
894.298024	0.402184
894.480753	0.401913
894.663464	0.401606
894.846157	0.401735
895.028831	0.401658
895.211487	0.401486
895.394125	0.401628
895.576745	0.402108
895.759346	0.401880
895.941930	0.402052
896.124495	0.402084
896.307041	0.401836
896.489570	0.401842
896.672080	0.401901
896.854573	0.401797
897.037046	0.401467
897.219502	0.401227
897.401940	0.400704
897.584359	0.400159
897.766760	0.399622
897.949143	0.399321
898.131507	0.399435
898.313854	0.399510
898.496182	0.399257
898.678492	0.398868
898.860783	0.398809
899.043057	0.399135
899.225312	0.399506
899.407549	0.399727
899.589768	0.399858
899.771968	0.399081
899.954151	0.398696
900.136315	0.398589
900.318461	0.398218
900.500588	0.397528
900.682698	0.397071
900.864789	0.396441
901.046862	0.395263
901.228917	0.394773
901.410953	0.395201
901.592971	0.394616
901.774972	0.394044
901.956953	0.393634
902.138917	0.393338
902.320862	0.392521
902.502790	0.392151
902.684699	0.392645
902.866589	0.391654
903.048462	0.391215
903.230316	0.390917
903.412152	0.390976
903.593970	0.391381
903.775770	0.391067
903.957551	0.391563
904.139314	0.391216
904.321059	0.390992
904.502786	0.391350
904.684494	0.390745
904.866185	0.390502
905.047857	0.390033
905.229510	0.389606
905.411146	0.389453
905.592763	0.388170
905.774363	0.388032
905.955943	0.387056
906.137506	0.386930
906.319051	0.386221
906.500577	0.385717
906.682085	0.385171
906.863575	0.384324
907.045046	0.383483
907.226500	0.383063
907.407935	0.382777
907.589352	0.382288
907.770750	0.381536
907.952131	0.381305
908.133493	0.381084
908.314837	0.380384
908.496163	0.380079
908.677470	0.380571
908.858760	0.380649
909.040031	0.380361
909.221284	0.380247
909.402518	0.380183
909.583735	0.380789
909.764933	0.380464
909.946113	0.380916
910.127275	0.381220
910.308418	0.380364
910.489544	0.380297
910.670651	0.379831
910.851740	0.379875
911.032810	0.379083
911.213863	0.378445
911.394897	0.378219
911.575913	0.378382
911.756911	0.378093
911.937890	0.377967
912.118851	0.377786
912.299794	0.377360
912.480719	0.377426
912.661626	0.377021
912.842514	0.376427
913.023384	0.376201
913.204236	0.375273
913.385070	0.375063
913.565886	0.374468
913.746683	0.373711
913.927462	0.373456
914.108223	0.372678
914.288965	0.372328
914.469690	0.371202
914.650396	0.370104
914.831084	0.369959
915.011754	0.368618
915.192405	0.368112
915.373038	0.367665
915.553653	0.366780
915.734250	0.366025
915.914829	0.365575
916.095389	0.365862
916.275931	0.365584
916.456455	0.363908
916.636961	0.363352
916.817448	0.362594
916.997917	0.361561
917.178368	0.361062
917.358801	0.360452
917.539216	0.359915
917.719612	0.358638
917.899990	0.357951
918.080350	0.358072
918.260692	0.357405
918.441015	0.356748
918.621320	0.356538
918.801607	0.355818
918.981876	0.355241
919.162127	0.355150
919.342359	0.354555
919.522573	0.354162
919.702769	0.352820
919.882947	0.352159
920.063106	0.351500
920.243247	0.351095
920.423370	0.350566
920.603475	0.349797
920.783562	0.348328
920.963630	0.347812
921.143680	0.346918
921.323712	0.347021
921.503725	0.347002
921.683721	0.346508
921.863698	0.345277
922.043657	0.344948
922.223598	0.344903
922.403520	0.344409
922.583424	0.344864
922.763311	0.343960
922.943178	0.343602
923.123028	0.342139
923.302859	0.342154
923.482673	0.342510
923.662467	0.341078
923.842244	0.340274
924.022003	0.339816
924.201743	0.337892
924.381465	0.338003
924.561169	0.337075
924.740854	0.337053
924.920522	0.335695
925.100171	0.334721
925.279802	0.334564
925.459414	0.333727
925.639009	0.332812
925.818585	0.332160
925.998143	0.331004
926.177683	0.329831
926.357205	0.329114
926.536708	0.329430
926.716193	0.328860
926.895660	0.329033
927.075109	0.329277
927.254539	0.329432
927.433951	0.330175
927.613345	0.329678
927.792721	0.329662
927.972079	0.329357
928.151418	0.327428
928.330739	0.327404
928.510042	0.325672
928.689327	0.323209
928.868593	0.321949
929.047841	0.320279
929.227071	0.319821
929.406283	0.318528
929.585476	0.317111
929.764652	0.316555
929.943809	0.314607
930.122948	0.313838
930.302068	0.313857
930.481171	0.313367
930.660255	0.312095
930.839321	0.310204
931.018369	0.309921
931.197398	0.309181
931.376409	0.308928
931.555402	0.308870
931.734377	0.308458
931.913334	0.307884
932.092272	0.307330
932.271192	0.306967
932.450094	0.307387
932.628978	0.306493
932.807844	0.306087
932.986691	0.305317
933.165520	0.303915
933.344331	0.303612
933.523123	0.302763
933.701898	0.302192
933.880654	0.301609
934.059392	0.300689
934.238111	0.300473
934.416813	0.299541
934.595496	0.299557
934.774161	0.299539
934.952808	0.298889
935.131437	0.298273
935.310047	0.296933
935.488639	0.296186
935.667213	0.296120
935.845769	0.294852
936.024306	0.294738
936.202825	0.293626
936.381326	0.292628
936.559809	0.291343
936.738274	0.290910
936.916720	0.289886
937.095148	0.288923
937.273558	0.287902
937.451950	0.286702
937.630323	0.285745
937.808678	0.284583
937.987015	0.283384
938.165334	0.281587
938.343635	0.279072
938.521917	0.277640
938.700181	0.275432
938.878427	0.272813
939.056655	0.272352
939.234864	0.270576
939.413055	0.268840
939.591228	0.267606
939.769383	0.266501
939.947519	0.267021
940.125638	0.267425
940.303738	0.267934
940.481820	0.269425
940.659883	0.268485
940.837929	0.267180
941.015956	0.266831
941.193965	0.265744
941.371955	0.265547
941.549928	0.263936
941.727882	0.262334
941.905818	0.261315
942.083736	0.259116
942.261636	0.256813
942.439517	0.256897
942.617380	0.256761
942.795225	0.255055
942.973052	0.254108
943.150860	0.253410
943.328651	0.252756
943.506423	0.252870
943.684176	0.252571
943.861912	0.252320
944.039629	0.250485
944.217328	0.247928
944.395009	0.249026
944.572672	0.247388
944.750317	0.245650
944.927943	0.246398
945.105551	0.244569
945.283141	0.242859
945.460712	0.242682
945.638265	0.243636
945.815801	0.243480
945.993317	0.241258
946.170816	0.239915
946.348297	0.238695
946.525759	0.235997
946.703203	0.235494
946.880629	0.235078
947.058036	0.234167
947.235425	0.232039
947.412797	0.232451
947.590149	0.232616
947.767484	0.233407
947.944800	0.234593
948.122099	0.232714
948.299379	0.230520
948.476640	0.228724
948.653884	0.229276
948.831109	0.228363
949.008316	0.225079
949.185505	0.224430
949.362676	0.224688
949.539828	0.223810
949.716962	0.222066
949.894078	0.220604
950.071176	0.221546
950.248256	0.218437
950.425317	0.218872
950.602360	0.218967
950.779385	0.218058
950.956391	0.216215
951.133380	0.213902
951.310350	0.218012
951.487302	0.219430
951.664235	0.218523
951.841151	0.219599
952.018048	0.216883
952.194927	0.216124
952.371788	0.214809
952.548631	0.215616
952.725455	0.214923
952.902261	0.212590
953.079049	0.211202
953.255819	0.208111
953.432570	0.206717
953.609303	0.204899
953.786018	0.206062
953.962715	0.206205
954.139394	0.203829
954.316054	0.203901
954.492696	0.199975
954.669320	0.202127
954.845926	0.201830
955.022513	0.200095
955.199083	0.200427
955.375634	0.196970
955.552166	0.192859
955.728681	0.193799
955.905177	0.193807
956.081655	0.195352
956.258115	0.191386
956.434557	0.191389
956.610980	0.193331
956.787385	0.194318
956.963772	0.195953
957.140141	0.197785
957.316492	0.194459
957.492824	0.192702
957.669138	0.190930
957.845434	0.189395
958.021712	0.190728
958.197971	0.190102
958.374212	0.189945
958.550435	0.188400
958.726640	0.189063
958.902826	0.191080
959.078995	0.191730
959.255145	0.194065
959.431277	0.197215
959.607390	0.196906
959.783486	0.195489
959.959563	0.195739
960.135622	0.196941
960.311662	0.198278
960.487685	0.196716
960.663689	0.195250
960.839675	0.194119
961.015643	0.193038
961.191593	0.189267
961.367524	0.190211
961.543437	0.189262
961.719332	0.190110
961.895209	0.187550
962.071067	0.187552
962.246907	0.188945
962.422730	0.187657
962.598533	0.187394
962.774319	0.189989
962.950086	0.187097
963.125835	0.185884
963.301566	0.185716
963.477279	0.185518
963.652973	0.185784
963.828650	0.184504
964.004308	0.184987
964.179947	0.184384
964.355569	0.182739
964.531172	0.183392
964.706757	0.184766
964.882324	0.183917
965.057873	0.182178
965.233403	0.181535
965.408916	0.183566
965.584410	0.182916
965.759885	0.183997
965.935343	0.184422
966.110782	0.182902
966.286203	0.181503
966.461606	0.179433
966.636991	0.181615
966.812357	0.183382
966.987705	0.180277
967.163035	0.179844
967.338347	0.175751
967.513641	0.176491
967.688916	0.178709
967.864173	0.180162
968.039412	0.179306
968.214632	0.176678
968.389835	0.173830
968.565019	0.175889
968.740185	0.177000
968.915333	0.183402
969.090462	0.181018
969.265573	0.179588
969.440667	0.177108
969.615741	0.177219
969.790798	0.178480
969.965836	0.179296
970.140856	0.179340
970.315858	0.178609
970.490842	0.174707
970.665808	0.177013
970.840755	0.181197
971.015684	0.181959
971.190595	0.182464
971.365487	0.184985
971.540362	0.184420
971.715218	0.183852
971.890056	0.184672
972.064875	0.182915
972.239677	0.184363
972.414460	0.180240
972.589225	0.182060
972.763972	0.181176
972.938700	0.179711
973.113411	0.183612
973.288103	0.181318
973.462777	0.181677
973.637432	0.183981
973.812070	0.183044
973.986689	0.184488
974.161290	0.183124
974.335873	0.183258
974.510437	0.184789
974.684984	0.181700
974.859512	0.183477
975.034022	0.185399
975.208513	0.186921
975.382987	0.184715
975.557442	0.181052
975.731879	0.182153
975.906298	0.183231
976.080698	0.182711
976.255080	0.185518
976.429445	0.185399
976.603790	0.183790
976.778118	0.181732
976.952427	0.182818
977.126719	0.186303
977.300992	0.186032
977.475246	0.186869
977.649483	0.186437
977.823701	0.183434
977.997901	0.181504
978.172083	0.180395
978.346247	0.178930
978.520392	0.178700
978.694519	0.177793
978.868628	0.177080
979.042719	0.174507
979.216791	0.174968
979.390845	0.176142
979.564882	0.179120
979.738899	0.179583
979.912899	0.181139
980.086880	0.180604
980.260843	0.180533
980.434788	0.179353
980.608715	0.181826
980.782623	0.181817
980.956514	0.178224
981.130386	0.178444
981.304240	0.178286
981.478075	0.178772
981.651892	0.179523
981.825692	0.182810
981.999472	0.181595
982.173235	0.182867
982.346980	0.181448
982.520706	0.185616
982.694414	0.187137
982.868104	0.187811
983.041775	0.187686
983.215428	0.185132
983.389064	0.182945
983.562680	0.187540
983.736279	0.187242
983.909860	0.187614
984.083422	0.185455
984.256966	0.184472
984.430491	0.184400
984.603999	0.183657
984.777488	0.183862
984.950959	0.181174
985.124412	0.180326
985.297847	0.177805
985.471263	0.176586
985.644661	0.177586
985.818041	0.178828
985.991403	0.177122
986.164747	0.178072
986.338072	0.179006
986.511379	0.181486
986.684668	0.178620
986.857938	0.178204
987.031191	0.179246
987.204425	0.177769
987.377641	0.176715
987.550839	0.177344
987.724018	0.176089
987.897179	0.178878
988.070322	0.177974
988.243447	0.179418
988.416554	0.181758
988.589642	0.182644
988.762712	0.183415
988.935764	0.180977
989.108798	0.182154
989.281813	0.184455
989.454811	0.185140
989.627790	0.185480
989.800751	0.187366
989.973693	0.187057
990.146617	0.185832
990.319524	0.185024
990.492412	0.187200
990.665281	0.187015
990.838133	0.187659
991.010966	0.184984
991.183781	0.186675
991.356578	0.184287
991.529356	0.184223
991.702117	0.184007
991.874859	0.185797
992.047583	0.183823
992.220288	0.182889
992.392976	0.179459
992.565645	0.181420
992.738296	0.179785
992.910929	0.181606
993.083543	0.180329
993.256139	0.181676
993.428718	0.181112
993.601277	0.181490
993.773819	0.182070
993.946342	0.182695
994.118848	0.180103
994.291335	0.180168
994.463803	0.179969
994.636254	0.180522
994.808686	0.179999
994.981100	0.180599
995.153496	0.180348
995.325874	0.179172
995.498233	0.181980
995.670574	0.184353
995.842897	0.184086
996.015202	0.183083
996.187488	0.183023
996.359757	0.181590
996.532007	0.182621
996.704239	0.183212
996.876452	0.184892
997.048648	0.182330
997.220825	0.182390
997.392984	0.182688
997.565124	0.184801
997.737247	0.185988
997.909351	0.188002
998.081437	0.185847
998.253505	0.184720
998.425554	0.184297
998.597586	0.185392
998.769599	0.184459
998.941594	0.183119
999.113571	0.182557
999.285529	0.180375
999.457469	0.179481
999.629391	0.180155
999.801295	0.182422
999.973181	0.182977
1000.145048	0.181948
1000.316897	0.183400
1000.488728	0.184109
1000.660541	0.181606
1000.832335	0.182966
1001.004111	0.182408
1001.175869	0.182079
1001.347609	0.181480
1001.519331	0.180546
1001.691034	0.180227
1001.862719	0.176789
1002.034386	0.179408
1002.206035	0.182654
1002.377665	0.181980
1002.549277	0.185131
1002.720871	0.184827
1002.892447	0.185292
1003.064004	0.183250
1003.235544	0.184898
1003.407065	0.186588
1003.578568	0.187004
1003.750052	0.186032
1003.921519	0.184209
1004.092967	0.180677
1004.264397	0.181886
1004.435809	0.179557
1004.607202	0.180582
1004.778577	0.177348
1004.949934	0.176119
1005.121273	0.173808
1005.292594	0.171833
1005.463896	0.173105
1005.635180	0.174538
1005.806446	0.174435
1005.977694	0.175671
1006.148923	0.176733
1006.320135	0.178982
1006.491328	0.180372
1006.662503	0.180900
1006.833659	0.183384
1007.004798	0.184282
1007.175918	0.183679
1007.347020	0.182231
1007.518103	0.183331
1007.689169	0.182205
1007.860216	0.179928
1008.031245	0.180681
1008.202256	0.181901
1008.373248	0.178458
1008.544223	0.178769
1008.715179	0.178192
1008.886117	0.180659
1009.057036	0.180448
1009.227938	0.182177
1009.398821	0.183909
1009.569686	0.182726
1009.740533	0.181453
1009.911361	0.181646
1010.082172	0.181426
1010.252964	0.182335
1010.423738	0.181143
1010.594493	0.176823
1010.765231	0.175101
1010.935950	0.174927
1011.106651	0.175127
1011.277334	0.175456
1011.447998	0.175753
1011.618645	0.177333
1011.789273	0.177784
1011.959882	0.176954
1012.130474	0.179730
1012.301048	0.179749
1012.471603	0.178879
1012.642140	0.178589
1012.812658	0.176460
1012.983159	0.176595
1013.153641	0.174106
1013.324105	0.172440
1013.494551	0.172496
1013.664979	0.172883
1013.835388	0.172191
1014.005779	0.174932
1014.176152	0.174240
1014.346507	0.176168
1014.516843	0.178290
1014.687162	0.179337
1014.857462	0.178484
1015.027744	0.179519
1015.198007	0.179974
1015.368252	0.183128
1015.538480	0.181676
1015.708689	0.182768
1015.878879	0.182348
1016.049052	0.180822
1016.219206	0.181711
1016.389342	0.185116
1016.559460	0.183043
1016.729559	0.181899
1016.899641	0.179721
1017.069704	0.179933
1017.239749	0.179776
1017.409775	0.180001
1017.579784	0.179510
1017.749774	0.177488
1017.919746	0.175482
1018.089700	0.176158
1018.259635	0.174800
1018.429553	0.174355
1018.599452	0.175312
1018.769333	0.175328
1018.939195	0.174640
1019.109040	0.176148
1019.278866	0.177851
1019.448674	0.177639
1019.618464	0.179090
1019.788235	0.180538
1019.957989	0.179792
1020.127724	0.176724
1020.297441	0.177935
1020.467139	0.178065
1020.636820	0.175544
1020.806482	0.174600
1020.976126	0.176049
1021.145752	0.175379
1021.315359	0.175583
1021.484948	0.176965
1021.654519	0.180696
1021.824072	0.179052
1021.993607	0.179857
1022.163123	0.182076
1022.332621	0.181145
1022.502101	0.180775
1022.671563	0.180938
1022.841007	0.181048
1023.010432	0.181975
1023.179839	0.179692
1023.349228	0.180205
1023.518598	0.179730
1023.687951	0.178727
1023.857285	0.179218
1024.026601	0.179315
1024.195899	0.180335
1024.365178	0.179985
1024.534439	0.179671
1024.703682	0.181036
1024.872907	0.180986
1025.042114	0.179729
1025.211302	0.180555
1025.380472	0.182884
1025.549624	0.181739
1025.718758	0.180727
1025.887873	0.182454
1026.056970	0.182166
1026.226049	0.183656
1026.395110	0.184616
1026.564153	0.185239
1026.733177	0.184748
1026.902183	0.183975
1027.071171	0.185006
1027.240141	0.184298
1027.409092	0.184551
1027.578026	0.182331
1027.746940	0.179237
1027.915837	0.178211
1028.084716	0.176185
1028.253576	0.176619
1028.422418	0.175894
1028.591242	0.174481
1028.760048	0.174573
1028.928835	0.172448
1029.097604	0.175166
1029.266355	0.176094
1029.435088	0.175240
1029.603803	0.177163
1029.772499	0.176689
1029.941177	0.176159
1030.109837	0.177177
1030.278478	0.177553
1030.447102	0.177955
1030.615707	0.175905
1030.784294	0.174995
1030.952863	0.174724
1031.121413	0.176053
1031.289945	0.175734
1031.458460	0.176744
1031.626955	0.178519
1031.795433	0.178282
1031.963892	0.179407
1032.132334	0.181623
1032.300756	0.183525
1032.469161	0.181613
1032.637548	0.180139
1032.805916	0.182369
1032.974266	0.181796
1033.142598	0.179359
1033.310911	0.177799
1033.479207	0.176219
1033.647484	0.177203
1033.815743	0.176267
1033.983983	0.178817
1034.152206	0.178026
1034.320410	0.176532
1034.488596	0.174253
1034.656764	0.175129
1034.824914	0.176251
1034.993045	0.175532
1035.161158	0.173574
1035.329253	0.173595
1035.497330	0.173092
1035.665388	0.172668
1035.833428	0.172050
1036.001450	0.172492
1036.169454	0.173388
1036.337440	0.172675
1036.505407	0.174357
1036.673356	0.174749
1036.841287	0.174268
1037.009200	0.173687
1037.177094	0.175807
1037.344970	0.176050
1037.512828	0.176951
1037.680668	0.174920
1037.848489	0.175266
1038.016293	0.173907
1038.184078	0.174056
1038.351845	0.173556
1038.519593	0.175128
1038.687324	0.173993
1038.855036	0.175704
1039.022730	0.176497
1039.190406	0.175903
1039.358063	0.175622
1039.525702	0.176487
1039.693323	0.174130
1039.860926	0.175324
1040.028511	0.173441
1040.196077	0.174072
1040.363625	0.173958
1040.531155	0.175609
1040.698667	0.176862
1040.866161	0.179095
1041.033636	0.179787
1041.201093	0.181986
1041.368532	0.181510
1041.535952	0.183272
1041.703355	0.181078
1041.870739	0.179494
1042.038105	0.177424
1042.205452	0.178059
1042.372782	0.177868
1042.540093	0.175412
1042.707386	0.176112
1042.874661	0.174749
1043.041918	0.173415
1043.209156	0.173534
1043.376376	0.173789
1043.543578	0.174202
1043.710762	0.173758
1043.877927	0.172225
1044.045074	0.174412
1044.212203	0.172067
1044.379314	0.173671
1044.546407	0.175760
1044.713481	0.179467
1044.880537	0.179013
1045.047575	0.178592
1045.214595	0.177898
1045.381596	0.178596
1045.548579	0.177436
1045.715544	0.177568
1045.882491	0.176851
1046.049420	0.174864
1046.216330	0.173601
1046.383222	0.173118
1046.550096	0.175098
1046.716951	0.176489
1046.883789	0.174908
1047.050608	0.175811
1047.217409	0.176547
1047.384192	0.176388
1047.550956	0.178604
1047.717703	0.176164
1047.884431	0.174430
1048.051140	0.174306
1048.217832	0.173223
1048.384505	0.173299
1048.551161	0.173216
1048.717798	0.174210
1048.884416	0.173081
1049.051017	0.171800
1049.217599	0.174150
1049.384163	0.174425
1049.550709	0.172657
1049.717237	0.172988
1049.883746	0.174783
1050.050237	0.174762
1050.216710	0.176262
1050.383165	0.178787
1050.549601	0.178718
1050.716019	0.179271
1050.882420	0.182582
1051.048801	0.183994
1051.215165	0.185236
1051.381510	0.185315
1051.547837	0.184965
1051.714146	0.181769
1051.880437	0.180380
1052.046709	0.178939
1052.212964	0.178639
1052.379200	0.176646
1052.545417	0.175659
1052.711617	0.174523
1052.877798	0.174351
1053.043961	0.174842
1053.210106	0.176015
1053.376233	0.177183
1053.542341	0.177317
1053.708432	0.177316
1053.874504	0.178423
1054.040557	0.178886
1054.206593	0.178665
1054.372610	0.178507
1054.538609	0.179514
1054.704590	0.175359
1054.870553	0.174307
1055.036497	0.175545
1055.202424	0.174750
1055.368331	0.174453
1055.534221	0.173133
1055.700093	0.171753
1055.865946	0.172258
1056.031781	0.170577
1056.197598	0.173259
1056.363397	0.172248
1056.529177	0.173048
1056.694939	0.172993
1056.860683	0.172509
1057.026409	0.173027
1057.192116	0.174600
1057.357806	0.175688
1057.523477	0.177008
1057.689130	0.178083
1057.854764	0.178123
1058.020381	0.178845
1058.185979	0.179001
1058.351559	0.180397
1058.517120	0.178928
1058.682664	0.177379
1058.848189	0.173837
1059.013696	0.174141
1059.179185	0.171640
1059.344656	0.170731
1059.510108	0.169868
1059.675542	0.169803
1059.840958	0.170833
1060.006356	0.169147
1060.171735	0.168848
1060.337096	0.168973
1060.502439	0.168504
1060.667764	0.171050
1060.833071	0.176457
1060.998359	0.175315
1061.163629	0.173852
1061.328881	0.172292
1061.494115	0.175853
1061.659330	0.176983
1061.824527	0.178241
1061.989706	0.177710
1062.154867	0.179668
1062.320010	0.177532
1062.485134	0.179092
1062.650240	0.181795
1062.815328	0.180201
1062.980398	0.182301
1063.145449	0.183336
1063.310482	0.183553
1063.475497	0.185627
1063.640494	0.184171
1063.805473	0.184947
1063.970433	0.184560
1064.135375	0.182586
1064.300299	0.184924
1064.465204	0.181710
1064.630092	0.182394
1064.794961	0.185937
1064.959812	0.185997
1065.124645	0.183349
1065.289459	0.181160
1065.454256	0.181704
1065.619034	0.183217
1065.783793	0.182982
1065.948535	0.186875
1066.113258	0.185764
1066.277964	0.181851
1066.442651	0.181552
1066.607319	0.182224
1066.771970	0.181468
1066.936602	0.180011
1067.101216	0.177137
1067.265812	0.175728
1067.430389	0.173176
1067.594949	0.171695
1067.759490	0.172040
1067.924013	0.171629
1068.088518	0.174116
1068.253004	0.174835
1068.417472	0.174199
1068.581922	0.176043
1068.746354	0.177689
1068.910768	0.176187
1069.075163	0.178643
1069.239540	0.177895
1069.403899	0.176251
1069.568240	0.175215
1069.732562	0.175114
1069.896866	0.178020
1070.061152	0.178635
1070.225420	0.177360
1070.389670	0.177765
1070.553901	0.174888
1070.718114	0.176178
1070.882309	0.175451
1071.046486	0.176261
1071.210644	0.177511
1071.374784	0.176983
1071.538906	0.176998
1071.703010	0.176535
1071.867096	0.176401
1072.031163	0.177898
1072.195212	0.179570
1072.359243	0.182511
1072.523256	0.184425
1072.687250	0.185242
1072.851226	0.185986
1073.015184	0.187224
1073.179124	0.190067
1073.343045	0.191834
1073.506949	0.190711
1073.670834	0.191149
1073.834701	0.192023
1073.998549	0.192054
1074.162380	0.190385
1074.326192	0.189355
1074.489986	0.188389
1074.653761	0.186071
1074.817519	0.183976
1074.981258	0.185196
1075.144979	0.182847
1075.308682	0.179207
1075.472367	0.176049
1075.636033	0.174985
1075.799681	0.175193
1075.963311	0.174914
1076.126923	0.175990
1076.290516	0.179244
1076.454092	0.180870
1076.617649	0.182461
1076.781187	0.180791
1076.944708	0.185618
1077.108210	0.187577
1077.271695	0.185968
1077.435160	0.188215
1077.598608	0.187767
1077.762038	0.188358
1077.925449	0.186814
1078.088842	0.185177
1078.252217	0.188039
1078.415573	0.184717
1078.578912	0.185732
1078.742232	0.185542
1078.905534	0.185152
1079.068817	0.185924
1079.232083	0.186366
1079.395330	0.186627
1079.558559	0.186072
1079.721770	0.187226
1079.884962	0.186003
1080.048136	0.184740
1080.211293	0.189571
1080.374430	0.187623
1080.537550	0.188584
1080.700651	0.184972
1080.863735	0.185208
1081.026800	0.184632
1081.189846	0.186504
1081.352875	0.185685
1081.515885	0.188934
1081.678877	0.185951
1081.841851	0.187638
1082.004807	0.188752
1082.167744	0.189604
1082.330663	0.188597
1082.493564	0.190898
1082.656447	0.190292
1082.819312	0.194147
1082.982158	0.191897
1083.144986	0.191165
1083.307796	0.189831
1083.470587	0.185665
1083.633361	0.185117
1083.796116	0.187492
1083.958853	0.187478
1084.121571	0.185470
1084.284272	0.180865
1084.446954	0.179822
1084.609618	0.175899
1084.772264	0.175485
1084.934892	0.179359
1085.097501	0.181493
1085.260092	0.179080
1085.422665	0.177829
1085.585220	0.176610
1085.747756	0.178586
1085.910274	0.179282
1086.072774	0.185229
1086.235256	0.186318
1086.397720	0.187933
1086.560165	0.189072
1086.722592	0.192113
1086.885001	0.192220
1087.047392	0.194198
1087.209764	0.196517
1087.372119	0.197018
1087.534455	0.196621
1087.696772	0.199153
1087.859072	0.191821
1088.021353	0.188456
1088.183616	0.189548
1088.345861	0.193532
1088.508088	0.187198
1088.670296	0.186670
1088.832486	0.182554
1088.994658	0.183898
1089.156812	0.183730
1089.318948	0.185752
1089.481065	0.189241
1089.643164	0.188028
1089.805245	0.184281
1089.967308	0.189452
1090.129352	0.184659
1090.291378	0.189837
1090.453386	0.188718
1090.615376	0.185865
1090.777347	0.189505
1090.939301	0.184409
1091.101236	0.183257
1091.263153	0.182501
1091.425051	0.185741
1091.586932	0.185944
1091.748794	0.184844
1091.910638	0.184057
1092.072463	0.187149
1092.234271	0.185601
1092.396060	0.190170
1092.557831	0.189014
1092.719584	0.189732
1092.881319	0.186091
1093.043035	0.193022
1093.204733	0.193313
1093.366413	0.194166
1093.528075	0.191187
1093.689718	0.188153
1093.851343	0.185058
1094.012950	0.189430
1094.174539	0.189926
1094.336110	0.192536
1094.497662	0.188745
1094.659196	0.186732
1094.820712	0.186653
1094.982210	0.190393
1095.143689	0.194453
1095.305151	0.197640
1095.466594	0.191990
1095.628018	0.192111
1095.789425	0.189720
1095.950813	0.191748
1096.112183	0.195045
1096.273535	0.193434
1096.434869	0.186309
1096.596184	0.184479
1096.757482	0.185733
1096.918761	0.193985
1097.080021	0.196113
1097.241264	0.201167
1097.402488	0.203689
1097.563694	0.204687
1097.724882	0.203190
1097.886052	0.210224
1098.047203	0.211134
1098.208336	0.209146
1098.369451	0.205095
1098.530548	0.206808
1098.691627	0.202152
1098.852687	0.199400
1099.013729	0.193630
1099.174753	0.193665
1099.335758	0.187851
1099.496746	0.186457
1099.657715	0.182622
1099.818666	0.179542
1099.979599	0.177268
1100.140513	0.177870
1100.301409	0.178313
1100.462287	0.179750
1100.623147	0.183809
1100.783989	0.185529
1100.944812	0.187009
1101.105617	0.183739
1101.266404	0.180392
1101.427173	0.180055
1101.587923	0.177687
1101.748656	0.173243
1101.909370	0.173453
1102.070066	0.171196
1102.230743	0.175231
1102.391403	0.176328
1102.552044	0.182527
1102.712667	0.185861
1102.873271	0.183895
1103.033858	0.182787
1103.194426	0.185307
1103.354976	0.185729
1103.515508	0.187046
1103.676021	0.183524
1103.836517	0.181738
1103.996994	0.182971
1104.157453	0.179252
1104.317893	0.181561
1104.478316	0.183676
1104.638720	0.183378
1104.799106	0.186979
1104.959474	0.185595
1105.119823	0.180412
1105.280155	0.176171
1105.440468	0.176734
1105.600763	0.183905
1105.761039	0.182046
1105.921298	0.190497
1106.081538	0.194332
1106.241760	0.190507
1106.401964	0.187748
1106.562149	0.195240
1106.722316	0.196874
1106.882465	0.195829
1107.042596	0.194158
1107.202709	0.196704
1107.362803	0.189225
1107.522879	0.185186
1107.682937	0.182042
1107.842977	0.183649
1108.002999	0.182308
1108.163002	0.182162
1108.322987	0.185214
1108.482954	0.187452
1108.642902	0.183731
1108.802833	0.186005
1108.962745	0.192182
1109.122639	0.198545
1109.282515	0.201301
1109.442372	0.203581
1109.602211	0.211295
1109.762032	0.203217
1109.921835	0.206476
1110.081620	0.208647
1110.241386	0.207202
1110.401134	0.206054
1110.560864	0.203752
1110.720576	0.201525
1110.880269	0.200169
1111.039945	0.202252
1111.199602	0.205947
1111.359240	0.199636
1111.518861	0.198392
1111.678463	0.195798
1111.838047	0.194138
1111.997613	0.195635
1112.157161	0.199048
1112.316690	0.203508
1112.476202	0.199893
1112.635695	0.200148
1112.795169	0.199586
1112.954626	0.199121
1113.114064	0.203962
1113.273484	0.201917
1113.432886	0.203349
1113.592270	0.202491
1113.751635	0.199599
1113.910983	0.196218
1114.070312	0.198633
1114.229622	0.201703
1114.388915	0.204660
1114.548189	0.201626
1114.707445	0.197778
1114.866683	0.203086
1115.025903	0.200246
1115.185104	0.194292
1115.344287	0.197980
1115.503452	0.196198
1115.662599	0.191302
1115.821727	0.190370
1115.980838	0.193789
1116.139930	0.201516
1116.299004	0.194570
1116.458059	0.193945
1116.617097	0.194986
1116.776116	0.186066
1116.935117	0.185213
1117.094099	0.188000
1117.253064	0.186525
1117.412010	0.191229
1117.570938	0.194265
1117.729848	0.193550
1117.888740	0.196063
1118.047613	0.197020
1118.206468	0.206990
1118.365305	0.211662
1118.524124	0.212075
1118.682924	0.213681
1118.841707	0.201529
1119.000471	0.193348
1119.159216	0.192538
1119.317944	0.200700
1119.476653	0.204280
1119.635344	0.196964
1119.794017	0.187455
1119.952672	0.179442
1120.111308	0.179728
1120.269927	0.183175
1120.428527	0.185028
1120.587108	0.191783
1120.745672	0.185915
1120.904217	0.186105
1121.062744	0.193640
1121.221253	0.205861
1121.379744	0.220333
1121.538216	0.225943
1121.696671	0.227496
1121.855107	0.225728
1122.013524	0.218416
1122.171924	0.219021
1122.330305	0.223041
1122.488668	0.221658
1122.647013	0.215299
1122.805340	0.212860
1122.963648	0.205896
1123.121938	0.203379
1123.280210	0.210581
1123.438464	0.210647
1123.596700	0.214796
1123.754917	0.210963
1123.913116	0.206049
1124.071297	0.206232
1124.229459	0.198911
1124.387604	0.204413
1124.545730	0.214420
1124.703838	0.215246
1124.861928	0.218936
1125.019999	0.207343
1125.178052	0.202989
1125.336088	0.201887
1125.494104	0.206752
1125.652103	0.211186
1125.810083	0.203665
1125.968045	0.198923
1126.125989	0.194071
1126.283915	0.192567
1126.441823	0.198896
1126.599712	0.200471
1126.757583	0.197333
1126.915436	0.200050
1127.073270	0.201995
1127.231087	0.199918
1127.388885	0.199600
1127.546665	0.203026
1127.704426	0.202081
1127.862170	0.208812
1128.019895	0.205320
1128.177602	0.219258
1128.335291	0.216444
1128.492961	0.210181
1128.650614	0.218582
1128.808248	0.217776
1128.965864	0.211608
1129.123461	0.207645
1129.281041	0.186841
1129.438602	0.185229
1129.596145	0.182513
1129.753670	0.181923
1129.911176	0.185867
1130.068665	0.174549
1130.226135	0.174031
1130.383587	0.178729
1130.541020	0.180429
1130.698436	0.192072
1130.855833	0.206793
1131.013212	0.208495
1131.170573	0.198070
1131.327915	0.206036
1131.485239	0.214461
1131.642545	0.210498
1131.799833	0.195737
1131.957103	0.195050
1132.114354	0.191269
1132.271588	0.180502
1132.428803	0.181661
1132.585999	0.181628
1132.743178	0.177558
1132.900338	0.183451
1133.057480	0.186468
1133.214604	0.195703
1133.371710	0.202287
1133.528797	0.197495
1133.685866	0.201491
1133.842917	0.194798
1133.999950	0.195221
1134.156964	0.190022
1134.313960	0.188976
1134.470938	0.183869
1134.627898	0.187821
1134.784840	0.181767
1134.941763	0.192527
1135.098668	0.186877
1135.255555	0.195192
1135.412424	0.195866
1135.569274	0.199016
1135.726107	0.197218
1135.882921	0.195035
1136.039716	0.194143
1136.196494	0.193245
1136.353253	0.194640
1136.509995	0.205215
1136.666717	0.198269
1136.823422	0.221461
1136.980109	0.225052
1137.136777	0.218855
1137.293427	0.219778
1137.450059	0.215014
1137.606672	0.226207
1137.763267	0.228834
1137.919844	0.232021
1138.076403	0.231845
1138.232944	0.210811
1138.389466	0.200851
1138.545971	0.199968
1138.702457	0.205863
1138.858924	0.202246
1139.015374	0.193482
1139.171805	0.191617
1139.328218	0.185144
1139.484613	0.189587
1139.640990	0.195834
1139.797348	0.198827
1139.953688	0.201688
1140.110010	0.210993
1140.266314	0.217322
1140.422600	0.221489
1140.578867	0.223036
1140.735116	0.217887
1140.891347	0.223692
1141.047559	0.209031
1141.203754	0.204845
1141.359930	0.206347
1141.516088	0.184105
1141.672228	0.175311
1141.828349	0.182266
1141.984452	0.175346
1142.140537	0.174494
1142.296604	0.162779
1142.452653	0.170098
1142.608683	0.182263
1142.764695	0.184779
1142.920689	0.189688
1143.076665	0.200411
1143.232622	0.190659
1143.388562	0.192925
1143.544483	0.193290
1143.700385	0.186821
1143.856270	0.199743
1144.012136	0.202263
1144.167985	0.198042
1144.323814	0.196586
1144.479626	0.196191
1144.635420	0.186660
1144.791195	0.185318
1144.946952	0.177900
1145.102691	0.179473
1145.258411	0.169061
1145.414113	0.160410
1145.569798	0.165058
1145.725463	0.179435
1145.881111	0.179892
1146.036741	0.183494
1146.192352	0.179164
1146.347945	0.182319
1146.503519	0.200903
1146.659076	0.203609
1146.814614	0.209620
1146.970134	0.215265
1147.125636	0.202300
1147.281120	0.218450
1147.436585	0.236518
1147.592032	0.244256
1147.747461	0.246950
1147.902872	0.215798
1148.058265	0.222236
1148.213639	0.214683
1148.368995	0.214708
1148.524333	0.222532
1148.679653	0.207179
1148.834954	0.199340
1148.990237	0.197810
1149.145502	0.206098
1149.300749	0.221475
1149.455977	0.221420
1149.611188	0.227398
1149.766380	0.214530
1149.921553	0.218982
1150.076709	0.196025
1150.231846	0.202217
1150.386966	0.199858
1150.542066	0.193773
1150.697149	0.195113
1150.852214	0.192236
1151.007260	0.197943
1151.162288	0.204418
1151.317298	0.203995
1151.472289	0.234298
1151.627263	0.240705
1151.782218	0.246787
1151.937155	0.254260
1152.092073	0.261575
1152.246974	0.247234
1152.401856	0.254923
1152.556720	0.273673
1152.711566	0.274643
1152.866393	0.261062
1153.021203	0.229183
1153.175994	0.225590
1153.330767	0.221142
1153.485521	0.227647
1153.640258	0.227429
1153.794976	0.214059
1153.949676	0.186885
1154.104358	0.167473
1154.259021	0.155700
1154.413667	0.165878
1154.568294	0.174584
1154.722903	0.177013
1154.877493	0.184044
1155.032066	0.188168
1155.186620	0.172098
1155.341156	0.185586
1155.495674	0.202794
1155.650173	0.220901
1155.804654	0.226355
1155.959118	0.225921
1156.113562	0.222306
1156.267989	0.198150
1156.422397	0.205607
1156.576788	0.213857
1156.731160	0.195299
1156.885513	0.183161
1157.039849	0.180216
1157.194166	0.186232
1157.348465	0.169200
1157.502746	0.174923
1157.657009	0.186288
1157.811253	0.179275
1157.965479	0.197177
1158.119687	0.216280
1158.273877	0.208499
1158.428048	0.201954
1158.582201	0.183812
1158.736337	0.176535
1158.890453	0.183799
1159.044552	0.176539
1159.198632	0.181137
1159.352694	0.161879
1159.506738	0.141713
1159.660764	0.170086
1159.814771	0.172906
1159.968761	0.175375
1160.122732	0.194323
1160.276685	0.185806
1160.430619	0.180532
1160.584535	0.156164
1160.738434	0.167358
1160.892313	0.177643
1161.046175	0.153211
1161.200019	0.164374
1161.353844	0.170506
1161.507651	0.171900
1161.661440	0.183915
1161.815210	0.189753
1161.968962	0.224288
1162.122697	0.228052
1162.276412	0.236664
1162.430110	0.236599
1162.583789	0.227613
1162.737451	0.215034
1162.891094	0.199130
1163.044718	0.184946
1163.198325	0.190119
1163.351913	0.173873
1163.505483	0.178573
1163.659035	0.182503
1163.812569	0.191422
1163.966084	0.185222
1164.119581	0.190069
1164.273060	0.192507
1164.426521	0.187348
1164.579964	0.165668
1164.733388	0.178783
1164.886794	0.179439
1165.040182	0.160412
1165.193551	0.173441
1165.346903	0.188999
1165.500236	0.197789
1165.653551	0.201506
1165.806848	0.206592
1165.960126	0.221480
1166.113386	0.230991
1166.266628	0.203379
1166.419852	0.218535
1166.573058	0.205880
1166.726245	0.188724
1166.879414	0.184136
1167.032565	0.188259
1167.185698	0.200689
1167.338812	0.179083
1167.491909	0.156776
1167.644987	0.150358
1167.798046	0.136787
1167.951088	0.150838
1168.104111	0.148064
1168.257117	0.161163
1168.410103	0.155950
1168.563072	0.140615
1168.716023	0.150319
1168.868955	0.160144
1169.021869	0.170130
1169.174765	0.171793
1169.327642	0.156754
1169.480501	0.171751
1169.633343	0.169272
1169.786165	0.189145
1169.938970	0.170708
1170.091757	0.181246
1170.244525	0.179544
1170.397275	0.212832
1170.550007	0.242384
1170.702720	0.239222
1170.855415	0.257049
1171.008092	0.238067
1171.160751	0.216297
1171.313392	0.229943
1171.466014	0.405848
1171.618619	0.113135
1171.771205	0.113135
1171.923772	0.113135
