sample name	sample
index	775
start time	 03-31-2021  01:23:03 PM
880	0.457458
Peak Time (s)	90.537
Peak Height 	0.4575
calc peak height	90,93
Baseline Time (s)	10.534
Baseline Value 	-0.003169
subtract baseline	10,4
Abs	0.320714
Peak Time (s)	90.537
Peak Height 	0.3207
calc peak height	90,93
Baseline Time (s)	11.536
Baseline Value 	-9.3727E-4
subtract baseline	10,3
PK_550	0.177625
Peak Time (s)	90.537
Peak Height 	0.1776
calc peak height	90,93
Baseline Time (s)	10.034
Baseline Value 	-3.9263E-5
subtract baseline	10,2
PK_880	0.302675
Peak Time (s)	90.037
Peak Height 	0.3027
calc peak height	90,93
Baseline Time (s)	9.037
Baseline Value 	6.7854E-4
subtract baseline	10,1


Time (s)	A880-A510	A880-A775	A880-A975	A880	I510	I775	I975	I880	
0.034000	0.000467	0.000549	0.004020	0.002069	6721.464053	40293.872349	4061.327977	22050.753666
0.537500	0.000148	0.000929	0.002803	0.004313	6699.907046	40134.441895	4053.135444	21952.793451
1.035000	-0.001855	-0.000350	0.001781	0.002892	6695.033001	40146.608297	4054.078587	22014.765594
1.537500	-0.001435	0.000511	0.003223	0.002002	6706.019415	40296.344987	4059.594292	22053.664146
2.038000	-0.000436	-0.000044	0.000028	0.001081	6722.178746	40327.722806	4054.212321	22093.994478
2.535500	0.002330	0.000841	-0.001293	0.001398	6742.901441	40376.439026	4050.358244	22080.127219
3.036000	-0.001543	0.000818	-0.000547	0.004021	6688.193982	40149.894990	4045.953515	21965.508535
3.536000	-0.000759	0.000010	-0.001108	-0.000291	6731.044401	40450.206175	4054.771458	22154.276658
4.036500	-0.000364	0.000413	0.002163	0.000262	6729.706717	40437.300425	4061.207239	22129.970307
4.539500	0.001257	0.000026	0.000296	0.000385	6742.393473	40393.468194	4056.491097	22124.537445
5.037500	0.000190	0.000293	0.002771	0.000165	6735.214129	40435.370790	4062.885323	22134.230295
5.535000	-0.000297	-0.000335	-0.001230	-0.000262	6734.704233	40417.991979	4054.415856	22152.988517
6.034500	-0.001118	-0.000054	-0.000058	0.000186	6723.976275	40403.680719	4056.124443	22133.283297
6.534500	0.000730	0.000928	0.007570	0.000542	6736.598751	40457.492360	4073.458503	22117.670458
7.035500	-0.000185	0.000001	0.003691	0.000248	6731.335318	40403.018660	4064.876113	22130.545329
7.536000	0.000419	-0.000322	0.000687	-0.000071	6739.153662	40402.739055	4058.494796	22144.585915
8.036500	0.001739	0.000584	-0.000764	0.000769	6743.226598	40408.429703	4053.082099	22107.705227
8.536500	-0.000023	-0.000410	-0.001917	-0.000109	6735.729656	40398.460253	4052.434534	22146.262758
9.036500	0.000000	-0.000262	0.001634	-0.000177	6736.497019	40416.936203	4060.993565	22149.229337
9.537000	0.001817	0.000436	0.000111	0.000945	6742.389965	40380.505827	4054.728630	22099.948998
10.034500	-0.000505	0.000000	-0.000623	0.000343	6727.828108	40394.816922	4054.419454	22126.390052
10.534500	-0.000310	0.000375	-0.000010	0.000000	6732.377095	40456.523377	4056.676816	22141.465049
11.038000	0.000499	0.000402	0.002172	0.000209	6737.454160	40440.834843	4061.353298	22132.260228
11.535500	0.001482	-0.000103	0.000000	-0.000332	6750.392010	40444.020553	4057.487343	22156.072441
12.036000	-0.000084	-0.000177	0.002082	0.000302	6731.729252	40383.137383	4060.919632	22128.185140
12.536000	0.000219	-0.000046	0.001979	0.000752	6730.495226	40355.789872	4059.608493	22108.442052
13.036000	0.001112	0.000910	0.004930	0.000634	6739.051979	40448.071461	4066.911452	22113.616403
13.536500	0.001172	0.000734	0.001057	0.001118	6735.462357	40391.302407	4056.557662	22092.382158
14.037000	-0.002115	0.000102	0.002452	0.002546	6695.748337	40214.801841	4056.478840	22029.885501
14.534500	-0.003656	-0.001185	0.000764	0.001713	6689.825598	40175.942736	4054.460026	22066.316449
15.040000	0.000785	0.000787	-0.000816	0.001036	6732.873700	40402.905664	4052.330322	22095.977933
15.535000	0.000806	-0.000108	0.003216	0.000199	6740.151515	40397.957496	4063.863324	22132.738627
16.035000	0.000860	-0.000071	0.005454	0.000250	6740.176071	40396.756078	4069.084587	22130.491094
16.535500	-0.000633	0.000483	-0.001318	0.000605	6724.531132	40413.814471	4052.161730	22114.876207
17.036000	-0.001473	-0.000888	0.002950	0.002817	6698.863490	40107.132068	4057.017322	22018.039029
17.535500	0.001782	-0.000230	0.004646	0.001070	6741.034197	40312.723559	4065.194895	22094.495621
18.036000	0.000355	0.000171	0.001956	0.001407	6726.107459	40318.167672	4058.001106	22079.713160
18.536500	-0.001051	0.000639	0.006141	0.001481	6713.624364	40351.978010	4067.781935	22076.453289
19.037000	-0.002899	0.000304	0.003187	0.004107	6676.160158	40098.803327	4054.528779	21961.785907
19.537000	0.001508	-0.000496	0.000571	0.001108	6738.389709	40286.642451	4055.433603	22092.829877
20.038000	0.000820	0.000301	0.001033	0.002011	6724.932279	40277.595108	4054.390603	22053.273611
20.537500	0.000786	0.000398	0.000720	0.002017	6724.585975	40285.310148	4053.638000	22052.985527
21.035000	-0.000974	0.000484	-0.002088	0.001610	6713.189026	40327.624789	4047.991488	22070.812089
21.536000	0.000195	-0.000320	-0.001194	0.001063	6727.660564	40305.605997	4051.377196	22094.801272
22.039000	-0.000376	0.001002	-0.000837	0.002256	6712.782296	40316.605514	4049.412399	22042.546404
22.536000	0.000410	0.000226	0.001644	0.001632	6724.674169	40303.646516	4056.731056	22069.865243
23.037000	0.002291	-0.000290	0.002409	0.002097	6736.650729	40219.658511	4057.441589	22049.527276
23.536500	0.000241	0.000254	0.003526	0.001506	6724.308349	40316.880596	4061.489734	22075.393400
24.037000	-0.000042	-0.000167	0.002991	0.001255	6724.039419	40302.285117	4060.816848	22086.385403
24.535000	0.000662	0.000303	0.004445	0.001998	6723.706851	40278.908497	4062.505605	22053.848541
25.035000	0.002396	0.000545	-0.001290	0.001830	6739.793057	40314.013803	4049.348088	22061.184906
25.535500	0.001547	0.000421	0.001852	0.001810	6732.774784	40305.071435	4056.802218	22062.077127
26.035500	0.000736	0.000038	-0.003512	0.001596	6727.733244	40290.601330	4044.691367	22071.446279
26.535500	0.001852	0.000626	0.002027	0.001778	6735.635286	40325.447192	4057.290728	22063.487217
27.036500	0.001294	-0.000119	0.005351	-0.001063	6755.013874	40505.591400	4071.983954	22188.249808
27.535500	0.002323	0.000483	-0.001990	-0.000346	6757.666811	40495.679207	4052.819658	22156.682474
28.036500	-0.000730	0.000200	0.006715	0.000683	6723.059896	40382.790359	4071.066959	22111.455740
28.537000	-0.000721	0.000588	-0.000695	0.000780	6722.316349	40407.847130	4053.220566	22107.224300
29.037000	-0.001257	0.000400	0.005543	0.000617	6719.169277	40405.583070	4068.416814	22114.343421
29.535000	0.000966	0.000680	0.002776	0.000809	6736.330216	40413.253761	4061.363816	22105.947617
30.038000	0.000172	0.000178	-0.000205	0.001000	6728.002273	40353.699763	4053.856340	22097.573350
30.535500	-0.000684	0.000399	0.000522	0.002922	6704.592005	40208.000084	4051.039392	22013.440724
31.035500	-0.001824	0.000392	0.007211	0.002795	6696.100916	40218.278856	4067.198612	22018.993635
31.536000	0.000171	0.000253	-0.000566	0.000404	6733.030127	40411.285894	4054.409470	22123.699849
32.036000	0.000918	0.001007	0.002448	0.001232	6732.343547	40404.928152	4059.582569	22087.386155
32.538000	0.001150	0.000331	-0.001212	0.000580	6739.827544	40402.870251	4052.472473	22115.990156
33.036500	0.003342	0.000892	0.002228	0.001605	6749.737891	40363.045936	4058.176462	22071.038628
33.537000	0.003403	0.000271	0.002582	-0.001533	6777.035270	40579.722639	4066.479438	22208.978280
34.037500	-0.000639	-0.000385	-0.004499	0.002078	6712.075953	40213.143260	4041.263521	22050.352873
34.538000	-0.000228	-0.000188	-0.001692	0.001628	6719.320121	40268.471483	4048.879787	22070.040069
35.035000	-0.001810	-0.000097	0.002537	0.001344	6708.398037	40300.663047	4059.526745	22082.482863
35.535500	-0.000644	0.000658	0.004731	0.002568	6707.911166	40260.455709	4061.828880	22028.912299
36.036000	-0.000637	-0.000554	0.000104	0.001935	6713.286015	40210.908277	4052.380586	22056.587625
36.535500	0.000000	-0.000038	0.006544	0.001857	6719.317354	40261.775507	4067.846401	22060.015341
37.036500	-0.000474	-0.000034	0.000704	0.001985	6714.245231	40251.181900	4053.676920	22054.423922
37.537000	-0.001332	0.000326	0.005222	0.002341	6704.029342	40251.439458	4063.537622	22038.814664
38.038000	-0.000287	0.000288	0.001114	0.002109	6714.773259	40268.049770	4054.350564	22048.988777
38.537000	0.000734	-0.000806	-0.000751	0.001810	6725.907009	40200.116311	4050.664563	22062.086995
39.035000	-0.000396	-0.000987	0.005203	0.001558	6718.495494	40206.116409	4065.357858	22073.089615
39.535000	-0.000653	0.000710	0.004373	0.002063	6712.079214	40308.165427	4062.179145	22050.997589
40.035500	0.000328	0.000046	0.002317	0.002283	6718.482401	40232.486368	4056.780804	22041.363725
40.535500	-0.000866	0.000157	0.004125	0.002001	6710.808280	40266.134382	4061.739403	22053.728730
41.036000	0.000242	0.000480	-0.000297	0.003236	6709.741848	40188.187856	4048.381500	21999.767393
41.536000	-0.002106	0.000075	0.007103	0.002204	6698.695946	40241.731960	4068.353019	22044.837045
42.036500	-0.001231	0.000104	-0.001504	0.001962	6708.068038	40264.900718	4048.535753	22055.411353
42.536500	-0.000563	-0.000154	-0.004503	0.001739	6715.562707	40261.916169	4042.045732	22065.186773
43.037000	-0.001733	-0.000268	0.004612	0.001510	6707.650981	40271.785258	4064.064983	22075.213999
43.537000	-0.000291	0.000566	0.002521	0.001003	6724.062838	40386.744037	4060.297836	22097.433566
44.040000	0.002443	0.000474	0.005840	0.000817	6748.795178	40394.760727	4068.649268	22105.573777
44.535000	0.002325	0.000479	-0.003426	0.000862	6747.411890	40391.378982	4046.611013	22103.621782
45.035000	0.000725	0.000315	0.005111	0.000793	6734.423396	40383.273175	4066.965176	22106.640403
45.535500	0.001648	0.000731	0.000488	0.001069	6739.908178	40395.287232	4055.329770	22094.544380
46.036000	0.002676	0.001103	0.003896	0.001077	6748.562662	40426.517596	4063.390445	22094.177759
46.536500	0.000799	0.000502	0.000898	0.001286	6730.882144	40356.975525	4055.784695	22085.021819
47.036500	0.000707	0.000998	0.004731	0.002980	6715.806439	40254.310737	4060.850656	22010.931518
47.537000	0.000179	-0.000490	-0.003219	0.002431	6715.980555	40173.946177	4043.424330	22034.883308
48.037500	-0.001209	-0.000264	-0.001913	0.000489	6720.649110	40359.581977	4051.035261	22119.970966
48.537500	0.001932	0.000146	0.002178	0.001045	6742.523664	40347.077981	4059.385575	22095.593294
49.035000	0.001559	-0.000565	0.003077	0.000660	6742.623420	40319.094265	4062.434598	22112.475776
49.535500	0.001233	0.000187	0.001441	-0.001756	6760.401223	40591.793313	4064.292549	22218.829534
50.035500	0.001367	-0.000414	0.003155	-0.000043	6746.957529	40392.398301	4064.291654	22143.336721
50.536000	0.000804	-0.002050	0.001790	-0.001904	6757.999182	40411.758713	4065.474240	22225.339767
51.036000	-0.041261	-0.011109	0.023183	0.240132	4981.550504	24022.883169	3652.840420	14032.965305
51.536500	-0.042583	-0.011560	-0.004384	-0.000621	6396.356340	39495.545502	4047.840558	22168.789869
52.036500	-0.035897	-0.021778	-0.008524	-0.168319	8045.868529	55409.392535	4513.523085	31178.882072
52.537000	-0.015237	-0.064831	0.008927	-0.282062	9855.008457	64658.529366	5036.882860	39600.504038
53.034500	0.002143	-0.036654	0.016955	-0.240646	9489.040646	62809.645308	4888.345535	36275.962064
53.537000	0.020037	-0.013647	0.029804	-0.197397	9124.337642	60089.908734	4762.684947	33126.685267
54.035000	0.034512	0.006958	0.047263	-0.118794	8291.587532	52963.774563	4535.080577	28147.447003
54.535500	0.047196	0.019913	0.063047	-0.063255	7799.808014	48305.256356	4403.383087	25134.728463
55.035500	0.071373	0.034150	0.085333	-0.029783	7699.395514	46346.081111	4368.450030	23496.582258
55.535500	0.097356	0.047760	0.107075	-0.009192	7757.393823	45656.295058	4372.006137	22549.847171
56.036500	0.124766	0.061433	0.121198	0.032793	7602.293627	42969.702040	4288.585317	20753.042144
56.536500	0.135760	0.069873	0.133235	0.082737	7212.474429	39334.535678	4183.351398	18829.952379
57.037000	0.138396	0.074248	0.148867	0.126483	6837.260863	36193.021050	4111.029070	17317.975523
57.537000	0.153342	0.081635	0.154505	0.123358	6997.834972	37004.114707	4133.072369	17421.008172
58.034500	0.168089	0.089830	0.165173	0.120147	7164.151480	37906.698181	4168.906549	17527.628415
58.535000	0.178286	0.095212	0.184116	0.178865	6730.095462	33882.465389	4069.194049	15696.855379
59.035500	0.185928	0.102175	0.191261	0.211084	6528.065883	32142.602524	4010.872318	14792.644641
59.535500	0.192934	0.106335	0.203037	0.226367	6462.560997	31407.905760	4002.979718	14386.629682
60.035500	0.199244	0.112416	0.212301	0.246006	6359.652135	30537.321185	3980.000489	13885.424066
60.536000	0.205140	0.115844	0.226554	0.258818	6307.499488	29950.578219	3983.161247	13570.481216
61.036500	0.206986	0.119460	0.224562	0.276452	6191.491407	29097.335249	3941.027946	13151.895080
61.539500	0.218502	0.123829	0.236254	0.283499	6223.902462	28937.420990	3950.827263	12989.311334
62.037000	0.229190	0.130923	0.239290	0.312617	6092.357054	27659.049623	3897.127377	12344.796765
62.537000	0.229473	0.132152	0.240682	0.302548	6165.555428	28306.713205	3920.328096	12562.794984
63.037500	0.235692	0.135547	0.241723	0.307313	6175.979277	28227.264930	3912.722278	12459.001986
63.540000	0.239271	0.136802	0.244787	0.310422	6179.358914	28120.222278	3912.631062	12391.897010
64.035500	0.243747	0.140280	0.247847	0.315533	6174.791202	28026.228055	3908.471423	12282.604673
64.536000	0.246747	0.140768	0.245242	0.319738	6166.161028	27813.706355	3894.798044	12193.665403
65.038500	0.248646	0.143062	0.252017	0.327576	6123.950201	27500.032569	3892.682317	12030.132551
65.536000	0.254861	0.146210	0.260097	0.332390	6133.851062	27406.575855	3899.197436	11931.150620
66.036000	0.256306	0.146726	0.260886	0.338302	6102.374963	27106.270805	3888.998863	11811.074740
66.536500	0.258262	0.150000	0.262715	0.345953	6062.716923	26865.397620	3877.555872	11658.100158
67.037000	0.259521	0.150486	0.264776	0.354413	6013.304024	26432.713378	3865.151405	11492.040685
67.540000	0.260102	0.150541	0.264656	0.357107	5998.962332	26291.339743	3859.754562	11439.847667
68.035000	0.266621	0.153800	0.269610	0.364334	5994.174109	26080.281342	3855.420909	11301.400884
68.538000	0.264966	0.154556	0.269654	0.367706	5960.386238	25942.207602	3849.117588	11237.595663
69.035500	0.266745	0.156435	0.276264	0.373289	5935.070484	25748.088556	3851.058269	11133.019487
69.535500	0.271815	0.158340	0.278749	0.377667	5939.663642	25619.407370	3847.484810	11051.960948
70.036000	0.272584	0.156940	0.277192	0.379841	5930.358350	25434.710450	3840.488084	11012.007349
70.536000	0.271870	0.158703	0.287572	0.383970	5898.501065	25313.310030	3852.244607	10936.673604
71.036500	0.275490	0.160649	0.276620	0.389442	5886.414522	25133.570177	3821.714265	10837.937673
71.539500	0.279751	0.161211	0.289981	0.392015	5897.423763	25031.662883	3841.636260	10791.927486
72.034500	0.280730	0.160044	0.285270	0.393093	5896.783479	24918.558244	3830.884332	10772.743900
72.537500	0.281175	0.161700	0.290867	0.397240	5872.681098	24793.630766	3833.562812	10699.348250
73.035000	0.281905	0.162899	0.289947	0.401139	5852.225059	24659.169283	3824.693263	10630.999768
73.535500	0.284184	0.164429	0.294232	0.405391	5839.558165	24524.320365	3824.752771	10557.140186
74.035500	0.286269	0.164366	0.296118	0.408074	5835.729801	24389.246830	3823.295418	10510.920368
74.536000	0.287199	0.165993	0.296822	0.412647	5812.529321	24245.182917	3816.254522	10432.771140
75.038500	0.286885	0.167471	0.297917	0.416708	5784.914888	24119.712930	3810.900575	10364.064095
75.536000	0.288387	0.168008	0.293996	0.418921	5780.457010	24038.705646	3799.942943	10326.896444
76.036500	0.292028	0.169439	0.298083	0.423077	5777.232812	23907.650426	3799.819951	10257.596031
76.537000	0.291886	0.168439	0.300705	0.424810	5765.514708	23777.040064	3801.398643	10228.897820
77.037000	0.290736	0.169265	0.303503	0.429078	5731.946606	23613.688652	3798.791308	10158.698778
77.535000	0.294454	0.170077	0.306027	0.431710	5738.641501	23527.867089	3798.598668	10115.751342
78.034500	0.291663	0.170432	0.303552	0.433970	5707.646788	23438.370627	3790.260680	10079.080741
78.535000	0.293881	0.171746	0.299141	0.436928	5703.137427	23361.438128	3777.461622	10031.368531
79.035000	0.291919	0.172485	0.304615	0.439370	5676.450786	23282.146116	3782.703026	9992.236314
79.536000	0.293999	0.172324	0.299693	0.446162	5648.193993	22961.388697	3762.660879	9884.525256
80.036000	0.298022	0.174415	0.308428	0.444615	5681.628050	23128.558965	3780.222590	9908.908794
80.537000	0.296822	0.173506	0.315384	0.444880	5672.795549	23074.441169	3791.877758	9904.724456
81.037000	0.295615	0.173937	0.307098	0.447332	5650.856812	22981.654736	3773.259380	9866.132907
81.540000	0.293512	0.173745	0.309259	0.451475	5613.833379	22784.039339	3769.874361	9801.431280
82.037500	0.296935	0.173963	0.307131	0.448625	5651.018230	22923.698435	3771.105627	9845.878869
82.538000	0.294977	0.174890	0.307101	0.450441	5628.581703	22883.124700	3767.961412	9817.525680
83.035000	0.294948	0.173631	0.306184	0.450206	5629.796707	22836.477277	3766.801961	9821.178462
83.535500	0.296624	0.173487	0.315436	0.451063	5634.654200	22791.002945	3781.190297	9807.829431
84.035500	0.297616	0.175464	0.310503	0.453458	5626.341129	22772.066078	3768.614382	9770.671221
84.536500	0.298894	0.174374	0.311493	0.452797	5637.837092	22752.628359	3771.430279	9780.906908
85.036000	0.301170	0.175916	0.312132	0.455001	5638.263191	22722.664454	3768.761646	9746.839213
85.537000	0.297158	0.175728	0.306411	0.455478	5611.729568	22692.634923	3758.286808	9739.491207
86.037000	0.299587	0.176717	0.309649	0.456750	5618.545710	22679.889445	3761.593849	9719.931430
86.537500	0.300638	0.175668	0.315486	0.456567	5625.829850	22640.814146	3771.811805	9722.740719
87.034500	0.301541	0.175930	0.313552	0.456851	5629.495266	22639.856589	3768.030077	9718.380563
87.535000	0.300927	0.174433	0.311759	0.455970	5631.073520	22612.105731	3766.480546	9731.913836
88.035000	0.299903	0.176577	0.305633	0.457607	5615.356197	22634.935540	3753.425881	9706.777503
88.535500	0.302425	0.177296	0.311644	0.458998	5622.029500	22604.744142	3761.167998	9685.503399
89.035500	0.300408	0.176398	0.313909	0.457498	5618.972451	22631.762354	3767.537816	9708.451641
89.536500	0.302934	0.177905	0.317638	0.458622	5627.260670	22649.064077	3771.977091	9691.249671
90.036500	0.302675	0.176844	0.313204	0.456728	5636.943096	22686.576377	3767.647880	9720.265233
90.536500	0.301071	0.177625	0.320714	0.457458	5623.123255	22688.866402	3779.260891	9709.064141
91.037000	0.299164	0.175451	0.311097	0.454940	5626.735606	22704.446152	3767.106851	9747.784377
91.537500	0.299742	0.175383	0.311549	0.453919	5636.212394	22747.538247	3769.611249	9763.545753
92.035000	0.301789	0.176543	0.316294	0.454116	5647.217040	22791.150382	3777.401667	9760.495818
92.535000	0.300009	0.175232	0.312712	0.453350	5641.178141	22766.478300	3772.568763	9772.347437
93.035500	0.300935	0.176639	0.313119	0.452800	5649.971512	22855.348390	3774.207927	9780.859800
93.535500	0.297547	0.173508	0.312335	0.454799	5618.019955	22623.194989	3769.452038	9749.955175
94.036000	0.300165	0.177009	0.316415	0.451975	5650.303191	22909.843954	3781.308711	9793.665695
94.536500	0.299967	0.176382	0.313722	0.450103	5660.311712	22966.728456	3779.888402	9822.793882
95.036500	0.298099	0.175709	0.309144	0.448852	5656.619172	22993.202493	3774.161123	9842.322704
95.537000	0.295651	0.174677	0.308333	0.452372	5621.153834	22785.644453	3766.772732	9787.498536
96.040000	0.301546	0.176394	0.319465	0.448002	5682.457569	23063.685605	3793.563055	9855.632752
