sample name	sample
index	1431
start time	 05-10-2021  12:34:16 PM
880	0.344273
Peak Time (s)	92.535
Peak Height 	0.3443
calc peak height	90,93
Baseline Time (s)	8.536
Baseline Value 	-0.00737
subtract baseline	10,4
Abs	0.212188
Peak Time (s)	91.535
Peak Height 	0.2122
calc peak height	90,93
Baseline Time (s)	11.035
Baseline Value 	0.003535
subtract baseline	10,3
PK_550	0.113227
Peak Time (s)	90.537
Peak Height 	0.1132
calc peak height	90,93
Baseline Time (s)	9.037
Baseline Value 	1.3264E-4
subtract baseline	10,2
PK_880	0.193896
Peak Time (s)	92.035
Peak Height 	0.1939
calc peak height	90,93
Baseline Time (s)	9.537
Baseline Value 	0.003038
subtract baseline	10,1


Time (s)	A880-A510	A880-A775	A880-A975	A880	I510	I775	I975	I880	
0.034000	-0.000316	-0.000144	-0.002906	0.002512	6481.655190	43942.603243	3933.811917	22604.156600
0.537500	-0.001897	-0.000600	-0.003038	0.004246	6454.037545	43736.390507	3929.015902	22525.476931
1.043500	-0.002211	0.000191	-0.001399	0.006323	6434.259194	43615.766734	3927.895975	22431.669618
1.535500	-0.000580	0.000226	-0.004733	0.001792	6485.469918	44045.649625	3930.964535	22636.925386
2.035000	-0.000678	0.000885	-0.001485	0.001554	6486.644703	44130.701390	3939.957009	22647.774085
2.536000	-0.001048	0.000481	-0.002258	0.001458	6484.347358	44101.490859	3938.206712	22652.158697
3.036000	0.001233	-0.000046	-0.002774	0.000338	6512.920513	44157.695432	3939.767830	22703.275337
3.536500	-0.000880	0.000513	-0.002190	0.000869	6490.694615	44160.369523	3939.906521	22679.026802
4.036500	0.000670	0.001031	-0.000002	0.000753	6504.676515	44220.593930	3945.888271	22684.313174
4.537000	-0.001906	-0.000157	-0.001533	0.000523	6484.992583	44129.571053	3942.504147	22694.789866
5.037000	-0.001681	0.000803	-0.003225	0.000925	6483.511120	44182.577941	3937.084616	22676.452775
5.537500	-0.001503	0.000356	-0.000452	0.000725	6486.677658	44159.210567	3944.791789	22685.605889
6.035000	-0.002404	0.000476	0.000710	0.000380	6482.015921	44203.207337	3948.714910	22701.318476
6.535500	-0.000891	-0.000494	-0.000369	-0.000252	6500.002969	44171.147463	3947.550054	22730.234681
7.035000	0.001140	0.000351	0.001163	0.000938	6507.079594	44138.433239	3948.442020	22675.879586
7.536000	-0.000061	0.000406	-0.001936	0.000702	6498.964354	44166.054256	3940.996841	22686.654199
8.036500	0.000256	0.001635	0.001559	0.001071	6498.525607	44247.772928	3949.127765	22669.798756
8.536000	0.000628	-0.000120	0.000413	0.000000	6510.669513	44182.774067	3948.933473	22718.710189
9.037000	0.000646	0.000000	-0.001934	-0.000026	6511.040570	44196.674746	3942.892283	22719.922021
9.537500	0.000000	0.000431	-0.002299	0.000476	6501.374943	44189.901077	3940.642220	22696.962078
10.037500	0.000336	0.001576	0.001597	0.001477	6495.785662	44203.552567	3948.168321	22651.275138
10.535000	-0.001301	-0.000233	-0.000051	-0.000591	6499.410908	44228.211228	3949.265027	22745.765790
11.035000	-0.001901	-0.000017	0.000000	-0.000685	6495.155753	44257.647309	3949.643249	22750.071261
11.535500	-0.000412	0.000714	0.001090	0.000463	6498.021937	44218.024777	3949.490959	22697.558363
12.035500	-0.001264	0.000672	-0.004397	0.000510	6490.482751	44209.544058	3935.129889	22695.419360
12.536000	0.000367	0.000117	0.003672	0.000044	6508.090244	44201.081870	3957.354037	22716.683658
13.036500	-0.001196	0.000921	-0.002895	0.000388	6492.075828	44244.837195	3939.327243	22700.987255
13.536500	-0.001564	0.001011	-0.002603	0.001094	6483.071138	44186.252455	3938.253827	22668.732611
14.036500	-0.003208	0.000341	-0.002928	0.002484	6457.783101	43991.078622	3933.828442	22605.440234
14.537000	-0.001115	0.000494	-0.001652	0.002094	6478.470519	44042.405852	3938.127908	22623.170745
15.037500	0.000255	0.000362	0.002462	0.000350	6504.574486	44195.251127	3953.373731	22702.692799
15.534500	-0.001882	-0.000123	0.001148	0.001252	6479.102898	44063.755920	3947.583415	22661.555162
16.038000	0.000600	0.000590	0.000257	0.000259	6508.252402	44225.667252	3947.849453	22706.887241
16.535000	-0.000751	-0.000187	-0.000633	0.000244	6497.012325	44153.211952	3945.569335	22707.538603
17.036000	0.001030	0.000467	0.002342	-0.002918	6538.760589	44517.020669	3961.655516	22852.615009
17.536000	-0.000434	0.001462	0.003520	0.002203	6483.246488	44123.841660	3951.294961	22618.209820
18.036500	-0.000856	0.000652	-0.000546	0.001391	6486.518464	44123.989867	3942.813548	22655.195847
18.537000	-0.001081	0.000583	-0.000647	0.001619	6482.718509	44095.843242	3941.959142	22644.792881
19.037000	0.000740	0.001391	0.000022	0.002104	6493.920344	44126.473949	3942.440439	22622.743931
19.537500	-0.000521	0.000617	-0.002858	0.001928	6484.823161	44069.791962	3935.441613	22630.741501
20.035000	-0.002396	-0.000244	0.000851	0.001199	6475.252003	44057.357199	3946.949138	22663.971692
20.535000	-0.000826	0.000892	-0.001203	0.001677	6484.377003	44119.674095	3940.369864	22642.173494
21.035500	0.000965	-0.000082	0.000298	0.001400	6501.717788	44053.590564	3944.984652	22654.789609
21.535000	-0.000470	0.001485	-0.000900	0.002312	6482.037858	44115.644299	3939.508315	22613.251989
22.036000	-0.001310	0.000022	-0.005321	0.001295	6483.521100	44073.440511	3930.732305	22659.593153
22.536500	0.000201	0.001383	0.000478	0.002318	6487.606339	44105.445288	3943.067950	22612.997571
23.039500	-0.001910	0.000434	0.000036	0.001687	6475.235451	44075.372764	3943.556907	22641.725952
23.537000	-0.001095	0.000516	-0.003013	0.001851	6480.664649	44067.519003	3935.240419	22634.225499
24.037000	-0.002530	0.000691	0.002262	0.002045	6467.076485	44065.740303	3948.420537	22625.425862
24.535000	-0.002782	0.000694	-0.004038	0.001545	6469.139140	44113.426950	3933.387563	22648.176864
25.035000	-0.000369	0.000626	-0.000033	0.001816	6487.039822	44081.322343	3943.044126	22635.852200
25.535500	-0.001458	0.000824	0.001870	0.001967	6476.671014	44085.802856	3947.603176	22628.981302
26.035500	-0.001745	-0.000236	-0.000389	0.001225	6480.463606	44055.578682	3943.652926	22662.748251
26.536000	-0.000987	0.000721	-0.002802	0.002262	6478.135332	44048.098313	3934.724625	22615.545157
27.036000	0.000632	0.000907	0.001947	-0.000402	6514.093963	44318.685242	3953.998384	22737.105487
27.538500	-0.001366	0.000393	0.003339	0.001407	6482.112762	44097.958235	3952.902796	22654.464590
28.036500	-0.001462	0.000110	0.003736	0.000388	6489.837724	44167.744936	3956.620592	22700.970377
28.538500	-0.000228	0.001147	0.004717	0.002553	6482.045863	44060.821322	3953.511751	22602.300595
29.037500	0.002082	0.000214	0.001603	0.000618	6517.717629	44155.792238	3950.426131	22690.447727
29.535000	0.001291	0.000653	0.002790	0.000680	6510.523363	44191.590090	3953.370357	22687.622644
30.035000	-0.001003	0.000235	0.001955	0.000312	6494.333053	44186.921380	3952.147869	22704.463432
30.535000	-0.001693	-0.000044	-0.001088	0.003256	6463.961431	43881.906439	3936.582129	22570.368717
31.035500	-0.001069	0.000619	0.000496	0.002348	6476.735492	44030.273270	3943.036758	22611.643970
31.536000	-0.000441	0.000399	0.001890	0.000827	6494.727036	44153.524240	3950.629735	22680.937165
32.039500	-0.000133	-0.000083	-0.000571	0.000023	6504.064937	44184.143778	3946.306842	22717.674908
32.536500	-0.002327	0.000759	-0.001879	0.003039	6460.495526	43978.131398	3935.101263	22580.227792
33.036500	0.000967	0.000618	0.001267	0.001090	6504.339055	44149.292551	3948.314672	22668.916884
33.537500	0.003052	0.000754	-0.003036	-0.001237	6541.646685	44383.667056	3943.170647	22775.337815
34.035000	0.000019	0.000688	0.002449	0.002572	6483.959798	44015.598982	3947.534355	22601.447150
34.537500	-0.001842	0.000292	0.002635	0.002738	6467.033055	43962.435301	3947.586186	22593.890866
35.035500	0.000314	0.000820	0.003267	0.002353	6488.260359	44048.758541	3950.241909	22611.400168
35.535500	-0.001163	0.000355	0.001491	0.001982	6479.004377	44039.938855	3946.576117	22628.296489
36.036000	-0.001153	0.000748	-0.003416	0.002504	6474.737019	44027.728964	3932.520987	22604.551802
36.536000	-0.000180	0.001140	-0.000743	0.004036	6470.066487	43919.976555	3935.460772	22535.012247
37.036000	-0.000375	0.000074	-0.001835	0.002075	6484.813082	44004.472828	3937.701523	22624.029161
37.536500	-0.001087	0.000095	0.005302	0.002317	6476.837619	43983.555167	3955.664677	22613.021125
38.037000	-0.000005	0.001200	0.000559	0.003081	6479.492434	44015.822977	3941.294742	22578.300016
38.536500	0.000028	0.001012	0.003641	0.002936	6480.990696	44011.827752	3949.695389	22584.916519
39.037500	-0.000412	-0.000030	0.002174	0.002263	6482.934819	43976.939500	3947.622938	22615.492275
39.535000	-0.001640	0.000929	0.001574	0.002748	6468.633642	44021.701071	3944.797951	22593.446998
40.035500	-0.001501	0.001288	0.000533	0.003106	6466.813039	44021.808316	3941.163556	22577.179514
40.536000	0.000605	0.000997	-0.000786	0.003247	6483.212495	43980.992862	3937.385891	22570.795713
41.036000	0.001245	0.000892	0.001088	0.002628	6493.758087	44029.637834	3943.845720	22598.899893
41.536500	0.001038	0.000708	0.000355	0.002574	6492.467340	44017.286183	3942.081756	22601.336213
42.036500	-0.000448	0.000636	-0.002577	0.002509	6480.574973	44016.631961	3934.666993	22604.288564
42.537000	0.001852	0.000688	-0.000249	0.002763	6497.717483	43997.567542	3940.027861	22592.759291
43.037000	-0.001569	0.000343	0.002487	0.002295	6473.003424	44009.151902	3948.355022	22614.042964
43.537500	-0.001232	0.000486	-0.000897	0.001351	6483.704455	44112.072710	3942.007754	22657.036692
44.037000	0.000290	0.001099	0.000228	0.000435	6504.156491	44257.273423	3947.317221	22698.842027
44.535000	0.000798	0.001284	0.000775	0.001156	6502.363260	44206.305394	3946.861314	22665.916707
45.035500	0.001684	0.000785	-0.001496	0.000797	6512.855392	44193.018781	3941.892577	22682.312481
45.535500	-0.000398	0.000862	0.001215	0.003703	6471.026246	43925.154522	3941.386406	22550.101955
46.036000	0.000412	0.000995	0.003332	0.001032	6500.163744	44190.693032	3953.870055	22671.587595
46.536500	-0.002402	0.001245	-0.001386	0.005094	6442.831807	43830.192487	3931.080539	22487.131168
47.036500	0.001423	0.000233	0.002468	0.000557	6512.669468	44163.445827	3952.848711	22693.258819
47.537000	0.000595	0.001249	-0.004171	0.003690	6479.416839	43962.941445	3927.538720	22550.671531
48.037000	-0.001548	0.000231	-0.000745	0.000714	6486.393559	44148.344717	3944.056313	22686.092078
48.534500	-0.001670	0.000801	-0.000396	0.005643	6444.343805	43736.690051	3932.213842	22462.308604
49.037500	0.000455	0.000239	-0.001773	0.000586	6504.272057	44161.180265	3941.720370	22691.927633
49.538500	-0.000802	0.000365	-0.002194	0.002468	6477.960624	43994.902789	3935.762358	22606.160181
50.035500	0.001845	0.001290	-0.001549	-0.000985	6529.267546	44410.843930	3946.384906	22763.797804
50.536000	-0.003977	0.000875	-0.004369	0.010341	6386.849709	43304.748618	3910.136064	22251.417263
51.036500	0.006153	-0.003820	0.021022	0.074538	5972.881043	37383.683645	3816.547466	19586.543942
51.536000	0.001562	-0.020049	0.007192	0.089286	5836.885662	35012.539651	3752.781621	19028.035632
52.037000	-0.014539	-0.056648	-0.028356	-0.213638	8631.149687	62158.501799	4550.482374	35339.014129
52.536500	-0.021535	-0.108328	-0.037821	-0.289401	9622.929102	65535.000000	4836.663859	41529.565433
53.034500	-0.012957	-0.071262	-0.023632	-0.243006	9058.142026	64204.828549	4692.187451	37611.384408
53.534500	-0.000269	-0.031090	-0.003721	-0.152252	8036.830339	57469.281747	4409.690539	31057.729699
54.038000	-0.005517	-0.021992	-0.000979	-0.091639	7307.029607	51369.998081	4210.772382	27384.318772
54.535500	-0.016167	-0.023161	-0.018224	-0.133582	7640.008086	56137.120804	4292.435934	29871.118717
55.036000	-0.001159	-0.031652	-0.004468	-0.181118	8381.908603	61141.399534	4516.337554	32995.698657
55.536000	0.010966	-0.022292	0.014152	-0.146041	8097.175748	57795.038678	4453.083061	30657.297496
56.036500	0.017902	-0.009780	0.025413	-0.058033	7203.707689	49042.045975	4187.783616	25558.043874
56.537000	0.023697	0.000390	0.034698	0.007994	6639.951224	43478.094437	4019.680483	22356.490099
57.037000	0.039726	0.009934	0.048666	0.043297	6475.441089	41143.618932	3961.941695	20834.215318
57.537000	0.049153	0.015665	0.054291	0.036821	6610.650184	42232.671818	3994.343381	21104.271857
58.037000	0.063781	0.025277	0.073749	0.071001	6445.120604	40071.624256	3955.044379	19723.353194
58.538000	0.075896	0.034500	0.082749	0.109646	6232.091765	37639.318422	3879.838021	18287.452652
59.035500	0.092137	0.044134	0.096124	0.134045	6169.166346	36479.535743	3853.156558	17444.549393
59.535500	0.101833	0.051049	0.107619	0.153685	6094.036595	35511.078047	3833.870560	16799.604757
60.036000	0.111552	0.055811	0.123215	0.176989	5994.145057	34149.702014	3815.952110	16071.246845
60.536500	0.116785	0.061971	0.125263	0.202454	5851.051461	32792.783934	3763.426857	15318.787668
61.036500	0.129084	0.066689	0.143050	0.216037	5842.194304	32189.614678	3772.648033	14935.097201
61.536500	0.138352	0.071136	0.146333	0.229494	5813.472183	31589.078278	3750.480536	14566.631919
62.036000	0.142819	0.078787	0.160269	0.270183	5576.368185	29490.493988	3694.610372	13519.510134
62.537000	0.148611	0.083447	0.160114	0.261412	5669.327273	30324.421298	3712.229647	13737.004713
63.037500	0.151899	0.087337	0.159560	0.259637	5702.379007	30683.952458	3714.754545	13781.549429
63.537500	0.152744	0.089436	0.162072	0.256108	5731.248663	31045.789810	3727.352700	13870.670421
64.035500	0.158341	0.091866	0.162679	0.256483	5766.099408	31179.087979	3727.840160	13861.169757
64.535500	0.161269	0.093420	0.163693	0.258868	5769.740712	31125.088470	3724.962809	13800.903127
65.036000	0.160647	0.094329	0.167659	0.260886	5752.056835	31053.268624	3729.053472	13750.192665
65.536000	0.160255	0.094963	0.170365	0.262824	5736.528450	30968.968586	3730.672582	13701.699743
66.036500	0.163087	0.096888	0.173641	0.265505	5737.528625	30920.221751	3731.924815	13634.952094
66.536500	0.164115	0.098074	0.174888	0.268893	5721.882846	30778.704286	3727.419266	13551.214334
67.037000	0.166597	0.099812	0.180859	0.272803	5712.456158	30639.843663	3731.758324	13455.381903
67.537500	0.165585	0.100342	0.178286	0.274284	5696.080517	30579.279464	3723.243102	13419.310031
68.035000	0.171728	0.102426	0.180723	0.278718	5707.294259	30430.089312	3719.076544	13312.020250
68.535000	0.169111	0.103278	0.174364	0.286703	5638.392888	29982.220390	3689.711505	13121.567914
69.035500	0.172223	0.104597	0.184851	0.284434	5673.157169	30206.614110	3715.777163	13175.342030
69.536000	0.171009	0.104173	0.184648	0.287225	5647.242288	30005.501649	3709.590982	13109.249537
70.035500	0.175999	0.106729	0.185013	0.290941	5655.462174	29933.306470	3702.715527	13021.908656
70.536500	0.172546	0.107134	0.187487	0.300218	5574.429497	29387.446470	3688.923665	12807.101149
71.036500	0.178728	0.107578	0.192346	0.297295	5632.143460	29593.296050	3704.719313	12874.300220
71.537500	0.179346	0.106881	0.187386	0.300306	5616.854904	29366.683443	3688.542294	12805.089449
72.037500	0.178526	0.107575	0.188576	0.303085	5594.028347	29240.152571	3685.354338	12741.644802
72.534500	0.178083	0.107576	0.188023	0.310795	5543.006265	28777.460496	3668.957328	12567.749897
73.034500	0.183644	0.109639	0.199018	0.308622	5591.378374	29030.664970	3695.237056	12616.435272
73.535500	0.183488	0.109616	0.197601	0.309362	5585.728567	28984.844237	3690.876585	12599.822583
74.035500	0.183631	0.110945	0.198451	0.311787	5571.400462	28919.201901	3687.708545	12545.590760
74.536000	0.181337	0.110194	0.195918	0.316666	5526.828258	28584.596189	3672.944467	12437.371280
75.036500	0.185493	0.112719	0.200009	0.314056	5568.849158	28889.622978	3686.280422	12495.109961
75.536500	0.181667	0.110616	0.194154	0.314273	5543.662705	28751.414819	3674.187990	12490.300880
76.039500	0.186497	0.113206	0.196700	0.316664	5558.830063	28763.240533	3674.493328	12437.415556
76.537500	0.182109	0.110960	0.192836	0.321519	5501.793736	28344.405060	3657.416597	12330.931400
77.037500	0.186644	0.112614	0.192430	0.318034	5551.209748	28646.771892	3663.406541	12407.232688
77.534500	0.186877	0.112270	0.201566	0.318369	5550.579395	28606.688462	3680.771775	12399.886034
78.035500	0.187813	0.113141	0.199578	0.319437	5549.755854	28595.037103	3674.701821	12376.446608
78.535500	0.187971	0.113143	0.198617	0.319433	5550.763639	28595.356954	3672.809752	12376.538954
79.035500	0.187791	0.114051	0.201296	0.320554	5542.686098	28582.775888	3675.892067	12351.997616
79.536000	0.186463	0.113475	0.199376	0.320994	5531.751415	28522.880029	3671.228065	12342.386160
80.036000	0.191329	0.114336	0.199592	0.321586	5558.271846	28538.759746	3670.488011	12329.471406
80.538500	0.186045	0.112917	0.198464	0.323772	5512.088778	28327.111924	3663.987385	12281.920250
81.040000	0.189330	0.115639	0.200624	0.322357	5541.053346	28570.096164	3671.001842	12312.670983
81.537500	0.184811	0.114573	0.203494	0.321938	5515.769411	28531.962840	3677.505841	12321.794768
82.034500	0.186569	0.114076	0.198336	0.321303	5530.494612	28540.082692	3668.572583	12335.634776
82.534500	0.189760	0.114214	0.199491	0.323206	5538.451892	28436.235401	3667.103955	12294.193115
83.035500	0.187317	0.114272	0.203750	0.323884	5519.208782	28399.842561	3674.157780	12279.476650
83.535500	0.188046	0.114940	0.200244	0.325812	5511.848257	28326.109652	3663.477307	12237.742124
84.036000	0.185205	0.113248	0.200475	0.324610	5501.826494	28297.509727	3666.281189	12263.747581
84.536000	0.188040	0.113311	0.203030	0.330403	5483.825908	27965.130301	3659.959828	12139.121857
85.039000	0.189053	0.112735	0.202652	0.325566	5519.540116	28211.890094	3668.677690	12243.066699
85.536500	0.188556	0.112604	0.199517	0.327690	5503.479898	28080.961456	3658.404357	12197.273244
86.034000	0.186926	0.113225	0.204341	0.328171	5490.613246	28089.036593	3666.879316	12186.931883
86.537500	0.184604	0.112293	0.197835	0.333137	5446.680041	27749.830616	3644.678390	12080.875863
87.035000	0.192598	0.113295	0.206904	0.330449	5511.331099	27961.558565	3667.439280	12138.144057
87.537500	0.192498	0.114280	0.203322	0.333341	5493.060545	27851.905086	3654.828575	12076.549427
88.038000	0.189353	0.113517	0.205001	0.333341	5473.991650	27808.153002	3658.080910	12076.541514
88.536000	0.189294	0.113172	0.206501	0.337827	5446.676582	27533.076514	3652.307051	11981.819663
89.036000	0.188747	0.112868	0.207407	0.335624	5456.593352	27640.855913	3658.318856	12028.205103
89.536500	0.191380	0.113297	0.204692	0.337267	5462.547565	27571.906944	3649.901753	11993.592890
90.036500	0.190904	0.112787	0.210794	0.338062	5454.911489	27498.032714	3660.164569	11976.890862
90.536500	0.192139	0.113227	0.203176	0.342248	5437.274450	27287.102158	3637.508339	11889.409418
91.037500	0.192239	0.112646	0.209737	0.340729	5446.932419	27339.727780	3652.949882	11921.054869
91.534500	0.189113	0.113017	0.212188	0.342735	5416.435991	27248.094205	3653.810157	11879.298025
92.035000	0.193896	0.113079	0.204277	0.342182	5448.157996	27282.498359	3639.723097	11890.796106
92.535500	0.188019	0.111419	0.204097	0.344273	5400.928654	27073.137266	3635.421686	11847.403626
93.036000	0.188527	0.111248	0.203324	0.343160	5410.467351	27125.612118	3636.064517	11870.478897
93.561000	0.189920	0.111679	0.205310	0.344010	5413.673959	27102.249560	3638.213759	11852.857514
94.035500	0.192710	0.112730	0.206270	0.345937	5418.763277	27053.512870	3636.382851	11813.021137
94.536500	0.190911	0.111123	0.208389	0.346995	5401.932041	26906.036322	3638.392799	11791.249441
95.037000	0.192927	0.112702	0.206921	0.347747	5409.365444	26951.706907	3634.194396	11775.782732
95.536500	0.193329	0.112442	0.207378	0.348225	5408.918445	26910.936095	3634.155320	11765.978556
96.037000	0.193045	0.111680	0.209582	0.348105	5407.950830	26875.554353	3638.550202	11768.440355
