sample name	sample
index	926
start time	 04-12-2021  12:06:07 PM


Wavelength (nm)	Absorbance
494.344910	NaN
494.563924	NaN
494.782919	NaN
495.001897	0.020046
495.220856	NaN
495.439797	NaN
495.658719	-0.188076
495.877624	-0.590138
496.096510	-0.839604
496.315378	-1.060915
496.534227	-0.751389
496.753059	-0.161390
496.971872	0.005233
497.190667	0.062238
497.409444	0.070346
497.628203	0.074083
497.846943	0.075462
498.065665	0.075477
498.284369	0.075668
498.503055	0.075555
498.721723	0.074754
498.940372	0.073307
499.159003	0.074779
499.377616	0.075303
499.596210	0.075151
499.814787	0.074847
500.033345	0.074190
500.251885	0.074939
500.470406	0.073945
500.688910	0.074725
500.907395	0.075816
501.125862	0.075577
501.344311	0.075468
501.562742	0.076803
501.781154	0.076692
501.999548	0.077880
502.217924	0.076364
502.436282	0.076540
502.654621	0.076106
502.872942	0.075746
503.091245	0.074469
503.309530	0.075421
503.527797	0.074914
503.746045	0.074906
503.964275	0.074324
504.182487	0.076086
504.400681	0.076603
504.618856	0.077218
504.837013	0.077784
505.055152	0.079230
505.273273	0.077288
505.491376	0.077149
505.709460	0.077549
505.927526	0.077605
506.145574	0.078096
506.363604	0.078068
506.581615	0.078451
506.799608	0.079157
507.017583	0.078789
507.235540	0.079876
507.453478	0.080726
507.671399	0.081891
507.889301	0.082464
508.107185	0.080358
508.325050	0.080398
508.542898	0.080587
508.760727	0.079907
508.978538	0.080880
509.196330	0.081480
509.414105	0.080438
509.631861	0.079368
509.849599	0.079330
510.067319	0.080648
510.285021	0.080948
510.502704	0.080971
510.720369	0.081590
510.938016	0.081675
511.155645	0.080905
511.373255	0.081520
511.590848	0.081725
511.808422	0.082122
512.025977	0.081878
512.243515	0.082473
512.461034	0.082107
512.678536	0.082406
512.896018	0.081804
513.113483	0.082669
513.330930	0.082948
513.548358	0.084274
513.765768	0.084128
513.983160	0.084965
514.200533	0.085091
514.417889	0.085455
514.635226	0.085192
514.852545	0.086149
515.069845	0.086511
515.287128	0.086518
515.504392	0.086208
515.721638	0.086239
515.938866	0.087064
516.156075	0.086469
516.373267	0.087477
516.590440	0.088077
516.807594	0.088014
517.024731	0.087867
517.241850	0.088203
517.458950	0.088191
517.676032	0.089114
517.893095	0.087545
518.110141	0.088095
518.327168	0.087195
518.544177	0.088029
518.761168	0.088529
518.978141	0.088962
519.195095	0.089466
519.412031	0.089814
519.628949	0.089714
519.845849	0.091329
520.062731	0.091896
520.279594	0.092279
520.496439	0.092057
520.713266	0.092423
520.930074	0.093143
521.146865	0.092728
521.363637	0.093034
521.580391	0.092929
521.797127	0.092817
522.013844	0.093218
522.230543	0.093419
522.447224	0.092649
522.663887	0.092412
522.880532	0.092095
523.097158	0.092539
523.313766	0.092528
523.530356	0.093138
523.746928	0.093452
523.963481	0.093933
524.180017	0.094289
524.396534	0.095036
524.613032	0.095270
524.829513	0.096243
525.045975	0.096724
525.262420	0.097332
525.478845	0.097709
525.695253	0.098312
525.911643	0.098278
526.128014	0.099249
526.344367	0.100714
526.560702	0.101005
526.777018	0.101057
526.993316	0.101524
527.209597	0.101502
527.425858	0.101701
527.642102	0.101941
527.858328	0.102847
528.074535	0.102859
528.290724	0.102823
528.506894	0.103485
528.723047	0.103631
528.939181	0.103906
529.155297	0.104391
529.371395	0.104720
529.587475	0.104918
529.803536	0.105226
530.019579	0.105135
530.235604	0.105160
530.451611	0.105012
530.667600	0.105326
530.883570	0.105941
531.099522	0.106566
531.315456	0.107439
531.531372	0.107463
531.747269	0.107388
531.963148	0.108820
532.179009	0.109399
532.394852	0.110280
532.610676	0.110732
532.826482	0.111032
533.042271	0.111072
533.258040	0.111126
533.473792	0.112006
533.689525	0.112109
533.905240	0.111868
534.120937	0.111597
534.336616	0.111829
534.552277	0.112032
534.767919	0.112132
534.983543	0.113103
535.199149	0.113457
535.414736	0.113808
535.630306	0.114895
535.845857	0.115452
536.061390	0.116464
536.276904	0.116578
536.492401	0.116397
536.707879	0.116816
536.923339	0.116781
537.138781	0.117341
537.354204	0.116864
537.569610	0.116463
537.784997	0.116176
538.000366	0.116022
538.215716	0.116785
538.431049	0.117345
538.646363	0.117485
538.861659	0.117536
539.076937	0.118002
539.292196	0.118766
539.507438	0.119032
539.722661	0.119778
539.937866	0.119835
540.153052	0.119726
540.368221	0.120288
540.583371	0.120449
540.798503	0.120943
541.013617	0.121152
541.228712	0.121376
541.443789	0.121843
541.658848	0.122071
541.873889	0.122865
542.088912	0.123504
542.303916	0.123899
542.518902	0.124538
542.733870	0.125065
542.948820	0.125359
543.163752	0.125964
543.378665	0.126268
543.593560	0.126333
543.808437	0.126935
544.023295	0.127273
544.238136	0.127825
544.452958	0.127851
544.667762	0.128020
544.882548	0.128138
545.097315	0.128416
545.312064	0.128705
545.526795	0.129070
545.741508	0.129162
545.956203	0.129504
546.170879	0.129704
546.385537	0.130612
546.600177	0.131070
546.814799	0.131510
547.029402	0.132192
547.243988	0.132602
547.458555	0.133282
547.673103	0.133604
547.887634	0.133355
548.102146	0.133096
548.316640	0.132754
548.531116	0.132360
548.745574	0.132254
548.960013	0.131811
549.174435	0.131844
549.388838	0.131960
549.603222	0.132385
549.817589	0.132791
550.031937	0.133179
550.246267	0.133491
550.460579	0.134165
550.674873	0.134946
550.889148	0.135164
551.103405	0.135623
551.317644	0.135967
551.531865	0.135596
551.746068	0.135961
551.960252	0.136357
552.174418	0.136790
552.388566	0.136915
552.602696	0.136810
552.816807	0.137005
553.030900	0.137166
553.244975	0.137488
553.459032	0.138118
553.673070	0.138659
553.887091	0.139118
554.101093	0.139239
554.315077	0.139563
554.529042	0.139734
554.742990	0.140348
554.956919	0.140455
555.170830	0.140634
555.384722	0.140392
555.598597	0.140240
555.812453	0.139839
556.026291	0.140133
556.240111	0.140160
556.453913	0.140065
556.667696	0.140093
556.881461	0.140420
557.095208	0.140317
557.308937	0.140679
557.522647	0.140993
557.736339	0.141552
557.950013	0.141711
558.163669	0.142235
558.377307	0.142539
558.590926	0.142383
558.804527	0.142715
559.018110	0.143102
559.231675	0.143406
559.445221	0.143465
559.658749	0.143818
559.872259	0.143891
560.085751	0.143859
560.299225	0.144096
560.512680	0.144801
560.726117	0.144962
560.939536	0.144888
561.152937	0.145129
561.366319	0.145557
561.579683	0.145570
561.793029	0.146070
562.006357	0.146064
562.219667	0.146567
562.432958	0.146385
562.646231	0.146513
562.859486	0.146737
563.072723	0.146697
563.285941	0.146607
563.499141	0.146655
563.712323	0.146675
563.925487	0.147014
564.138632	0.147179
564.351760	0.147917
564.564869	0.148712
564.777960	0.149040
564.991032	0.149446
565.204087	0.149596
565.417123	0.149754
565.630141	0.150106
565.843140	0.150313
566.056122	0.150566
566.269085	0.150210
566.482030	0.150160
566.694957	0.150374
566.907866	0.150519
567.120756	0.150683
567.333628	0.151202
567.546482	0.151378
567.759318	0.151542
567.972135	0.151226
568.184935	0.151413
568.397716	0.150971
568.610478	0.151012
568.823223	0.151044
569.035949	0.151400
569.248657	0.150958
569.461347	0.150784
569.674019	0.150773
569.886672	0.150877
570.099308	0.151113
570.311925	0.151561
570.524523	0.151859
570.737104	0.152268
570.949666	0.152390
571.162210	0.152938
571.374736	0.153377
571.587244	0.154105
571.799733	0.154655
572.012205	0.155108
572.224658	0.155292
572.437092	0.155492
572.649509	0.155550
572.861907	0.155720
573.074287	0.156137
573.286649	0.156283
573.498993	0.156196
573.711318	0.156552
573.923625	0.156469
574.135914	0.156627
574.348185	0.156645
574.560438	0.156741
574.772672	0.157122
574.984888	0.156995
575.197086	0.157491
575.409266	0.157768
575.621427	0.157702
575.833570	0.157926
576.045695	0.158258
576.257802	0.158471
576.469890	0.158513
576.681961	0.158390
576.894013	0.158811
577.106046	0.158651
577.318062	0.158766
577.530059	0.159021
577.742039	0.159713
577.954000	0.159945
578.165942	0.160326
578.377867	0.160819
578.589773	0.160928
578.801661	0.160881
579.013531	0.160920
579.225382	0.160933
579.437216	0.161177
579.649031	0.160980
579.860828	0.160949
580.072606	0.161031
580.284367	0.161142
580.496109	0.161250
580.707833	0.161307
580.919539	0.161604
581.131227	0.161879
581.342896	0.162027
581.554547	0.161835
581.766180	0.161818
581.977795	0.161954
582.189391	0.161939
582.400969	0.162452
582.612529	0.162835
582.824071	0.162845
583.035595	0.162875
583.247100	0.162925
583.458587	0.163234
583.670056	0.163426
583.881506	0.163952
584.092939	0.164512
584.304353	0.164559
584.515749	0.164600
584.727127	0.164587
584.938486	0.165118
585.149828	0.165197
585.361151	0.165532
585.572456	0.165845
585.783742	0.165742
585.995011	0.165912
586.206261	0.165844
586.417493	0.166452
586.628706	0.167075
586.839902	0.167143
587.051079	0.167782
587.262238	0.168313
587.473379	0.168779
587.684502	0.169002
587.895606	0.169088
588.106692	0.169756
588.317760	0.169730
588.528810	0.169755
588.739841	0.169532
588.950855	0.169481
589.161850	0.169483
589.372827	0.169314
589.583785	0.169561
589.794726	0.169682
590.005648	0.169819
590.216552	0.170335
590.427437	0.170563
590.638305	0.170835
590.849154	0.171062
591.059985	0.171127
591.270798	0.171645
591.481592	0.171980
591.692369	0.172295
591.903127	0.172325
592.113867	0.172055
592.324588	0.172388
592.535292	0.172893
592.745977	0.172995
592.956644	0.173576
593.167293	0.173339
593.377923	0.173243
593.588536	0.173413
593.799130	0.173790
594.009706	0.173879
594.220263	0.173794
594.430803	0.174223
594.641324	0.174201
594.851827	0.173903
595.062312	0.174142
595.272778	0.174460
595.483227	0.174490
595.693657	0.174450
595.904069	0.175230
596.114462	0.175730
596.324838	0.175626
596.535195	0.175795
596.745534	0.176083
596.955855	0.176393
597.166157	0.176209
597.376441	0.176464
597.586707	0.176835
597.796955	0.176523
598.007185	0.176515
598.217396	0.176207
598.427589	0.176175
598.637764	0.176147
598.847921	0.176275
599.058060	0.176554
599.268180	0.176555
599.478282	0.176381
599.688366	0.176757
599.898431	0.176678
600.108479	0.176858
600.318508	0.177286
600.528519	0.177531
600.738511	0.177997
600.948486	0.177950
601.158442	0.178217
601.368380	0.178548
601.578300	0.178448
601.788202	0.178825
601.998085	0.179084
602.207950	0.179121
602.417797	0.179485
602.627626	0.179384
602.837436	0.179895
603.047228	0.179959
603.257002	0.180150
603.466758	0.180480
603.676496	0.180806
603.886215	0.181280
604.095916	0.181514
604.305599	0.181484
604.515264	0.181410
604.724910	0.181851
604.934538	0.182097
605.144148	0.182432
605.353740	0.182669
605.563314	0.182515
605.772869	0.182434
605.982406	0.182725
606.191925	0.182930
606.401425	0.183356
606.610908	0.183242
606.820372	0.183570
607.029818	0.183502
607.239246	0.183693
607.448655	0.183850
607.658047	0.184249
607.867420	0.184468
608.076775	0.184824
608.286111	0.184850
608.495430	0.184900
608.704730	0.184902
608.914012	0.184978
609.123275	0.184898
609.332521	0.185212
609.541748	0.185349
609.750957	0.185432
609.960148	0.185366
610.169321	0.185698
610.378475	0.186036
610.587611	0.185956
610.796729	0.186183
611.005829	0.186126
611.214910	0.186202
611.423974	0.186500
611.633019	0.186622
611.842045	0.186798
612.051054	0.186875
612.260044	0.186544
612.469017	0.186967
612.677970	0.187026
612.886906	0.187227
613.095824	0.187203
613.304723	0.187332
613.513604	0.187512
613.722467	0.187600
613.931311	0.187960
614.140138	0.188686
614.348946	0.189095
614.557736	0.189416
614.766507	0.189840
614.975261	0.190225
615.183996	0.190097
615.392713	0.190317
615.601412	0.190311
615.810092	0.190018
616.018754	0.189859
616.227399	0.190028
616.436024	0.190167
616.644632	0.190453
616.853222	0.190509
617.061793	0.190804
617.270346	0.191111
617.478880	0.191855
617.687397	0.192164
617.895895	0.192164
618.104375	0.192336
618.312837	0.192552
618.521281	0.192617
618.729706	0.192724
618.938113	0.193051
619.146502	0.193033
619.354873	0.192862
619.563226	0.193105
619.771560	0.193596
619.979876	0.193549
620.188174	0.193592
620.396453	0.193597
620.604715	0.194066
620.812958	0.194044
621.021183	0.194273
621.229390	0.194235
621.437578	0.194384
621.645748	0.194499
621.853900	0.194561
622.062034	0.194706
622.270150	0.194905
622.478247	0.194710
622.686326	0.194946
622.894387	0.195035
623.102430	0.195385
623.310454	0.195448
623.518461	0.195642
623.726449	0.195946
623.934418	0.196071
624.142370	0.196383
624.350303	0.196496
624.558218	0.196835
624.766115	0.196840
624.973994	0.197051
625.181855	0.197115
625.389697	0.197367
625.597521	0.197275
625.805327	0.197649
626.013114	0.198090
626.220883	0.198612
626.428634	0.198602
626.636367	0.199122
626.844082	0.199085
627.051778	0.199535
627.259457	0.199443
627.467117	0.199737
627.674758	0.199833
627.882382	0.199646
628.089987	0.199636
628.297574	0.199924
628.505143	0.199829
628.712694	0.200436
628.920226	0.200702
629.127740	0.200961
629.335236	0.201389
629.542714	0.201645
629.750174	0.201844
629.957615	0.202041
630.165038	0.202075
630.372443	0.202266
630.579829	0.202033
630.787198	0.202043
630.994548	0.202254
631.201880	0.202168
631.409194	0.202175
631.616489	0.202385
631.823766	0.202614
632.031025	0.202702
632.238266	0.202812
632.445489	0.202920
632.652693	0.203210
632.859879	0.203247
633.067047	0.203594
633.274197	0.203894
633.481329	0.204179
633.688442	0.204269
633.895537	0.204440
634.102614	0.204611
634.309672	0.204946
634.516713	0.205110
634.723735	0.205451
634.930739	0.205694
635.137724	0.205602
635.344692	0.205596
635.551641	0.205772
635.758572	0.206008
635.965485	0.206161
636.172379	0.206179
636.379256	0.206128
636.586114	0.206164
636.792954	0.205917
636.999775	0.206108
637.206579	0.206457
637.413364	0.206812
637.620131	0.207023
637.826880	0.207365
638.033610	0.207666
638.240323	0.207918
638.447017	0.208222
638.653692	0.208613
638.860350	0.208940
639.066990	0.208678
639.273611	0.208777
639.480214	0.208963
639.686798	0.209205
639.893365	0.209715
640.099913	0.209858
640.306443	0.209859
640.512955	0.210019
640.719449	0.210251
640.925924	0.210860
641.132381	0.210672
641.338820	0.210943
641.545241	0.211067
641.751644	0.210826
641.958028	0.210766
642.164394	0.210930
642.370742	0.211262
642.577071	0.211448
642.783383	0.211561
642.989676	0.212259
643.195951	0.212256
643.402207	0.212177
643.608446	0.212461
643.814666	0.212957
644.020868	0.213394
644.227052	0.213551
644.433218	0.213864
644.639365	0.214019
644.845494	0.213980
645.051605	0.214171
645.257698	0.214732
645.463772	0.214960
645.669828	0.215104
645.875866	0.215201
646.081886	0.215325
646.287888	0.215361
646.493871	0.215362
646.699836	0.215572
646.905783	0.215709
647.111712	0.215990
647.317622	0.216291
647.523514	0.216313
647.729388	0.216782
647.935244	0.217038
648.141082	0.217383
648.346901	0.217867
648.552702	0.218117
648.758485	0.218330
648.964250	0.218274
649.169996	0.218516
649.375724	0.218876
649.581434	0.218583
649.787126	0.218763
649.992800	0.218681
650.198455	0.218792
650.404092	0.219077
650.609711	0.219409
650.815311	0.219695
651.020894	0.219919
651.226458	0.220206
651.432004	0.220676
651.637532	0.220782
651.843041	0.221239
652.048532	0.221188
652.254006	0.221300
652.459460	0.221445
652.664897	0.221708
652.870315	0.221683
653.075716	0.221791
653.281097	0.221930
653.486461	0.222089
653.691807	0.222282
653.897134	0.222676
654.102443	0.223023
654.307734	0.223073
654.513006	0.223065
654.718261	0.223494
654.923497	0.223758
655.128715	0.223942
655.333915	0.224229
655.539096	0.224115
655.744259	0.224409
655.949404	0.224333
656.154531	0.224583
656.359640	0.224896
656.564730	0.224901
656.769802	0.225290
656.974856	0.225625
657.179892	0.225771
657.384909	0.225940
657.589908	0.226037
657.794889	0.226666
657.999852	0.227047
658.204797	0.227280
658.409723	0.227398
658.614631	0.227469
658.819521	0.227621
659.024393	0.228086
659.229246	0.228633
659.434081	0.228970
659.638898	0.229020
659.843697	0.229291
660.048478	0.229447
660.253240	0.229864
660.457984	0.230029
660.662710	0.230147
660.867417	0.230258
661.072107	0.230307
661.276778	0.230459
661.481431	0.230661
661.686066	0.230744
661.890682	0.230921
662.095281	0.231111
662.299861	0.231372
662.504422	0.231725
662.708966	0.231912
662.913491	0.232149
663.117999	0.232293
663.322488	0.232301
663.526958	0.232836
663.731411	0.233167
663.935845	0.233401
664.140261	0.233798
664.344659	0.233784
664.549038	0.234155
664.753400	0.234565
664.957743	0.235001
665.162068	0.235391
665.366375	0.235506
665.570663	0.235932
665.774933	0.236385
665.979185	0.236480
666.183419	0.237085
666.387635	0.237189
666.591832	0.237313
666.796011	0.237477
667.000172	0.237857
667.204315	0.237914
667.408439	0.237960
667.612545	0.238063
667.816634	0.238267
668.020703	0.238305
668.224755	0.238544
668.428788	0.238899
668.632803	0.239111
668.836800	0.239151
669.040779	0.239319
669.244739	0.239438
669.448681	0.239427
669.652605	0.239668
669.856511	0.239988
670.060399	0.240175
670.264268	0.240392
670.468119	0.240686
670.671952	0.241089
670.875767	0.241478
671.079563	0.241764
671.283341	0.242087
671.487101	0.242453
671.690843	0.242766
671.894567	0.243098
672.098272	0.243173
672.301959	0.243536
672.505628	0.243878
672.709278	0.244286
672.912911	0.244782
673.116525	0.245119
673.320121	0.245405
673.523699	0.245552
673.727258	0.245780
673.930799	0.246029
674.134322	0.246247
674.337827	0.246132
674.541314	0.245978
674.744782	0.246184
674.948232	0.246395
675.151664	0.246685
675.355078	0.247185
675.558474	0.247377
675.761851	0.247561
675.965210	0.247696
676.168551	0.248094
676.371873	0.248663
676.575178	0.248938
676.778464	0.249144
676.981732	0.249275
677.184981	0.249209
677.388213	0.249385
677.591426	0.249625
677.794621	0.249617
677.997798	0.249960
678.200956	0.249987
678.404097	0.249948
678.607219	0.250009
678.810323	0.250034
679.013408	0.250314
679.216476	0.250614
679.419525	0.250667
679.622556	0.251035
679.825569	0.251118
680.028563	0.251301
680.231540	0.251591
680.434498	0.251988
680.637438	0.252234
680.840359	0.252426
681.043263	0.252653
681.246148	0.253221
681.449015	0.253478
681.651864	0.253463
681.854694	0.253801
682.057506	0.254017
682.260301	0.254392
682.463076	0.254695
682.665834	0.254741
682.868573	0.254804
683.071295	0.254961
683.273998	0.255102
683.476682	0.255377
683.679349	0.255453
683.881997	0.255680
684.084627	0.255850
684.287239	0.255905
684.489833	0.256328
684.692408	0.256768
684.894965	0.256899
685.097504	0.256955
685.300025	0.257297
685.502527	0.257760
685.705012	0.257933
685.907478	0.258007
686.109925	0.258420
686.312355	0.258453
686.514766	0.258705
686.717159	0.259049
686.919534	0.259502
687.121891	0.259826
687.324230	0.260029
687.526550	0.260292
687.728852	0.260763
687.931136	0.260653
688.133401	0.260951
688.335649	0.260724
688.537878	0.260916
688.740089	0.261218
688.942281	0.261504
689.144456	0.261789
689.346612	0.262050
689.548750	0.262202
689.750870	0.262621
689.952971	0.262843
690.155055	0.263451
690.357120	0.263745
690.559167	0.263964
690.761195	0.264107
690.963206	0.264153
691.165198	0.264458
691.367172	0.264597
691.569128	0.264776
691.771065	0.265009
691.972984	0.265260
692.174885	0.265209
692.376768	0.265465
692.578633	0.265594
692.780479	0.265686
692.982308	0.265789
693.184118	0.266126
693.385909	0.266436
693.587683	0.266758
693.789438	0.266673
693.991175	0.266974
694.192894	0.266939
694.394595	0.266828
694.596277	0.267050
694.797941	0.267202
694.999587	0.267203
695.201215	0.267356
695.402824	0.267107
695.604416	0.267212
695.805989	0.267388
696.007543	0.267497
696.209080	0.268072
696.410598	0.268245
696.612099	0.268416
696.813580	0.268529
697.015044	0.268507
697.216490	0.269121
697.417917	0.269557
697.619326	0.269891
697.820717	0.270138
698.022089	0.270141
698.223444	0.270339
698.424780	0.270282
698.626098	0.270293
698.827397	0.270558
699.028679	0.270492
699.229942	0.270630
699.431187	0.270631
699.632414	0.270926
699.833622	0.271069
700.034813	0.271092
700.235985	0.271349
700.437139	0.271647
700.638274	0.271940
700.839392	0.272228
701.040491	0.272126
701.241572	0.272469
701.442635	0.272290
701.643679	0.272430
701.844706	0.272821
702.045714	0.273000
702.246704	0.273110
702.447675	0.273079
702.648629	0.272996
702.849564	0.273105
703.050481	0.273044
703.251380	0.273258
703.452260	0.273447
703.653122	0.273214
703.853966	0.273149
704.054792	0.273047
704.255600	0.273109
704.456389	0.273168
704.657160	0.273154
704.857913	0.272991
705.058648	0.273121
705.259365	0.273011
705.460063	0.273222
705.660743	0.273507
705.861405	0.273710
706.062048	0.273772
706.262674	0.273706
706.463281	0.273866
706.663870	0.273796
706.864441	0.273813
707.064993	0.273940
707.265527	0.273885
707.466043	0.273862
707.666541	0.273823
707.867021	0.273926
708.067482	0.274211
708.267925	0.274583
708.468350	0.275212
708.668757	0.275193
708.869145	0.275277
709.069516	0.275562
709.269868	0.275662
709.470201	0.275972
709.670517	0.276069
709.870814	0.276298
710.071093	0.276040
710.271354	0.275698
710.471597	0.275618
710.671821	0.275651
710.872028	0.275502
711.072216	0.275351
711.272385	0.275157
711.472537	0.274887
711.672670	0.274355
711.872785	0.274104
712.072882	0.274164
712.272961	0.274102
712.473021	0.274113
712.673063	0.274021
712.873087	0.273803
713.073093	0.273801
713.273081	0.273830
713.473050	0.274073
713.673001	0.274090
713.872934	0.273970
714.072849	0.274124
714.272745	0.273942
714.472623	0.273911
714.672483	0.274201
714.872325	0.274052
715.072148	0.273991
715.271954	0.273843
715.471741	0.274124
715.671509	0.273892
715.871260	0.273751
716.070992	0.273808
716.270707	0.273738
716.470403	0.273364
716.670080	0.273555
716.869740	0.273492
717.069381	0.273536
717.269004	0.273348
717.468609	0.273758
717.668195	0.273642
717.867764	0.273395
718.067314	0.273407
718.266846	0.273456
718.466360	0.273188
718.665855	0.273343
718.865332	0.273254
719.064791	0.273048
719.264232	0.272720
719.463655	0.272635
719.663059	0.272599
719.862445	0.272493
720.061813	0.272500
720.261163	0.272393
720.460494	0.272249
720.659807	0.272083
720.859102	0.272120
721.058379	0.272046
721.257638	0.271999
721.456878	0.271974
721.656100	0.271747
721.855304	0.271557
722.054490	0.271507
722.253657	0.270884
722.452806	0.270646
722.651937	0.270323
722.851050	0.270152
723.050145	0.270026
723.249221	0.269640
723.448279	0.269606
723.647319	0.269437
723.846340	0.269095
724.045344	0.269534
724.244329	0.269573
724.443296	0.269468
724.642245	0.269472
724.841175	0.269404
725.040088	0.269494
725.238982	0.269529
725.437857	0.269400
725.636715	0.269467
725.835554	0.269197
726.034376	0.268892
726.233179	0.268934
726.431963	0.268522
726.630730	0.268165
726.829478	0.267951
727.028208	0.267627
727.226920	0.267564
727.425614	0.267154
727.624289	0.266800
727.822946	0.266593
728.021585	0.266364
728.220206	0.266302
728.418808	0.266155
728.617392	0.266151
728.815958	0.265642
729.014506	0.265450
729.213036	0.265463
729.411547	0.265051
729.610040	0.264834
729.808515	0.264529
730.006972	0.264205
730.205410	0.264044
730.403831	0.263729
730.602233	0.263731
730.800616	0.263370
730.998982	0.263104
731.197329	0.263209
731.395658	0.263144
731.593969	0.262910
731.792262	0.262535
731.990536	0.262369
732.188793	0.261896
732.387031	0.261454
732.585250	0.261313
732.783452	0.260811
732.981635	0.260525
733.179800	0.260452
733.377947	0.260413
733.576076	0.260393
733.774186	0.260122
733.972278	0.260134
734.170352	0.260216
734.368408	0.259972
734.566446	0.259999
734.764465	0.259743
734.962466	0.259418
735.160449	0.259167
735.358413	0.259003
735.556360	0.258789
735.754288	0.258511
735.952198	0.258252
736.150090	0.257951
736.347963	0.257699
736.545818	0.257652
736.743655	0.257496
736.941474	0.257247
737.139275	0.257238
737.337057	0.257082
737.534821	0.256935
737.732567	0.256649
737.930295	0.256741
738.128005	0.256650
738.325696	0.256525
738.523369	0.256260
738.721024	0.255813
738.918660	0.255432
739.116279	0.255204
739.313879	0.254831
739.511461	0.254667
739.709024	0.254253
739.906570	0.254105
740.104097	0.253917
740.301606	0.253507
740.499097	0.253470
740.696569	0.253021
740.894024	0.252576
741.091460	0.252424
741.288878	0.252163
741.486277	0.251958
741.683659	0.251681
741.881022	0.251096
742.078367	0.250978
742.275694	0.250575
742.473002	0.250484
742.670293	0.250500
742.867565	0.250450
743.064819	0.250399
743.262054	0.249974
743.459272	0.249723
743.656471	0.249426
743.853652	0.249136
744.050815	0.248995
744.247959	0.248557
744.445085	0.248120
744.642194	0.247669
744.839283	0.247452
745.036355	0.247299
745.233408	0.247011
745.430444	0.247033
745.627461	0.246807
745.824459	0.246652
746.021440	0.246649
746.218402	0.246718
746.415346	0.246582
746.612272	0.246346
746.809180	0.246286
747.006069	0.246102
747.202940	0.245742
747.399793	0.245547
747.596628	0.245288
747.793444	0.245015
747.990243	0.244742
748.187023	0.244556
748.383784	0.244320
748.580528	0.244063
748.777253	0.243979
748.973960	0.243799
749.170649	0.243720
749.367320	0.243756
749.563973	0.243738
749.760607	0.243405
749.957223	0.243150
750.153821	0.242767
750.350400	0.242531
750.546962	0.241954
750.743505	0.241923
750.940030	0.241703
751.136536	0.241232
751.333025	0.240741
751.529495	0.240656
751.725947	0.240666
751.922381	0.240552
752.118796	0.240365
752.315194	0.240209
752.511573	0.239727
752.707934	0.239360
752.904276	0.239118
753.100601	0.239212
753.296907	0.238763
753.493195	0.238251
753.689465	0.238037
753.885716	0.237723
754.081949	0.237685
754.278164	0.237618
754.474361	0.237459
754.670540	0.237275
754.866700	0.237033
755.062843	0.236818
755.258967	0.236658
755.455072	0.236286
755.651160	0.236144
755.847229	0.236021
756.043280	0.235470
756.239313	0.235185
756.435328	0.235114
756.631324	0.234670
756.827302	0.234682
757.023262	0.234524
757.219204	0.234166
757.415127	0.234027
757.611033	0.233827
757.806920	0.234061
758.002788	0.233923
758.198639	0.233711
758.394471	0.233550
758.590286	0.233564
758.786081	0.233296
758.981859	0.233266
759.177619	0.232890
759.373360	0.232728
759.569083	0.232625
759.764788	0.232611
759.960474	0.232193
760.156143	0.232221
760.351793	0.231913
760.547425	0.231909
760.743038	0.231811
760.938634	0.231579
761.134211	0.231171
761.329770	0.230808
761.525311	0.230354
761.720833	0.230418
761.916338	0.230025
762.111824	0.229685
762.307292	0.229359
762.502741	0.229021
762.698173	0.228999
762.893586	0.229018
763.088981	0.228921
763.284358	0.228834
763.479716	0.228474
763.675057	0.228311
763.870379	0.228246
764.065683	0.227990
764.260968	0.228135
764.456236	0.227915
764.651485	0.227554
764.846716	0.227076
765.041929	0.227001
765.237123	0.226999
765.432299	0.226914
765.627457	0.226738
765.822597	0.226717
766.017719	0.226421
766.212822	0.226394
766.407907	0.226265
766.602974	0.226266
766.798023	0.226083
766.993054	0.225927
767.188066	0.225753
767.383060	0.225674
767.578036	0.225555
767.772993	0.225604
767.967933	0.225214
768.162854	0.225150
768.357757	0.225169
768.552642	0.225126
768.747508	0.224908
768.942356	0.224730
769.137186	0.224551
769.331998	0.224443
769.526792	0.224119
769.721567	0.224374
769.916324	0.224063
770.111063	0.223941
770.305784	0.223692
770.500486	0.223699
770.695171	0.223871
770.889837	0.223765
771.084484	0.223589
771.279114	0.223611
771.473725	0.223371
771.668318	0.223728
771.862893	0.223462
772.057450	0.223324
772.251988	0.223429
772.446509	0.223127
772.641011	0.223126
772.835494	0.223122
773.029960	0.223089
773.224407	0.223002
773.418836	0.223024
773.613247	0.223167
773.807640	0.223273
774.002014	0.223002
774.196370	0.223155
774.390708	0.222900
774.585028	0.223086
774.779330	0.222803
774.973613	0.222838
775.167878	0.222493
775.362125	0.222356
775.556354	0.222339
775.750564	0.222373
775.944756	0.222286
776.138930	0.222454
776.333086	0.222154
776.527223	0.222202
776.721343	0.222067
776.915444	0.222198
777.109526	0.222277
777.303591	0.222261
777.497637	0.222195
777.691666	0.222066
777.885676	0.222049
778.079667	0.221792
778.273641	0.222091
778.467596	0.222347
778.661533	0.222235
778.855452	0.222111
779.049352	0.221823
779.243235	0.221883
779.437099	0.222104
779.630945	0.222132
779.824773	0.222432
780.018582	0.222204
780.212373	0.222019
780.406146	0.221872
780.599901	0.222158
780.793638	0.222168
780.987356	0.221985
781.181056	0.221608
781.374738	0.221345
781.568402	0.221231
781.762047	0.221301
781.955674	0.221220
782.149283	0.221314
782.342874	0.221172
782.536447	0.221570
782.730001	0.221860
782.923537	0.222378
783.117055	0.222752
783.310555	0.223067
783.504036	0.223165
783.697499	0.223488
783.890944	0.223681
784.084371	0.223792
784.277780	0.223697
784.471170	0.223448
784.664542	0.223108
784.857896	0.222958
785.051231	0.222978
785.244549	0.223186
785.437848	0.223021
785.631129	0.223228
785.824392	0.223049
786.017636	0.223169
786.210863	0.223381
786.404071	0.223755
786.597260	0.223865
786.790432	0.224018
786.983585	0.223821
787.176721	0.223938
787.369838	0.223898
787.562936	0.224079
787.756017	0.224214
787.949079	0.224419
788.142123	0.224260
788.335149	0.224423
788.528156	0.224454
788.721146	0.224445
788.914117	0.224632
789.107070	0.224673
789.300005	0.225110
789.492921	0.224997
789.685819	0.225066
789.878699	0.225117
790.071561	0.225201
790.264405	0.225084
790.457230	0.225497
790.650037	0.225550
790.842826	0.225648
791.035597	0.225585
791.228349	0.225714
791.421084	0.225760
791.613800	0.226006
791.806497	0.226048
791.999177	0.226053
792.191838	0.226082
792.384481	0.226246
792.577106	0.226461
792.769713	0.226518
792.962301	0.226781
793.154871	0.227005
793.347423	0.227102
793.539957	0.227343
793.732473	0.227663
793.924970	0.227930
794.117449	0.228017
794.309910	0.228069
794.502353	0.228228
794.694777	0.228504
794.887183	0.228505
795.079571	0.228420
795.271941	0.228449
795.464293	0.228749
795.656626	0.228751
795.848941	0.228904
796.041238	0.229042
796.233516	0.229400
796.425777	0.229524
796.618019	0.230006
796.810243	0.230294
797.002449	0.230755
797.194636	0.231064
797.386805	0.231239
797.578956	0.231392
797.771089	0.231674
797.963204	0.231590
798.155300	0.231902
798.347378	0.232025
798.539438	0.232482
798.731480	0.232647
798.923503	0.232846
799.115509	0.233090
799.307496	0.233593
799.499465	0.233974
799.691415	0.234515
799.883348	0.234840
800.075262	0.235269
800.267158	0.235676
800.459035	0.235714
800.650895	0.236008
800.842736	0.236598
801.034559	0.236544
801.226364	0.236659
801.418150	0.236896
801.609919	0.237104
801.801669	0.237182
801.993401	0.237580
802.185114	0.238242
802.376810	0.238416
802.568487	0.238622
802.760146	0.238843
802.951787	0.239126
803.143409	0.239357
803.335014	0.239490
803.526600	0.239693
803.718168	0.239400
803.909717	0.239436
804.101249	0.239411
804.292762	0.239356
804.484257	0.239755
804.675734	0.240175
804.867192	0.240374
805.058632	0.240731
805.250054	0.241184
805.441458	0.241916
805.632844	0.242078
805.824211	0.242441
806.015561	0.242952
806.206891	0.243291
806.398204	0.243348
806.589499	0.243472
806.780775	0.244036
806.972033	0.244215
807.163273	0.244428
807.354495	0.244962
807.545698	0.245666
807.736883	0.245936
807.928050	0.246340
808.119199	0.246652
808.310329	0.247244
808.501441	0.247370
808.692535	0.247649
808.883611	0.248091
809.074669	0.248345
809.265708	0.248211
809.456729	0.248461
809.647732	0.248980
809.838717	0.249394
810.029683	0.249835
810.220632	0.250009
810.411562	0.250303
810.602474	0.250543
810.793367	0.250731
810.984242	0.251428
811.175100	0.251736
811.365938	0.251954
811.556759	0.252272
811.747562	0.252374
811.938346	0.252798
812.129112	0.253166
812.319860	0.253352
812.510589	0.253653
812.701300	0.254052
812.891994	0.254486
813.082668	0.254839
813.273325	0.255285
813.463964	0.255959
813.654584	0.256488
813.845186	0.257224
814.035769	0.257945
814.226335	0.258543
814.416882	0.258813
814.607411	0.259294
814.797922	0.259679
814.988415	0.259936
815.178889	0.260159
815.369345	0.260589
815.559783	0.260734
815.750203	0.260949
815.940605	0.261477
816.130988	0.261690
816.321353	0.262417
816.511700	0.262741
816.702028	0.263385
816.892339	0.263715
817.082631	0.264238
817.272905	0.264996
817.463161	0.265420
817.653398	0.265786
817.843617	0.266653
818.033819	0.266833
818.224001	0.267400
818.414166	0.268076
818.604312	0.268641
818.794440	0.269384
818.984550	0.269495
819.174642	0.270183
819.364716	0.270498
819.554771	0.270819
819.744808	0.271597
819.934827	0.272014
820.124827	0.272087
820.314810	0.272635
820.504774	0.272559
820.694720	0.273237
820.884647	0.273220
821.074557	0.274147
821.264448	0.274253
821.454321	0.274526
821.644176	0.274948
821.834012	0.275741
822.023831	0.276226
822.213631	0.276661
822.403413	0.276966
822.593176	0.277667
822.782922	0.277910
822.972649	0.279051
823.162358	0.279470
823.352049	0.280123
823.541721	0.280366
823.731376	0.280892
823.921012	0.281237
824.110629	0.281751
824.300229	0.282374
824.489811	0.282809
824.679374	0.282727
824.868919	0.283173
825.058445	0.283634
825.247954	0.284136
825.437444	0.284153
825.626916	0.284750
825.816370	0.284950
826.005806	0.285381
826.195223	0.285686
826.384622	0.286204
826.574003	0.286284
826.763366	0.286686
826.952711	0.286829
827.142037	0.287643
827.331345	0.288001
827.520635	0.288572
827.709906	0.288962
827.899160	0.289604
828.088395	0.290130
828.277612	0.290837
828.466810	0.291064
828.655991	0.291949
828.845153	0.292006
829.034297	0.292588
829.223423	0.293061
829.412531	0.293595
829.601620	0.294269
829.790691	0.294729
829.979744	0.295376
830.168779	0.295984
830.357795	0.296273
830.546793	0.296900
830.735773	0.297423
830.924735	0.297907
831.113679	0.298534
831.302604	0.298874
831.491511	0.299306
831.680400	0.299279
831.869271	0.299865
832.058123	0.300295
832.246957	0.301034
832.435773	0.301609
832.624571	0.302491
832.813351	0.302918
833.002112	0.303494
833.190855	0.304183
833.379580	0.305039
833.568287	0.305585
833.756975	0.306339
833.945645	0.306949
834.134297	0.307552
834.322931	0.307686
834.511547	0.308143
834.700144	0.308249
834.888723	0.308477
835.077284	0.309019
835.265826	0.309480
835.454351	0.310359
835.642857	0.310528
835.831345	0.310872
836.019815	0.311869
836.208266	0.312214
836.396699	0.312717
836.585114	0.313657
836.773511	0.314437
836.961890	0.315123
837.150250	0.315071
837.338592	0.315443
837.526916	0.315924
837.715222	0.316312
837.903510	0.316801
838.091779	0.317516
838.280030	0.317905
838.468263	0.318377
838.656477	0.318983
838.844674	0.319725
839.032852	0.320830
839.221012	0.321652
839.409153	0.322237
839.597277	0.323228
839.785382	0.324082
839.973469	0.324819
840.161538	0.325659
840.349589	0.326254
840.537621	0.326905
840.725635	0.327622
840.913631	0.328395
841.101609	0.328890
841.289568	0.329107
841.477509	0.329772
841.665432	0.330046
841.853337	0.330371
842.041224	0.331036
842.229092	0.331912
842.416942	0.332370
842.604774	0.332606
842.792588	0.332911
842.980383	0.333586
843.168160	0.333752
843.355919	0.334461
843.543660	0.335235
843.731382	0.335657
843.919087	0.335917
844.106773	0.336215
844.294441	0.336689
844.482090	0.337389
844.669722	0.337662
844.857335	0.338024
845.044930	0.338741
845.232507	0.338998
845.420065	0.339416
845.607605	0.340079
845.795127	0.341027
845.982631	0.341526
846.170117	0.342199
846.357584	0.343188
846.545033	0.344004
846.732464	0.344365
846.919877	0.344760
847.107272	0.345369
847.294648	0.346049
847.482006	0.346385
847.669346	0.347234
847.856667	0.347840
848.043971	0.348319
848.231256	0.348933
848.418523	0.349604
848.605771	0.350474
848.793002	0.351072
848.980214	0.351638
849.167408	0.352174
849.354584	0.352906
849.541742	0.353846
849.728881	0.354435
849.916002	0.355176
850.103105	0.355960
850.290190	0.356482
850.477256	0.357279
850.664304	0.357619
850.851334	0.358326
851.038346	0.358675
851.225340	0.359193
851.412315	0.359801
851.599272	0.360280
851.786211	0.360825
851.973132	0.361242
852.160034	0.361811
852.346918	0.362131
852.533784	0.362678
852.720632	0.363446
852.907462	0.363884
853.094273	0.364745
853.281066	0.365159
853.467841	0.365875
853.654598	0.366738
853.841336	0.367218
854.028056	0.367938
854.214758	0.369011
854.401442	0.369749
854.588107	0.370442
854.774755	0.370792
854.961384	0.371731
855.147995	0.372302
855.334587	0.372570
855.521162	0.373182
855.707718	0.373868
855.894256	0.373935
856.080775	0.373939
856.267277	0.374599
856.453760	0.375151
856.640225	0.375609
856.826672	0.375463
857.013101	0.376120
857.199511	0.377085
857.385903	0.377809
857.572277	0.377965
857.758633	0.378372
857.944970	0.378254
858.131290	0.379007
858.317591	0.379468
858.503873	0.380272
858.690138	0.380997
858.876384	0.381076
859.062612	0.381273
859.248822	0.382350
859.435014	0.383255
859.621188	0.383918
859.807343	0.384342
859.993480	0.384375
860.179599	0.385144
860.365699	0.385495
860.551781	0.385783
860.737846	0.386207
860.923891	0.386567
861.109919	0.387068
861.295929	0.387726
861.481920	0.387884
861.667893	0.389008
861.853848	0.389232
862.039784	0.389682
862.225702	0.390081
862.411603	0.390683
862.597484	0.391211
862.783348	0.391677
862.969193	0.392071
863.155021	0.392646
863.340830	0.392770
863.526620	0.393256
863.712393	0.393836
863.898147	0.394551
864.083883	0.395226
864.269601	0.395478
864.455301	0.396054
864.640982	0.397207
864.826645	0.397917
865.012290	0.398781
865.197917	0.399640
865.383526	0.400361
865.569116	0.400770
865.754688	0.401401
865.940242	0.402019
866.125777	0.402364
866.311295	0.402108
866.496794	0.402456
866.682275	0.403100
866.867737	0.403283
867.053182	0.403188
867.238608	0.403588
867.424016	0.403672
867.609406	0.404260
867.794778	0.404782
867.980131	0.404998
868.165466	0.405369
868.350783	0.405407
868.536082	0.406013
868.721362	0.406715
868.906625	0.407161
869.091869	0.407587
869.277094	0.407702
869.462302	0.407902
869.647491	0.408476
869.832662	0.408890
870.017815	0.409664
870.202950	0.409680
870.388066	0.409664
870.573165	0.410018
870.758245	0.410178
870.943306	0.410696
871.128350	0.411254
871.313375	0.411539
871.498382	0.412020
871.683371	0.411851
871.868342	0.412287
872.053294	0.412950
872.238229	0.413290
872.423144	0.414084
872.608042	0.414617
872.792922	0.414626
872.977783	0.414878
873.162626	0.415288
873.347451	0.416009
873.532258	0.416327
873.717046	0.416759
873.901816	0.416866
874.086568	0.416913
874.271302	0.416682
874.456017	0.417261
874.640715	0.417827
874.825394	0.417650
875.010055	0.417662
875.194697	0.418428
875.379322	0.418824
875.563928	0.419150
875.748516	0.419732
875.933085	0.419976
876.117637	0.420504
876.302170	0.420570
876.486685	0.421013
876.671182	0.421387
876.855661	0.421674
877.040121	0.421875
877.224563	0.422577
877.408987	0.422481
877.593393	0.423357
877.777780	0.423239
877.962150	0.424469
878.146501	0.424804
878.330833	0.425154
878.515148	0.425206
878.699444	0.425640
878.883722	0.426098
879.067982	0.426647
879.252224	0.426783
879.436447	0.427067
879.620653	0.426331
879.804840	0.426820
879.989008	0.427130
880.173159	0.427424
880.357291	0.427509
880.541405	0.427536
880.725501	0.427175
880.909579	0.427262
881.093638	0.427615
881.277680	0.428171
881.461703	0.427972
881.645707	0.427727
881.829694	0.427440
882.013662	0.427452
882.197612	0.427793
882.381544	0.428530
882.565458	0.428648
882.749353	0.428429
882.933230	0.428454
883.117089	0.428325
883.300930	0.428893
883.484753	0.429674
883.668557	0.429949
883.852343	0.429692
884.036111	0.429822
884.219861	0.429934
884.403592	0.430128
884.587305	0.430258
884.771000	0.430658
884.954677	0.431107
885.138335	0.430907
885.321976	0.430829
885.505598	0.431032
885.689201	0.430987
885.872787	0.431037
886.056354	0.431441
886.239904	0.431412
886.423434	0.431957
886.606947	0.431894
886.790442	0.432033
886.973918	0.432579
887.157376	0.432961
887.340816	0.433233
887.524237	0.433182
887.707641	0.433366
887.891026	0.433609
888.074393	0.433642
888.257741	0.433616
888.441072	0.433541
888.624384	0.433147
888.807678	0.432893
888.990954	0.433039
889.174211	0.433425
889.357451	0.433537
889.540672	0.433317
889.723875	0.432760
889.907059	0.432093
890.090226	0.431926
890.273374	0.431628
890.456504	0.431278
890.639616	0.431148
890.822709	0.430666
891.005785	0.430577
891.188842	0.430343
891.371881	0.430486
891.554901	0.431225
891.737904	0.431795
891.920888	0.431997
892.103854	0.431924
892.286802	0.431696
892.469731	0.432023
892.652643	0.431867
892.835536	0.432073
893.018410	0.432238
893.201267	0.431366
893.384106	0.430704
893.566926	0.430322
893.749728	0.430335
893.932511	0.430068
894.115277	0.429622
894.298024	0.429454
894.480753	0.429550
894.663464	0.429121
894.846157	0.429364
895.028831	0.428909
895.211487	0.429313
895.394125	0.429419
895.576745	0.429493
895.759346	0.429835
895.941930	0.429153
896.124495	0.428808
896.307041	0.428288
896.489570	0.428313
896.672080	0.428847
896.854573	0.428605
897.037046	0.428054
897.219502	0.427347
897.401940	0.426944
897.584359	0.427305
897.766760	0.426995
897.949143	0.427552
898.131507	0.427157
898.313854	0.426770
898.496182	0.426340
898.678492	0.425942
898.860783	0.426175
899.043057	0.425972
899.225312	0.425875
899.407549	0.425509
899.589768	0.424892
899.771968	0.424480
899.954151	0.423827
900.136315	0.423127
900.318461	0.423555
900.500588	0.423142
900.682698	0.422831
900.864789	0.422548
901.046862	0.422402
901.228917	0.422160
901.410953	0.421422
901.592971	0.421224
901.774972	0.421411
901.956953	0.420548
902.138917	0.420444
902.320862	0.419967
902.502790	0.419667
902.684699	0.419545
902.866589	0.419110
903.048462	0.419561
903.230316	0.419130
903.412152	0.418467
903.593970	0.418525
903.775770	0.418009
903.957551	0.417482
904.139314	0.416916
904.321059	0.416158
904.502786	0.415955
904.684494	0.415439
904.866185	0.415243
905.047857	0.415177
905.229510	0.413971
905.411146	0.413556
905.592763	0.412918
905.774363	0.412167
905.955943	0.412005
906.137506	0.411174
906.319051	0.410267
906.500577	0.409361
906.682085	0.408151
906.863575	0.408100
907.045046	0.407639
907.226500	0.407356
907.407935	0.406336
907.589352	0.405676
907.770750	0.405111
907.952131	0.404776
908.133493	0.404065
908.314837	0.404042
908.496163	0.403394
908.677470	0.402811
908.858760	0.402104
909.040031	0.402305
909.221284	0.401001
909.402518	0.400652
909.583735	0.399434
909.764933	0.399126
909.946113	0.398288
910.127275	0.397580
910.308418	0.396613
910.489544	0.396356
910.670651	0.395620
910.851740	0.395734
911.032810	0.394809
911.213863	0.394362
911.394897	0.393791
911.575913	0.393429
911.756911	0.392915
911.937890	0.392814
912.118851	0.391956
912.299794	0.391259
912.480719	0.390830
912.661626	0.390501
912.842514	0.389740
913.023384	0.389765
913.204236	0.389111
913.385070	0.389120
913.565886	0.388037
913.746683	0.387348
913.927462	0.386465
914.108223	0.385543
914.288965	0.385004
914.469690	0.384968
914.650396	0.383754
914.831084	0.383159
915.011754	0.381956
915.192405	0.381122
915.373038	0.380222
915.553653	0.379289
915.734250	0.378988
915.914829	0.378222
916.095389	0.377165
916.275931	0.376027
916.456455	0.374965
916.636961	0.373851
916.817448	0.373684
916.997917	0.372782
917.178368	0.372443
917.358801	0.370449
917.539216	0.369080
917.719612	0.368699
917.899990	0.368303
918.080350	0.367478
918.260692	0.366483
918.441015	0.365696
918.621320	0.365226
918.801607	0.364208
918.981876	0.363655
919.162127	0.363307
919.342359	0.361875
919.522573	0.361239
919.702769	0.360579
919.882947	0.359963
920.063106	0.359139
920.243247	0.357482
920.423370	0.356385
920.603475	0.355748
920.783562	0.354000
920.963630	0.353218
921.143680	0.351481
921.323712	0.350545
921.503725	0.349624
921.683721	0.348556
921.863698	0.348648
922.043657	0.348156
922.223598	0.347578
922.403520	0.347453
922.583424	0.347012
922.763311	0.347091
922.943178	0.345631
923.123028	0.344505
923.302859	0.343399
923.482673	0.341792
923.662467	0.340232
923.842244	0.339295
924.022003	0.337933
924.201743	0.336588
924.381465	0.335025
924.561169	0.334083
924.740854	0.333172
924.920522	0.331585
925.100171	0.331100
925.279802	0.330920
925.459414	0.329162
925.639009	0.328158
925.818585	0.326425
925.998143	0.325165
926.177683	0.323835
926.357205	0.323128
926.536708	0.322382
926.716193	0.321161
926.895660	0.319842
927.075109	0.319214
927.254539	0.318933
927.433951	0.319247
927.613345	0.318535
927.792721	0.317975
927.972079	0.317001
928.151418	0.315932
928.330739	0.314636
928.510042	0.313089
928.689327	0.311724
928.868593	0.310309
929.047841	0.308872
929.227071	0.307530
929.406283	0.306397
929.585476	0.305141
929.764652	0.304254
929.943809	0.303909
930.122948	0.303212
930.302068	0.302404
930.481171	0.301471
930.660255	0.299595
930.839321	0.298181
931.018369	0.297366
931.197398	0.296092
931.376409	0.294593
931.555402	0.293083
931.734377	0.291327
931.913334	0.289349
932.092272	0.287574
932.271192	0.286630
932.450094	0.285675
932.628978	0.284166
932.807844	0.282639
932.986691	0.281231
933.165520	0.279205
933.344331	0.277532
933.523123	0.277413
933.701898	0.275859
933.880654	0.274919
934.059392	0.273644
934.238111	0.271769
934.416813	0.270415
934.595496	0.269370
934.774161	0.269004
934.952808	0.268775
935.131437	0.267443
935.310047	0.266517
935.488639	0.265962
935.667213	0.265338
935.845769	0.264094
936.024306	0.263569
936.202825	0.262091
936.381326	0.260697
936.559809	0.260191
936.738274	0.257991
936.916720	0.256486
937.095148	0.254270
937.273558	0.252636
937.451950	0.252812
937.630323	0.250915
937.808678	0.250043
937.987015	0.248164
938.165334	0.246559
938.343635	0.245891
938.521917	0.244805
938.700181	0.244480
938.878427	0.242890
939.056655	0.241404
939.234864	0.240893
939.413055	0.239159
939.591228	0.238716
939.769383	0.236529
939.947519	0.235687
940.125638	0.234904
940.303738	0.232805
940.481820	0.231752
940.659883	0.230028
940.837929	0.227275
941.015956	0.226412
941.193965	0.225115
941.371955	0.223582
941.549928	0.222245
941.727882	0.220189
941.905818	0.217837
942.083736	0.217001
942.261636	0.214866
942.439517	0.214744
942.617380	0.212871
942.795225	0.210674
942.973052	0.210783
943.150860	0.208309
943.328651	0.207589
943.506423	0.206724
943.684176	0.204681
943.861912	0.203580
944.039629	0.201293
944.217328	0.199649
944.395009	0.198557
944.572672	0.196561
944.750317	0.196041
944.927943	0.194305
945.105551	0.193722
945.283141	0.191445
945.460712	0.191220
945.638265	0.189949
945.815801	0.188483
945.993317	0.187159
946.170816	0.185432
946.348297	0.183269
946.525759	0.182423
946.703203	0.179710
946.880629	0.178157
947.058036	0.175610
947.235425	0.174749
947.412797	0.173762
947.590149	0.172026
947.767484	0.170074
947.944800	0.169476
948.122099	0.167080
948.299379	0.165881
948.476640	0.166066
948.653884	0.164297
948.831109	0.162095
949.008316	0.160971
949.185505	0.159400
949.362676	0.156700
949.539828	0.154509
949.716962	0.153967
949.894078	0.152872
950.071176	0.150653
950.248256	0.149800
950.425317	0.149827
950.602360	0.149804
950.779385	0.148028
950.956391	0.149203
951.133380	0.148118
951.310350	0.147214
951.487302	0.145564
951.664235	0.144679
951.841151	0.142873
952.018048	0.142390
952.194927	0.140332
952.371788	0.141108
952.548631	0.138700
952.725455	0.135734
952.902261	0.133615
953.079049	0.131847
953.255819	0.130611
953.432570	0.130711
953.609303	0.127606
953.786018	0.125232
953.962715	0.121177
954.139394	0.120289
954.316054	0.121567
954.492696	0.119838
954.669320	0.118775
954.845926	0.116650
955.022513	0.114233
955.199083	0.114169
955.375634	0.114050
955.552166	0.114506
955.728681	0.112154
955.905177	0.110875
956.081655	0.110522
956.258115	0.111488
956.434557	0.112125
956.610980	0.110687
956.787385	0.108407
956.963772	0.107442
957.140141	0.106812
957.316492	0.105833
957.492824	0.105676
957.669138	0.106043
957.845434	0.103622
958.021712	0.102059
958.197971	0.103138
958.374212	0.101938
958.550435	0.100851
958.726640	0.099388
958.902826	0.100082
959.078995	0.098730
959.255145	0.097213
959.431277	0.096467
959.607390	0.096721
959.783486	0.094863
959.959563	0.094780
960.135622	0.094823
960.311662	0.093540
960.487685	0.091349
960.663689	0.089355
960.839675	0.087096
961.015643	0.085809
961.191593	0.082393
961.367524	0.082610
961.543437	0.080951
961.719332	0.078106
961.895209	0.078489
962.071067	0.078757
962.246907	0.077541
962.422730	0.078604
962.598533	0.080027
962.774319	0.080655
962.950086	0.080094
963.125835	0.081629
963.301566	0.081039
963.477279	0.079532
963.652973	0.078256
963.828650	0.079378
964.004308	0.079143
964.179947	0.078980
964.355569	0.078989
964.531172	0.077749
964.706757	0.076699
964.882324	0.077814
965.057873	0.080051
965.233403	0.080981
965.408916	0.078844
965.584410	0.078389
965.759885	0.078587
965.935343	0.075644
966.110782	0.075394
966.286203	0.074683
966.461606	0.075334
966.636991	0.073382
966.812357	0.072867
966.987705	0.071917
967.163035	0.071454
967.338347	0.068881
967.513641	0.071955
967.688916	0.071696
967.864173	0.070259
968.039412	0.070889
968.214632	0.069708
968.389835	0.069442
968.565019	0.072680
968.740185	0.069862
968.915333	0.069971
969.090462	0.066792
969.265573	0.067372
969.440667	0.065931
969.615741	0.063297
969.790798	0.061873
969.965836	0.062651
970.140856	0.062836
970.315858	0.064380
970.490842	0.063964
970.665808	0.065554
970.840755	0.064294
971.015684	0.064244
971.190595	0.065789
971.365487	0.069003
971.540362	0.068879
971.715218	0.066003
971.890056	0.068382
972.064875	0.070102
972.239677	0.071147
972.414460	0.072406
972.589225	0.076152
972.763972	0.074462
972.938700	0.074029
973.113411	0.073041
973.288103	0.075225
973.462777	0.072547
973.637432	0.068500
973.812070	0.069776
973.986689	0.070466
974.161290	0.069827
974.335873	0.069737
974.510437	0.068555
974.684984	0.069337
974.859512	0.067449
975.034022	0.066087
975.208513	0.068197
975.382987	0.067107
975.557442	0.065364
975.731879	0.065650
975.906298	0.065491
976.080698	0.064364
976.255080	0.064704
976.429445	0.065738
976.603790	0.068969
976.778118	0.070136
976.952427	0.068451
977.126719	0.068317
977.300992	0.067001
977.475246	0.067306
977.649483	0.068631
977.823701	0.068387
977.997901	0.069542
978.172083	0.066377
978.346247	0.064581
978.520392	0.066215
978.694519	0.066464
978.868628	0.067787
979.042719	0.068863
979.216791	0.068247
979.390845	0.066708
979.564882	0.065532
979.738899	0.069188
979.912899	0.070005
980.086880	0.069182
980.260843	0.069855
980.434788	0.069320
980.608715	0.068231
980.782623	0.068972
980.956514	0.069374
981.130386	0.069776
981.304240	0.068206
981.478075	0.068033
981.651892	0.067650
981.825692	0.066320
981.999472	0.065415
982.173235	0.066521
982.346980	0.066758
982.520706	0.067974
982.694414	0.066847
982.868104	0.065569
983.041775	0.066661
983.215428	0.065668
983.389064	0.067420
983.562680	0.067139
983.736279	0.067530
983.909860	0.068592
984.083422	0.068035
984.256966	0.068361
984.430491	0.068694
984.603999	0.068365
984.777488	0.069757
984.950959	0.067348
985.124412	0.068633
985.297847	0.068791
985.471263	0.065855
985.644661	0.065505
985.818041	0.065360
985.991403	0.066844
986.164747	0.066833
986.338072	0.067941
986.511379	0.069812
986.684668	0.068488
986.857938	0.066086
987.031191	0.067357
987.204425	0.065721
987.377641	0.067217
987.550839	0.065267
987.724018	0.064391
987.897179	0.064642
988.070322	0.063611
988.243447	0.063588
988.416554	0.064237
988.589642	0.064530
988.762712	0.064639
988.935764	0.061169
989.108798	0.061388
989.281813	0.062422
989.454811	0.061719
989.627790	0.062191
989.800751	0.063730
989.973693	0.062284
990.146617	0.061738
990.319524	0.061917
990.492412	0.063088
990.665281	0.062497
990.838133	0.062614
991.010966	0.060731
991.183781	0.059997
991.356578	0.058165
991.529356	0.059531
991.702117	0.061660
991.874859	0.062310
992.047583	0.062337
992.220288	0.063409
992.392976	0.061789
992.565645	0.062660
992.738296	0.064936
992.910929	0.065782
993.083543	0.067846
993.256139	0.067649
993.428718	0.067955
993.601277	0.069663
993.773819	0.069709
993.946342	0.068916
994.118848	0.067915
994.291335	0.065616
994.463803	0.066123
994.636254	0.063811
994.808686	0.061801
994.981100	0.061162
995.153496	0.060276
995.325874	0.060192
995.498233	0.062209
995.670574	0.063317
995.842897	0.064183
996.015202	0.063512
996.187488	0.061709
996.359757	0.062896
996.532007	0.064404
996.704239	0.064017
996.876452	0.064339
997.048648	0.064573
997.220825	0.065259
997.392984	0.066065
997.565124	0.066064
997.737247	0.068002
997.909351	0.068535
998.081437	0.068084
998.253505	0.068072
998.425554	0.066532
998.597586	0.066262
998.769599	0.066137
998.941594	0.066351
999.113571	0.068474
999.285529	0.068726
999.457469	0.067779
999.629391	0.068695
999.801295	0.069347
999.973181	0.069422
1000.145048	0.068816
1000.316897	0.067949
1000.488728	0.065145
1000.660541	0.063889
1000.832335	0.065105
1001.004111	0.063913
1001.175869	0.062960
1001.347609	0.062992
1001.519331	0.064321
1001.691034	0.064932
1001.862719	0.065486
1002.034386	0.067183
1002.206035	0.066151
1002.377665	0.065459
1002.549277	0.066488
1002.720871	0.064455
1002.892447	0.065745
1003.064004	0.065937
1003.235544	0.065636
1003.407065	0.065624
1003.578568	0.067144
1003.750052	0.066449
1003.921519	0.066583
1004.092967	0.065823
1004.264397	0.067322
1004.435809	0.065631
1004.607202	0.065680
1004.778577	0.065912
1004.949934	0.068035
1005.121273	0.066047
1005.292594	0.067125
1005.463896	0.066864
1005.635180	0.069373
1005.806446	0.070067
1005.977694	0.069805
1006.148923	0.069930
1006.320135	0.070524
1006.491328	0.069924
1006.662503	0.070353
1006.833659	0.070785
1007.004798	0.071362
1007.175918	0.070886
1007.347020	0.069653
1007.518103	0.071255
1007.689169	0.070596
1007.860216	0.068958
1008.031245	0.067829
1008.202256	0.066557
1008.373248	0.067794
1008.544223	0.066929
1008.715179	0.066024
1008.886117	0.067299
1009.057036	0.067147
1009.227938	0.066382
1009.398821	0.069164
1009.569686	0.068410
1009.740533	0.069517
1009.911361	0.067577
1010.082172	0.067191
1010.252964	0.066271
1010.423738	0.066363
1010.594493	0.065014
1010.765231	0.065727
1010.935950	0.064057
1011.106651	0.062121
1011.277334	0.061535
1011.447998	0.062118
1011.618645	0.062008
1011.789273	0.063266
1011.959882	0.061791
1012.130474	0.061561
1012.301048	0.060548
1012.471603	0.059675
1012.642140	0.061324
1012.812658	0.061619
1012.983159	0.062742
1013.153641	0.063304
1013.324105	0.062176
1013.494551	0.063553
1013.664979	0.062278
1013.835388	0.064244
1014.005779	0.064385
1014.176152	0.064704
1014.346507	0.065981
1014.516843	0.064262
1014.687162	0.063918
1014.857462	0.064483
1015.027744	0.063023
1015.198007	0.062925
1015.368252	0.062483
1015.538480	0.062697
1015.708689	0.062700
1015.878879	0.061670
1016.049052	0.062384
1016.219206	0.062434
1016.389342	0.063300
1016.559460	0.063781
1016.729559	0.064444
1016.899641	0.063744
1017.069704	0.062769
1017.239749	0.063299
1017.409775	0.062500
1017.579784	0.061620
1017.749774	0.062083
1017.919746	0.059540
1018.089700	0.059497
1018.259635	0.060165
1018.429553	0.060936
1018.599452	0.060456
1018.769333	0.059746
1018.939195	0.060209
1019.109040	0.060776
1019.278866	0.061449
1019.448674	0.063708
1019.618464	0.064868
1019.788235	0.065002
1019.957989	0.065393
1020.127724	0.065463
1020.297441	0.065742
1020.467139	0.065321
1020.636820	0.064626
1020.806482	0.063859
1020.976126	0.063063
1021.145752	0.063025
1021.315359	0.063478
1021.484948	0.061612
1021.654519	0.062947
1021.824072	0.063592
1021.993607	0.064429
1022.163123	0.066201
1022.332621	0.065186
1022.502101	0.067134
1022.671563	0.066872
1022.841007	0.066794
1023.010432	0.067806
1023.179839	0.066987
1023.349228	0.066522
1023.518598	0.066291
1023.687951	0.064801
1023.857285	0.065776
1024.026601	0.063164
1024.195899	0.062308
1024.365178	0.063228
1024.534439	0.064167
1024.703682	0.065487
1024.872907	0.064557
1025.042114	0.065972
1025.211302	0.064725
1025.380472	0.064704
1025.549624	0.063442
1025.718758	0.064266
1025.887873	0.063030
1026.056970	0.062275
1026.226049	0.062311
1026.395110	0.063298
1026.564153	0.059961
1026.733177	0.061369
1026.902183	0.062153
1027.071171	0.064724
1027.240141	0.063649
1027.409092	0.062198
1027.578026	0.060674
1027.746940	0.059342
1027.915837	0.060283
1028.084716	0.061882
1028.253576	0.061213
1028.422418	0.059737
1028.591242	0.059737
1028.760048	0.059634
1028.928835	0.061753
1029.097604	0.062575
1029.266355	0.063266
1029.435088	0.061715
1029.603803	0.061944
1029.772499	0.063248
1029.941177	0.062870
1030.109837	0.062154
1030.278478	0.062499
1030.447102	0.061660
1030.615707	0.062001
1030.784294	0.062360
1030.952863	0.063245
1031.121413	0.062488
1031.289945	0.062042
1031.458460	0.062391
1031.626955	0.061945
1031.795433	0.060646
1031.963892	0.060815
1032.132334	0.059182
1032.300756	0.058327
1032.469161	0.056812
1032.637548	0.058543
1032.805916	0.059524
1032.974266	0.058717
1033.142598	0.058525
1033.310911	0.059406
1033.479207	0.059611
1033.647484	0.061187
1033.815743	0.061309
1033.983983	0.060930
1034.152206	0.061043
1034.320410	0.060323
1034.488596	0.060666
1034.656764	0.061278
1034.824914	0.061974
1034.993045	0.061411
1035.161158	0.061661
1035.329253	0.061172
1035.497330	0.061882
1035.665388	0.060307
1035.833428	0.060599
1036.001450	0.060905
1036.169454	0.061578
1036.337440	0.061367
1036.505407	0.061713
1036.673356	0.062378
1036.841287	0.063720
1037.009200	0.065142
1037.177094	0.065997
1037.344970	0.066287
1037.512828	0.067215
1037.680668	0.066351
1037.848489	0.066413
1038.016293	0.065962
1038.184078	0.064899
1038.351845	0.064014
1038.519593	0.062411
1038.687324	0.062962
1038.855036	0.061711
1039.022730	0.059885
1039.190406	0.060217
1039.358063	0.059599
1039.525702	0.061486
1039.693323	0.062266
1039.860926	0.063113
1040.028511	0.063332
1040.196077	0.060909
1040.363625	0.060636
1040.531155	0.062568
1040.698667	0.064467
1040.866161	0.064093
1041.033636	0.061705
1041.201093	0.060864
1041.368532	0.061529
1041.535952	0.062913
1041.703355	0.065449
1041.870739	0.065238
1042.038105	0.064136
1042.205452	0.061220
1042.372782	0.061936
1042.540093	0.061644
1042.707386	0.060842
1042.874661	0.059862
1043.041918	0.057889
1043.209156	0.058012
1043.376376	0.059890
1043.543578	0.058770
1043.710762	0.060413
1043.877927	0.060217
1044.045074	0.061655
1044.212203	0.062602
1044.379314	0.062874
1044.546407	0.063341
1044.713481	0.063252
1044.880537	0.062835
1045.047575	0.063701
1045.214595	0.061740
1045.381596	0.061253
1045.548579	0.059945
1045.715544	0.059429
1045.882491	0.059692
1046.049420	0.060895
1046.216330	0.061942
1046.383222	0.060439
1046.550096	0.063061
1046.716951	0.064534
1046.883789	0.065491
1047.050608	0.065590
1047.217409	0.066628
1047.384192	0.065661
1047.550956	0.064168
1047.717703	0.061924
1047.884431	0.063266
1048.051140	0.061502
1048.217832	0.061707
1048.384505	0.062507
1048.551161	0.064274
1048.717798	0.062960
1048.884416	0.063773
1049.051017	0.064520
1049.217599	0.066088
1049.384163	0.065606
1049.550709	0.065009
1049.717237	0.062917
1049.883746	0.062326
1050.050237	0.059738
1050.216710	0.060465
1050.383165	0.059771
1050.549601	0.058779
1050.716019	0.057006
1050.882420	0.056697
1051.048801	0.057320
1051.215165	0.058541
1051.381510	0.057932
1051.547837	0.058306
1051.714146	0.057174
1051.880437	0.058103
1052.046709	0.058879
1052.212964	0.060242
1052.379200	0.060592
1052.545417	0.062122
1052.711617	0.060708
1052.877798	0.062624
1053.043961	0.063494
1053.210106	0.063664
1053.376233	0.062914
1053.542341	0.066543
1053.708432	0.064834
1053.874504	0.065723
1054.040557	0.064183
1054.206593	0.067010
1054.372610	0.065112
1054.538609	0.066086
1054.704590	0.068413
1054.870553	0.069682
1055.036497	0.068957
1055.202424	0.070864
1055.368331	0.070493
1055.534221	0.070631
1055.700093	0.070289
1055.865946	0.071846
1056.031781	0.072436
1056.197598	0.071067
1056.363397	0.070169
1056.529177	0.067457
1056.694939	0.068414
1056.860683	0.068772
1057.026409	0.069406
1057.192116	0.069077
1057.357806	0.068556
1057.523477	0.068403
1057.689130	0.068323
1057.854764	0.067578
1058.020381	0.068485
1058.185979	0.065495
1058.351559	0.065662
1058.517120	0.065724
1058.682664	0.065443
1058.848189	0.063364
1059.013696	0.062364
1059.179185	0.063272
1059.344656	0.063461
1059.510108	0.062870
1059.675542	0.064380
1059.840958	0.064056
1060.006356	0.063948
1060.171735	0.063227
1060.337096	0.064195
1060.502439	0.065441
1060.667764	0.065049
1060.833071	0.067438
1060.998359	0.066810
1061.163629	0.067129
1061.328881	0.066497
1061.494115	0.067468
1061.659330	0.069187
1061.824527	0.070425
1061.989706	0.070148
1062.154867	0.070730
1062.320010	0.070460
1062.485134	0.069662
1062.650240	0.068917
1062.815328	0.068580
1062.980398	0.069043
1063.145449	0.068959
1063.310482	0.068963
1063.475497	0.068706
1063.640494	0.069425
1063.805473	0.069418
1063.970433	0.070378
1064.135375	0.070214
1064.300299	0.069714
1064.465204	0.068707
1064.630092	0.066800
1064.794961	0.067416
1064.959812	0.067222
1065.124645	0.066581
1065.289459	0.064720
1065.454256	0.065517
1065.619034	0.067064
1065.783793	0.068476
1065.948535	0.068347
1066.113258	0.069856
1066.277964	0.068147
1066.442651	0.070371
1066.607319	0.071746
1066.771970	0.071838
1066.936602	0.071174
1067.101216	0.070845
1067.265812	0.071259
1067.430389	0.070333
1067.594949	0.069415
1067.759490	0.070004
1067.924013	0.068167
1068.088518	0.066836
1068.253004	0.069257
1068.417472	0.068581
1068.581922	0.066749
1068.746354	0.065772
1068.910768	0.065929
1069.075163	0.066182
1069.239540	0.069082
1069.403899	0.070663
1069.568240	0.069261
1069.732562	0.069205
1069.896866	0.071838
1070.061152	0.072393
1070.225420	0.072020
1070.389670	0.073299
1070.553901	0.075381
1070.718114	0.072715
1070.882309	0.072740
1071.046486	0.073404
1071.210644	0.071600
1071.374784	0.070293
1071.538906	0.069500
1071.703010	0.072718
1071.867096	0.073149
1072.031163	0.073692
1072.195212	0.076034
1072.359243	0.073018
1072.523256	0.073573
1072.687250	0.074312
1072.851226	0.075439
1073.015184	0.076872
1073.179124	0.074452
1073.343045	0.073730
1073.506949	0.071911
1073.670834	0.069960
1073.834701	0.071980
1073.998549	0.072764
1074.162380	0.073892
1074.326192	0.074880
1074.489986	0.075545
1074.653761	0.074918
1074.817519	0.074245
1074.981258	0.075985
1075.144979	0.075498
1075.308682	0.076222
1075.472367	0.076088
1075.636033	0.075073
1075.799681	0.073572
1075.963311	0.074941
1076.126923	0.076112
1076.290516	0.079004
1076.454092	0.077492
1076.617649	0.079702
1076.781187	0.079489
1076.944708	0.082842
1077.108210	0.082735
1077.271695	0.082870
1077.435160	0.081427
1077.598608	0.081362
1077.762038	0.080584
1077.925449	0.079932
1078.088842	0.079964
1078.252217	0.079356
1078.415573	0.075699
1078.578912	0.074934
1078.742232	0.074212
1078.905534	0.074199
1079.068817	0.073745
1079.232083	0.073043
1079.395330	0.076179
1079.558559	0.075969
1079.721770	0.078439
1079.884962	0.076867
1080.048136	0.076986
1080.211293	0.077523
1080.374430	0.078595
1080.537550	0.079114
1080.700651	0.077867
1080.863735	0.075955
1081.026800	0.077033
1081.189846	0.074579
1081.352875	0.076538
1081.515885	0.077420
1081.678877	0.079412
1081.841851	0.080198
1082.004807	0.081702
1082.167744	0.082038
1082.330663	0.082192
1082.493564	0.081663
1082.656447	0.080420
1082.819312	0.080459
1082.982158	0.079797
1083.144986	0.079259
1083.307796	0.079242
1083.470587	0.077703
1083.633361	0.079484
1083.796116	0.079526
1083.958853	0.080900
1084.121571	0.083057
1084.284272	0.085880
1084.446954	0.086825
1084.609618	0.086317
1084.772264	0.085483
1084.934892	0.086732
1085.097501	0.086809
1085.260092	0.086385
1085.422665	0.084450
1085.585220	0.082945
1085.747756	0.081544
1085.910274	0.081875
1086.072774	0.080631
1086.235256	0.080891
1086.397720	0.081731
1086.560165	0.083628
1086.722592	0.086038
1086.885001	0.084956
1087.047392	0.086249
1087.209764	0.083244
1087.372119	0.086405
1087.534455	0.086928
1087.696772	0.086481
1087.859072	0.084081
1088.021353	0.083394
1088.183616	0.080426
1088.345861	0.080547
1088.508088	0.081429
1088.670296	0.086481
1088.832486	0.082223
1088.994658	0.085030
1089.156812	0.085794
1089.318948	0.089459
1089.481065	0.088552
1089.643164	0.090131
1089.805245	0.093364
1089.967308	0.093124
1090.129352	0.087973
1090.291378	0.087670
1090.453386	0.086434
1090.615376	0.086913
1090.777347	0.085550
1090.939301	0.082402
1091.101236	0.086598
1091.263153	0.085220
1091.425051	0.087886
1091.586932	0.092311
1091.748794	0.095468
1091.910638	0.096095
1092.072463	0.097438
1092.234271	0.097289
1092.396060	0.099755
1092.557831	0.097083
1092.719584	0.095518
1092.881319	0.094904
1093.043035	0.093625
1093.204733	0.094802
1093.366413	0.094332
1093.528075	0.095011
1093.689718	0.093906
1093.851343	0.094972
1094.012950	0.093989
1094.174539	0.093254
1094.336110	0.091497
1094.497662	0.090814
1094.659196	0.088219
1094.820712	0.090537
1094.982210	0.090395
1095.143689	0.091513
1095.305151	0.096354
1095.466594	0.094550
1095.628018	0.094236
1095.789425	0.098101
1095.950813	0.098534
1096.112183	0.099129
1096.273535	0.099403
1096.434869	0.098001
1096.596184	0.098640
1096.757482	0.091436
1096.918761	0.095952
1097.080021	0.098121
1097.241264	0.094275
1097.402488	0.093490
1097.563694	0.093804
1097.724882	0.095199
1097.886052	0.095211
1098.047203	0.096334
1098.208336	0.096722
1098.369451	0.094556
1098.530548	0.091923
1098.691627	0.093863
1098.852687	0.095238
1099.013729	0.094498
1099.174753	0.090567
1099.335758	0.088981
1099.496746	0.086097
1099.657715	0.087398
1099.818666	0.089211
1099.979599	0.092809
1100.140513	0.094119
1100.301409	0.097174
1100.462287	0.098535
1100.623147	0.097948
1100.783989	0.098047
1100.944812	0.096190
1101.105617	0.098296
1101.266404	0.096269
1101.427173	0.099615
1101.587923	0.095993
1101.748656	0.090069
1101.909370	0.093169
1102.070066	0.094200
1102.230743	0.097517
1102.391403	0.100824
1102.552044	0.100650
1102.712667	0.099988
1102.873271	0.098432
1103.033858	0.098235
1103.194426	0.100358
1103.354976	0.100439
1103.515508	0.103136
1103.676021	0.100873
1103.836517	0.102294
1103.996994	0.100312
1104.157453	0.103578
1104.317893	0.103804
1104.478316	0.103980
1104.638720	0.104614
1104.799106	0.099680
1104.959474	0.097042
1105.119823	0.095363
1105.280155	0.094538
1105.440468	0.092497
1105.600763	0.088353
1105.761039	0.091777
1105.921298	0.094936
1106.081538	0.095413
1106.241760	0.101376
1106.401964	0.100623
1106.562149	0.103848
1106.722316	0.105465
1106.882465	0.108784
1107.042596	0.112498
1107.202709	0.107399
1107.362803	0.104341
1107.522879	0.104158
1107.682937	0.098110
1107.842977	0.099653
1108.002999	0.099424
1108.163002	0.099787
1108.322987	0.102503
1108.482954	0.097219
1108.642902	0.099645
1108.802833	0.101056
1108.962745	0.102480
1109.122639	0.101662
1109.282515	0.101892
1109.442372	0.102248
1109.602211	0.101160
1109.762032	0.098216
1109.921835	0.102393
1110.081620	0.097596
1110.241386	0.100011
1110.401134	0.101177
1110.560864	0.105472
1110.720576	0.102284
1110.880269	0.104553
1111.039945	0.103421
1111.199602	0.104640
1111.359240	0.105912
1111.518861	0.109585
1111.678463	0.106781
1111.838047	0.106369
1111.997613	0.108290
1112.157161	0.109225
1112.316690	0.110170
1112.476202	0.112012
1112.635695	0.112824
1112.795169	0.113996
1112.954626	0.115203
1113.114064	0.117632
1113.273484	0.116482
1113.432886	0.116581
1113.592270	0.117854
1113.751635	0.115032
1113.910983	0.113748
1114.070312	0.117321
1114.229622	0.113137
1114.388915	0.114003
1114.548189	0.109906
1114.707445	0.109276
1114.866683	0.106778
1115.025903	0.108140
1115.185104	0.108630
1115.344287	0.111520
1115.503452	0.108356
1115.662599	0.113222
1115.821727	0.113956
1115.980838	0.117718
1116.139930	0.121567
1116.299004	0.124580
1116.458059	0.122334
1116.617097	0.120673
1116.776116	0.119570
1116.935117	0.118325
1117.094099	0.115493
1117.253064	0.112002
1117.412010	0.112823
1117.570938	0.106991
1117.729848	0.108100
1117.888740	0.111163
1118.047613	0.114508
1118.206468	0.114598
1118.365305	0.115554
1118.524124	0.116454
1118.682924	0.117391
1118.841707	0.118620
1119.000471	0.127268
1119.159216	0.126121
1119.317944	0.126574
1119.476653	0.124230
1119.635344	0.126004
1119.794017	0.128729
1119.952672	0.126096
1120.111308	0.122798
1120.269927	0.121413
1120.428527	0.114818
1120.587108	0.114725
1120.745672	0.119514
1120.904217	0.119741
1121.062744	0.121360
1121.221253	0.115223
1121.379744	0.116886
1121.538216	0.120204
1121.696671	0.117210
1121.855107	0.118149
1122.013524	0.115006
1122.171924	0.108319
1122.330305	0.108604
1122.488668	0.106703
1122.647013	0.109405
1122.805340	0.112744
1122.963648	0.115292
1123.121938	0.125131
1123.280210	0.129814
1123.438464	0.133039
1123.596700	0.135764
1123.754917	0.137228
1123.913116	0.136525
1124.071297	0.131024
1124.229459	0.127573
1124.387604	0.124155
1124.545730	0.117219
1124.703838	0.112415
1124.861928	0.112470
1125.019999	0.109751
1125.178052	0.110260
1125.336088	0.108851
1125.494104	0.120391
1125.652103	0.122981
1125.810083	0.126019
1125.968045	0.129099
1126.125989	0.132298
1126.283915	0.130050
1126.441823	0.127922
1126.599712	0.127495
1126.757583	0.130830
1126.915436	0.122467
1127.073270	0.119324
1127.231087	0.113496
1127.388885	0.112466
1127.546665	0.117465
1127.704426	0.123060
1127.862170	0.126133
1128.019895	0.127140
1128.177602	0.125300
1128.335291	0.127474
1128.492961	0.135876
1128.650614	0.150064
1128.808248	0.145990
1128.965864	0.138247
1129.123461	0.133088
1129.281041	0.130598
1129.438602	0.128305
1129.596145	0.128787
1129.753670	0.130174
1129.911176	0.122137
1130.068665	0.108848
1130.226135	0.113114
1130.383587	0.120281
1130.541020	0.121415
1130.698436	0.127808
1130.855833	0.129274
1131.013212	0.125832
1131.170573	0.125272
1131.327915	0.128458
1131.485239	0.133528
1131.642545	0.129108
1131.799833	0.128457
1131.957103	0.130280
1132.114354	0.130300
1132.271588	0.130741
1132.428803	0.129772
1132.585999	0.128992
1132.743178	0.126429
1132.900338	0.124114
1133.057480	0.129164
1133.214604	0.124770
1133.371710	0.118064
1133.528797	0.118414
1133.685866	0.115538
1133.842917	0.119339
1133.999950	0.122551
1134.156964	0.121712
1134.313960	0.126666
1134.470938	0.124699
1134.627898	0.126567
1134.784840	0.131472
1134.941763	0.132344
1135.098668	0.137094
1135.255555	0.138914
1135.412424	0.137781
1135.569274	0.147651
1135.726107	0.142767
1135.882921	0.147443
1136.039716	0.149374
1136.196494	0.148982
1136.353253	0.139669
1136.509995	0.131340
1136.666717	0.129745
1136.823422	0.126182
1136.980109	0.121794
1137.136777	0.120140
1137.293427	0.114062
1137.450059	0.109999
1137.606672	0.108384
1137.763267	0.115533
1137.919844	0.120473
1138.076403	0.122797
1138.232944	0.125803
1138.389466	0.129522
1138.545971	0.140820
1138.702457	0.139119
1138.858924	0.141856
1139.015374	0.150340
1139.171805	0.149777
1139.328218	0.150791
1139.484613	0.147060
1139.640990	0.147494
1139.797348	0.141246
1139.953688	0.136344
1140.110010	0.140399
1140.266314	0.133835
1140.422600	0.122664
1140.578867	0.132061
1140.735116	0.133093
1140.891347	0.132128
1141.047559	0.131814
1141.203754	0.133607
1141.359930	0.136299
1141.516088	0.136266
1141.672228	0.148103
1141.828349	0.151367
1141.984452	0.148335
1142.140537	0.152046
1142.296604	0.158790
1142.452653	0.151140
1142.608683	0.152284
1142.764695	0.151431
1142.920689	0.155076
1143.076665	0.148468
1143.232622	0.143787
1143.388562	0.132886
1143.544483	0.123576
1143.700385	0.122795
1143.856270	0.131554
1144.012136	0.124636
1144.167985	0.122233
1144.323814	0.122557
1144.479626	0.124136
1144.635420	0.117533
1144.791195	0.123496
1144.946952	0.130677
1145.102691	0.124679
1145.258411	0.115367
1145.414113	0.123350
1145.569798	0.124793
1145.725463	0.121646
1145.881111	0.117555
1146.036741	0.134424
1146.192352	0.136058
1146.347945	0.136459
1146.503519	0.146353
1146.659076	0.152318
1146.814614	0.145651
1146.970134	0.150403
1147.125636	0.145982
1147.281120	0.151797
1147.436585	0.149340
1147.592032	0.152446
1147.747461	0.150246
1147.902872	0.140642
1148.058265	0.139256
1148.213639	0.139600
1148.368995	0.131395
1148.524333	0.145745
1148.679653	0.134413
1148.834954	0.136566
1148.990237	0.129484
1149.145502	0.126342
1149.300749	0.133194
1149.455977	0.133837
1149.611188	0.137944
1149.766380	0.142323
1149.921553	0.135875
1150.076709	0.138265
1150.231846	0.138153
1150.386966	0.126508
1150.542066	0.127819
1150.697149	0.118942
1150.852214	0.121453
1151.007260	0.126324
1151.162288	0.121985
1151.317298	0.121247
1151.472289	0.114825
1151.627263	0.111311
1151.782218	0.124957
1151.937155	0.128962
1152.092073	0.137219
1152.246974	0.141077
1152.401856	0.136419
1152.556720	0.136110
1152.711566	0.138846
1152.866393	0.155664
1153.021203	0.160952
1153.175994	0.153976
1153.330767	0.142071
1153.485521	0.148745
1153.640258	0.148783
1153.794976	0.148887
1153.949676	0.155476
1154.104358	0.152982
1154.259021	0.156880
1154.413667	0.155573
1154.568294	0.166674
1154.722903	0.160626
1154.877493	0.151505
1155.032066	0.155386
1155.186620	0.157659
1155.341156	0.152603
1155.495674	0.153568
1155.650173	0.150372
1155.804654	0.150600
1155.959118	0.153491
1156.113562	0.166192
1156.267989	0.159243
1156.422397	0.153957
1156.576788	0.150753
1156.731160	0.149366
1156.885513	0.144293
1157.039849	0.140588
1157.194166	0.139157
1157.348465	0.134278
1157.502746	0.125355
1157.657009	0.136259
1157.811253	0.137942
1157.965479	0.135237
1158.119687	0.140247
1158.273877	0.139697
1158.428048	0.134257
1158.582201	0.134709
1158.736337	0.131922
1158.890453	0.137965
1159.044552	0.134792
1159.198632	0.126224
1159.352694	0.133976
1159.506738	0.136022
1159.660764	0.131820
1159.814771	0.132211
1159.968761	0.130222
1160.122732	0.123956
1160.276685	0.128670
1160.430619	0.134897
1160.584535	0.132269
1160.738434	0.130910
1160.892313	0.125590
1161.046175	0.119947
1161.200019	0.130546
1161.353844	0.126157
1161.507651	0.143897
1161.661440	0.135852
1161.815210	0.136714
1161.968962	0.149057
1162.122697	0.150615
1162.276412	0.147262
1162.430110	0.156156
1162.583789	0.158054
1162.737451	0.156989
1162.891094	0.137769
1163.044718	0.135152
1163.198325	0.120856
1163.351913	0.120842
1163.505483	0.113033
1163.659035	0.120017
1163.812569	0.108824
1163.966084	0.089019
1164.119581	0.104869
1164.273060	0.096682
1164.426521	0.106549
1164.579964	0.108803
1164.733388	0.099845
1164.886794	0.096333
1165.040182	0.082164
1165.193551	0.106363
1165.346903	0.117595
1165.500236	0.111280
1165.653551	0.135285
1165.806848	0.131795
1165.960126	0.134277
1166.113386	0.139809
1166.266628	0.158921
1166.419852	0.161486
1166.573058	0.148614
1166.726245	0.143473
1166.879414	0.132648
1167.032565	0.111853
1167.185698	0.124247
1167.338812	0.125902
1167.491909	0.130448
1167.644987	0.125420
1167.798046	0.133074
1167.951088	0.135800
1168.104111	0.144953
1168.257117	0.147942
1168.410103	0.176964
1168.563072	0.178913
1168.716023	0.171309
1168.868955	0.173425
1169.021869	0.182858
1169.174765	0.179834
1169.327642	0.170048
1169.480501	0.163743
1169.633343	0.167448
1169.786165	0.137351
1169.938970	0.125369
1170.091757	0.123264
1170.244525	0.113403
1170.397275	0.104366
1170.550007	0.120869
1170.702720	0.130496
1170.855415	0.137102
1171.008092	0.133548
1171.160751	0.145319
1171.313392	0.147751
1171.466014	0.198455
1171.618619	0.124125
1171.771205	0.124125
1171.923772	0.124125
