sample name	sample
index	1405
start time	 05-10-2021  11:23:23 AM


Wavelength (nm)	Absorbance
494.344910	0.006792
494.563924	0.006792
494.782919	0.006792
495.001897	0.014930
495.220856	0.004058
495.439797	0.003718
495.658719	0.001454
495.877624	0.002027
496.096510	0.016486
496.315378	0.008014
496.534227	0.009667
496.753059	0.012637
496.971872	0.012443
497.190667	0.108439
497.409444	0.145131
497.628203	0.155682
497.846943	0.161037
498.065665	0.162959
498.284369	0.165452
498.503055	0.166557
498.721723	0.168558
498.940372	0.169254
499.159003	0.169133
499.377616	0.168717
499.596210	0.168511
499.814787	0.168538
500.033345	0.169651
500.251885	0.169303
500.470406	0.170406
500.688910	0.170649
500.907395	0.172139
501.125862	0.172804
501.344311	0.173315
501.562742	0.173526
501.781154	0.174210
501.999548	0.172914
502.217924	0.174049
502.436282	0.173902
502.654621	0.172600
502.872942	0.171193
503.091245	0.171163
503.309530	0.171468
503.527797	0.171778
503.746045	0.171307
503.964275	0.171998
504.182487	0.172185
504.400681	0.172493
504.618856	0.173600
504.837013	0.175058
505.055152	0.174999
505.273273	0.175288
505.491376	0.175633
505.709460	0.176290
505.927526	0.175742
506.145574	0.175245
506.363604	0.175392
506.581615	0.176194
506.799608	0.176380
507.017583	0.177165
507.235540	0.176169
507.453478	0.176143
507.671399	0.176287
507.889301	0.177606
508.107185	0.179014
508.325050	0.179136
508.542898	0.178264
508.760727	0.178631
508.978538	0.178366
509.196330	0.178992
509.414105	0.179351
509.631861	0.178437
509.849599	0.177357
510.067319	0.177854
510.285021	0.178569
510.502704	0.178242
510.720369	0.177283
510.938016	0.178407
511.155645	0.179016
511.373255	0.178895
511.590848	0.180027
511.808422	0.180589
512.025977	0.179818
512.243515	0.180394
512.461034	0.181700
512.678536	0.182841
512.896018	0.182758
513.113483	0.182802
513.330930	0.183338
513.548358	0.183659
513.765768	0.184521
513.983160	0.185152
514.200533	0.184951
514.417889	0.185432
514.635226	0.185630
514.852545	0.185807
515.069845	0.186162
515.287128	0.185639
515.504392	0.186617
515.721638	0.186780
515.938866	0.187184
516.156075	0.186361
516.373267	0.186153
516.590440	0.186631
516.807594	0.186935
517.024731	0.187420
517.241850	0.188552
517.458950	0.189005
517.676032	0.189466
517.893095	0.190311
518.110141	0.191047
518.327168	0.191909
518.544177	0.192103
518.761168	0.192375
518.978141	0.192079
519.195095	0.191922
519.412031	0.191165
519.628949	0.191681
519.845849	0.191110
520.062731	0.192223
520.279594	0.192438
520.496439	0.192464
520.713266	0.192382
520.930074	0.193539
521.146865	0.194093
521.363637	0.195167
521.580391	0.195410
521.797127	0.195756
522.013844	0.195239
522.230543	0.194831
522.447224	0.195350
522.663887	0.196176
522.880532	0.195850
523.097158	0.196495
523.313766	0.196551
523.530356	0.196139
523.746928	0.196188
523.963481	0.196955
524.180017	0.197766
524.396534	0.198325
524.613032	0.197720
524.829513	0.197782
525.045975	0.197829
525.262420	0.198132
525.478845	0.199111
525.695253	0.199467
525.911643	0.199615
526.128014	0.199815
526.344367	0.200184
526.560702	0.200576
526.777018	0.201315
526.993316	0.202167
527.209597	0.201765
527.425858	0.201797
527.642102	0.202409
527.858328	0.202635
528.074535	0.202421
528.290724	0.202373
528.506894	0.203094
528.723047	0.203289
528.939181	0.203450
529.155297	0.204919
529.371395	0.205443
529.587475	0.205274
529.803536	0.206233
530.019579	0.207564
530.235604	0.208375
530.451611	0.209222
530.667600	0.210166
530.883570	0.210196
531.099522	0.209997
531.315456	0.210358
531.531372	0.211041
531.747269	0.211482
531.963148	0.211296
532.179009	0.211744
532.394852	0.211643
532.610676	0.211234
532.826482	0.211665
533.042271	0.212163
533.258040	0.212305
533.473792	0.212776
533.689525	0.212246
533.905240	0.212453
534.120937	0.212467
534.336616	0.213486
534.552277	0.214080
534.767919	0.214880
534.983543	0.215202
535.199149	0.215507
535.414736	0.215691
535.630306	0.216419
535.845857	0.217127
536.061390	0.218007
536.276904	0.218201
536.492401	0.218723
536.707879	0.218625
536.923339	0.218596
537.138781	0.219240
537.354204	0.219674
537.569610	0.220110
537.784997	0.220191
538.000366	0.220280
538.215716	0.220697
538.431049	0.220926
538.646363	0.221763
538.861659	0.222447
539.076937	0.222420
539.292196	0.223233
539.507438	0.223583
539.722661	0.223876
539.937866	0.223707
540.153052	0.223674
540.368221	0.224564
540.583371	0.224853
540.798503	0.224982
541.013617	0.225462
541.228712	0.225231
541.443789	0.225115
541.658848	0.225927
541.873889	0.226642
542.088912	0.226796
542.303916	0.226530
542.518902	0.226786
542.733870	0.227276
542.948820	0.227599
543.163752	0.228108
543.378665	0.229089
543.593560	0.229428
543.808437	0.229592
544.023295	0.230503
544.238136	0.231241
544.452958	0.231688
544.667762	0.232350
544.882548	0.233369
545.097315	0.234255
545.312064	0.234742
545.526795	0.235251
545.741508	0.236055
545.956203	0.236105
546.170879	0.236544
546.385537	0.236503
546.600177	0.236710
546.814799	0.236938
547.029402	0.236566
547.243988	0.236236
547.458555	0.236250
547.673103	0.236573
547.887634	0.236536
548.102146	0.236381
548.316640	0.237169
548.531116	0.237317
548.745574	0.236778
548.960013	0.236815
549.174435	0.237200
549.388838	0.237257
549.603222	0.237043
549.817589	0.237295
550.031937	0.237666
550.246267	0.237744
550.460579	0.238209
550.674873	0.239289
550.889148	0.239930
551.103405	0.240242
551.317644	0.240173
551.531865	0.240553
551.746068	0.241143
551.960252	0.241840
552.174418	0.242054
552.388566	0.242292
552.602696	0.242506
552.816807	0.242940
553.030900	0.242836
553.244975	0.243639
553.459032	0.243777
553.673070	0.243830
553.887091	0.243390
554.101093	0.243533
554.315077	0.243473
554.529042	0.243102
554.742990	0.243036
554.956919	0.243679
555.170830	0.243875
555.384722	0.244421
555.598597	0.244813
555.812453	0.245717
556.026291	0.245637
556.240111	0.246005
556.453913	0.246807
556.667696	0.247414
556.881461	0.247748
557.095208	0.247815
557.308937	0.247748
557.522647	0.248016
557.736339	0.247690
557.950013	0.247989
558.163669	0.248394
558.377307	0.248334
558.590926	0.248448
558.804527	0.248555
559.018110	0.248856
559.231675	0.249123
559.445221	0.249258
559.658749	0.249439
559.872259	0.249611
560.085751	0.249663
560.299225	0.249633
560.512680	0.249708
560.726117	0.250041
560.939536	0.250307
561.152937	0.250221
561.366319	0.250250
561.579683	0.250538
561.793029	0.250858
562.006357	0.250920
562.219667	0.251326
562.432958	0.251460
562.646231	0.251305
562.859486	0.251416
563.072723	0.252016
563.285941	0.252521
563.499141	0.252793
563.712323	0.253257
563.925487	0.253661
564.138632	0.253215
564.351760	0.253472
564.564869	0.253538
564.777960	0.253713
564.991032	0.253943
565.204087	0.253854
565.417123	0.253892
565.630141	0.253825
565.843140	0.253808
566.056122	0.254762
566.269085	0.254637
566.482030	0.255018
566.694957	0.255573
566.907866	0.255994
567.120756	0.256307
567.333628	0.256338
567.546482	0.256708
567.759318	0.257040
567.972135	0.257434
568.184935	0.257719
568.397716	0.257992
568.610478	0.257683
568.823223	0.256983
569.035949	0.256765
569.248657	0.257192
569.461347	0.256840
569.674019	0.256357
569.886672	0.255792
570.099308	0.255577
570.311925	0.255326
570.524523	0.255239
570.737104	0.255668
570.949666	0.256321
571.162210	0.256155
571.374736	0.256621
571.587244	0.257233
571.799733	0.257302
572.012205	0.257829
572.224658	0.258472
572.437092	0.258839
572.649509	0.258949
572.861907	0.258512
573.074287	0.258667
573.286649	0.258817
573.498993	0.258629
573.711318	0.258863
573.923625	0.258996
574.135914	0.259273
574.348185	0.259258
574.560438	0.259274
574.772672	0.259968
574.984888	0.259980
575.197086	0.259717
575.409266	0.260250
575.621427	0.260153
575.833570	0.260024
576.045695	0.259443
576.257802	0.259760
576.469890	0.259815
576.681961	0.259661
576.894013	0.260005
577.106046	0.260046
577.318062	0.259695
577.530059	0.260137
577.742039	0.260238
577.954000	0.260596
578.165942	0.260598
578.377867	0.260534
578.589773	0.260437
578.801661	0.260484
579.013531	0.260969
579.225382	0.261253
579.437216	0.261357
579.649031	0.261751
579.860828	0.261987
580.072606	0.262050
580.284367	0.262171
580.496109	0.262293
580.707833	0.262512
580.919539	0.262738
581.131227	0.263411
581.342896	0.263423
581.554547	0.263570
581.766180	0.263603
581.977795	0.263808
582.189391	0.264217
582.400969	0.264257
582.612529	0.264418
582.824071	0.264145
583.035595	0.263635
583.247100	0.263606
583.458587	0.263646
583.670056	0.263699
583.881506	0.263969
584.092939	0.264254
584.304353	0.264699
584.515749	0.264709
584.727127	0.264851
584.938486	0.264892
585.149828	0.265119
585.361151	0.265250
585.572456	0.265401
585.783742	0.265323
585.995011	0.265665
586.206261	0.265697
586.417493	0.266206
586.628706	0.266528
586.839902	0.267033
587.051079	0.267150
587.262238	0.267333
587.473379	0.267547
587.684502	0.267828
587.895606	0.267832
588.106692	0.267456
588.317760	0.267301
588.528810	0.267717
588.739841	0.267967
588.950855	0.268383
589.161850	0.268686
589.372827	0.268995
589.583785	0.269456
589.794726	0.269715
590.005648	0.270770
590.216552	0.271080
590.427437	0.271372
590.638305	0.271212
590.849154	0.271571
591.059985	0.271521
591.270798	0.271380
591.481592	0.271243
591.692369	0.271159
591.903127	0.270450
592.113867	0.270308
592.324588	0.270240
592.535292	0.270558
592.745977	0.270425
592.956644	0.270226
593.167293	0.270881
593.377923	0.271042
593.588536	0.271247
593.799130	0.271875
594.009706	0.272416
594.220263	0.272660
594.430803	0.273155
594.641324	0.273669
594.851827	0.274508
595.062312	0.274579
595.272778	0.274767
595.483227	0.275153
595.693657	0.275386
595.904069	0.275039
596.114462	0.274805
596.324838	0.274836
596.535195	0.274900
596.745534	0.274789
596.955855	0.274862
597.166157	0.274837
597.376441	0.274694
597.586707	0.274911
597.796955	0.275509
598.007185	0.276000
598.217396	0.276135
598.427589	0.276167
598.637764	0.276361
598.847921	0.276546
599.058060	0.276697
599.268180	0.277202
599.478282	0.277416
599.688366	0.277497
599.898431	0.277662
600.108479	0.277676
600.318508	0.277995
600.528519	0.278214
600.738511	0.278378
600.948486	0.278719
601.158442	0.278688
601.368380	0.278571
601.578300	0.278561
601.788202	0.278574
601.998085	0.278660
602.207950	0.278583
602.417797	0.278634
602.627626	0.278476
602.837436	0.278392
603.047228	0.278716
603.257002	0.278995
603.466758	0.279218
603.676496	0.279094
603.886215	0.279643
604.095916	0.279776
604.305599	0.279840
604.515264	0.280059
604.724910	0.280556
604.934538	0.280683
605.144148	0.281062
605.353740	0.281583
605.563314	0.282149
605.772869	0.282249
605.982406	0.282731
606.191925	0.282949
606.401425	0.283176
606.610908	0.283083
606.820372	0.283254
607.029818	0.283358
607.239246	0.283129
607.448655	0.283197
607.658047	0.282901
607.867420	0.282673
608.076775	0.283167
608.286111	0.283274
608.495430	0.283509
608.704730	0.283208
608.914012	0.283442
609.123275	0.283776
609.332521	0.284003
609.541748	0.284297
609.750957	0.284667
609.960148	0.284588
610.169321	0.284697
610.378475	0.284620
610.587611	0.284940
610.796729	0.285160
611.005829	0.285222
611.214910	0.285138
611.423974	0.285403
611.633019	0.285038
611.842045	0.285398
612.051054	0.285742
612.260044	0.286032
612.469017	0.286121
612.677970	0.285785
612.886906	0.285748
613.095824	0.285943
613.304723	0.286114
613.513604	0.286633
613.722467	0.286509
613.931311	0.286435
614.140138	0.287078
614.348946	0.287567
614.557736	0.287948
614.766507	0.288346
614.975261	0.288566
615.183996	0.288535
615.392713	0.288511
615.601412	0.288735
615.810092	0.288827
616.018754	0.288809
616.227399	0.288651
616.436024	0.288835
616.644632	0.288754
616.853222	0.288854
617.061793	0.289244
617.270346	0.289518
617.478880	0.289306
617.687397	0.289674
617.895895	0.289552
618.104375	0.289898
618.312837	0.290150
618.521281	0.290561
618.729706	0.290480
618.938113	0.290378
619.146502	0.290716
619.354873	0.290923
619.563226	0.291199
619.771560	0.291392
619.979876	0.291233
620.188174	0.291123
620.396453	0.290879
620.604715	0.291236
620.812958	0.291729
621.021183	0.291751
621.229390	0.292047
621.437578	0.291993
621.645748	0.292047
621.853900	0.292241
622.062034	0.292328
622.270150	0.292697
622.478247	0.292973
622.686326	0.292809
622.894387	0.293100
623.102430	0.293216
623.310454	0.293510
623.518461	0.293857
623.726449	0.294165
623.934418	0.294407
624.142370	0.294770
624.350303	0.294630
624.558218	0.294897
624.766115	0.294804
624.973994	0.295181
625.181855	0.295208
625.389697	0.295246
625.597521	0.295161
625.805327	0.295393
626.013114	0.295219
626.220883	0.295389
626.428634	0.295411
626.636367	0.295586
626.844082	0.295674
627.051778	0.295775
627.259457	0.295970
627.467117	0.296758
627.674758	0.296494
627.882382	0.296497
628.089987	0.297185
628.297574	0.297556
628.505143	0.297684
628.712694	0.297857
628.920226	0.298027
629.127740	0.298135
629.335236	0.297673
629.542714	0.298201
629.750174	0.298498
629.957615	0.298127
630.165038	0.298122
630.372443	0.298339
630.579829	0.298327
630.787198	0.298497
630.994548	0.298727
631.201880	0.298986
631.409194	0.299068
631.616489	0.299339
631.823766	0.299829
632.031025	0.299925
632.238266	0.299906
632.445489	0.300287
632.652693	0.300262
632.859879	0.300446
633.067047	0.300599
633.274197	0.300836
633.481329	0.300904
633.688442	0.300970
633.895537	0.301058
634.102614	0.301417
634.309672	0.301215
634.516713	0.301699
634.723735	0.301817
634.930739	0.302221
635.137724	0.302256
635.344692	0.302577
635.551641	0.302617
635.758572	0.302866
635.965485	0.302992
636.172379	0.303476
636.379256	0.303607
636.586114	0.303717
636.792954	0.303737
636.999775	0.303955
637.206579	0.304035
637.413364	0.304263
637.620131	0.304496
637.826880	0.304537
638.033610	0.304530
638.240323	0.304823
638.447017	0.304690
638.653692	0.304790
638.860350	0.305059
639.066990	0.305066
639.273611	0.305207
639.480214	0.305367
639.686798	0.305455
639.893365	0.305687
640.099913	0.305661
640.306443	0.306178
640.512955	0.306312
640.719449	0.306260
640.925924	0.306456
641.132381	0.306592
641.338820	0.306853
641.545241	0.307310
641.751644	0.307173
641.958028	0.307333
642.164394	0.307427
642.370742	0.307680
642.577071	0.308001
642.783383	0.308360
642.989676	0.308825
643.195951	0.308543
643.402207	0.308596
643.608446	0.308966
643.814666	0.309013
644.020868	0.309225
644.227052	0.309336
644.433218	0.309301
644.639365	0.309238
644.845494	0.309276
645.051605	0.309563
645.257698	0.309696
645.463772	0.310149
645.669828	0.310349
645.875866	0.310344
646.081886	0.310434
646.287888	0.310466
646.493871	0.310696
646.699836	0.310580
646.905783	0.310917
647.111712	0.311073
647.317622	0.311135
647.523514	0.311262
647.729388	0.311576
647.935244	0.311858
648.141082	0.312297
648.346901	0.312554
648.552702	0.312825
648.758485	0.313144
648.964250	0.313578
649.169996	0.313663
649.375724	0.313851
649.581434	0.314081
649.787126	0.314226
649.992800	0.314422
650.198455	0.314563
650.404092	0.314626
650.609711	0.314483
650.815311	0.314438
651.020894	0.314300
651.226458	0.314623
651.432004	0.314562
651.637532	0.314685
651.843041	0.314625
652.048532	0.314794
652.254006	0.314806
652.459460	0.315017
652.664897	0.314893
652.870315	0.315223
653.075716	0.315114
653.281097	0.315206
653.486461	0.315238
653.691807	0.315670
653.897134	0.315751
654.102443	0.316296
654.307734	0.316408
654.513006	0.316753
654.718261	0.316971
654.923497	0.317260
655.128715	0.317625
655.333915	0.317913
655.539096	0.318063
655.744259	0.318281
655.949404	0.318550
656.154531	0.319165
656.359640	0.319633
656.564730	0.319941
656.769802	0.320201
656.974856	0.320407
657.179892	0.320815
657.384909	0.321065
657.589908	0.321388
657.794889	0.321307
657.999852	0.321188
658.204797	0.321393
658.409723	0.321513
658.614631	0.321714
658.819521	0.321905
659.024393	0.321847
659.229246	0.321995
659.434081	0.322085
659.638898	0.322297
659.843697	0.322387
660.048478	0.322544
660.253240	0.322702
660.457984	0.322819
660.662710	0.323036
660.867417	0.323333
661.072107	0.323266
661.276778	0.323679
661.481431	0.323785
661.686066	0.324098
661.890682	0.324096
662.095281	0.324205
662.299861	0.324234
662.504422	0.324234
662.708966	0.324240
662.913491	0.324587
663.117999	0.324434
663.322488	0.324668
663.526958	0.324647
663.731411	0.324673
663.935845	0.324977
664.140261	0.325468
664.344659	0.325798
664.549038	0.325926
664.753400	0.326266
664.957743	0.326416
665.162068	0.326742
665.366375	0.327120
665.570663	0.327499
665.774933	0.327730
665.979185	0.327745
666.183419	0.327952
666.387635	0.328240
666.591832	0.328214
666.796011	0.328558
667.000172	0.328515
667.204315	0.328588
667.408439	0.328918
667.612545	0.328960
667.816634	0.329191
668.020703	0.329298
668.224755	0.329573
668.428788	0.329758
668.632803	0.329879
668.836800	0.330087
669.040779	0.330531
669.244739	0.330542
669.448681	0.330736
669.652605	0.330727
669.856511	0.330961
670.060399	0.331254
670.264268	0.331483
670.468119	0.331587
670.671952	0.331741
670.875767	0.331656
671.079563	0.331771
671.283341	0.332065
671.487101	0.332336
671.690843	0.332398
671.894567	0.332436
672.098272	0.332700
672.301959	0.332917
672.505628	0.333294
672.709278	0.333551
672.912911	0.333624
673.116525	0.333546
673.320121	0.333797
673.523699	0.333967
673.727258	0.334112
673.930799	0.333965
674.134322	0.334167
674.337827	0.334206
674.541314	0.334214
674.744782	0.334380
674.948232	0.334482
675.151664	0.334470
675.355078	0.334569
675.558474	0.334445
675.761851	0.334784
675.965210	0.334950
676.168551	0.334979
676.371873	0.335484
676.575178	0.335475
676.778464	0.335760
676.981732	0.335941
677.184981	0.336252
677.388213	0.336579
677.591426	0.336660
677.794621	0.336830
677.997798	0.337429
678.200956	0.337643
678.404097	0.338227
678.607219	0.338459
678.810323	0.338800
679.013408	0.339250
679.216476	0.339746
679.419525	0.340024
679.622556	0.340316
679.825569	0.340412
680.028563	0.340479
680.231540	0.340509
680.434498	0.340749
680.637438	0.340967
680.840359	0.340938
681.043263	0.340928
681.246148	0.341244
681.449015	0.341297
681.651864	0.341277
681.854694	0.341369
682.057506	0.341517
682.260301	0.341484
682.463076	0.341656
682.665834	0.341722
682.868573	0.342143
683.071295	0.342281
683.273998	0.342450
683.476682	0.342590
683.679349	0.342760
683.881997	0.343153
684.084627	0.343705
684.287239	0.343785
684.489833	0.344025
684.692408	0.343985
684.894965	0.343974
685.097504	0.344162
685.300025	0.344578
685.502527	0.344601
685.705012	0.344551
685.907478	0.344430
686.109925	0.344413
686.312355	0.344482
686.514766	0.344695
686.717159	0.344834
686.919534	0.344842
687.121891	0.344754
687.324230	0.344806
687.526550	0.345059
687.728852	0.345324
687.931136	0.345492
688.133401	0.345551
688.335649	0.345606
688.537878	0.345649
688.740089	0.346084
688.942281	0.346233
689.144456	0.346684
689.346612	0.346685
689.548750	0.346762
689.750870	0.347322
689.952971	0.347661
690.155055	0.348111
690.357120	0.348871
690.559167	0.348999
690.761195	0.349376
690.963206	0.349820
691.165198	0.350264
691.367172	0.350483
691.569128	0.350616
691.771065	0.350731
691.972984	0.350728
692.174885	0.350803
692.376768	0.351034
692.578633	0.350957
692.780479	0.350722
692.982308	0.350564
693.184118	0.350807
693.385909	0.350542
693.587683	0.350784
693.789438	0.350813
693.991175	0.350641
694.192894	0.350550
694.394595	0.350680
694.596277	0.350827
694.797941	0.351268
694.999587	0.351411
695.201215	0.351402
695.402824	0.351215
695.604416	0.351456
695.805989	0.351538
696.007543	0.351486
696.209080	0.351622
696.410598	0.351558
696.612099	0.351391
696.813580	0.351291
697.015044	0.351539
697.216490	0.351909
697.417917	0.351989
697.619326	0.351863
697.820717	0.352172
698.022089	0.352120
698.223444	0.352334
698.424780	0.352721
698.626098	0.353074
698.827397	0.353314
699.028679	0.353596
699.229942	0.353645
699.431187	0.354046
699.632414	0.354320
699.833622	0.354682
700.034813	0.354869
700.235985	0.354792
700.437139	0.354909
700.638274	0.355123
700.839392	0.355326
701.040491	0.355798
701.241572	0.356001
701.442635	0.355988
701.643679	0.356044
701.844706	0.356067
702.045714	0.355934
702.246704	0.355920
702.447675	0.356059
702.648629	0.355839
702.849564	0.355799
703.050481	0.355922
703.251380	0.355921
703.452260	0.355943
703.653122	0.356218
703.853966	0.356464
704.054792	0.356556
704.255600	0.356541
704.456389	0.356691
704.657160	0.356596
704.857913	0.356762
705.058648	0.357075
705.259365	0.357196
705.460063	0.356939
705.660743	0.357029
705.861405	0.357236
706.062048	0.357284
706.262674	0.357321
706.463281	0.357214
706.663870	0.356931
706.864441	0.356888
707.064993	0.356875
707.265527	0.357385
707.466043	0.357627
707.666541	0.357430
707.867021	0.357596
708.067482	0.357353
708.267925	0.357510
708.468350	0.357705
708.668757	0.357629
708.869145	0.358077
709.069516	0.358187
709.269868	0.357992
709.470201	0.357976
709.670517	0.358064
709.870814	0.358384
710.071093	0.358255
710.271354	0.358140
710.471597	0.358056
710.671821	0.357893
710.872028	0.357596
711.072216	0.357717
711.272385	0.357841
711.472537	0.357602
711.672670	0.357411
711.872785	0.357413
712.072882	0.357547
712.272961	0.357530
712.473021	0.357287
712.673063	0.357141
712.873087	0.357230
713.073093	0.357420
713.273081	0.357698
713.473050	0.357810
713.673001	0.358001
713.872934	0.358312
714.072849	0.358713
714.272745	0.359302
714.472623	0.359622
714.672483	0.360005
714.872325	0.359981
715.072148	0.359958
715.271954	0.360106
715.471741	0.360376
715.671509	0.360043
715.871260	0.359779
716.070992	0.359361
716.270707	0.359317
716.470403	0.358917
716.670080	0.358496
716.869740	0.358125
717.069381	0.358069
717.269004	0.357508
717.468609	0.357297
717.668195	0.356988
717.867764	0.356823
718.067314	0.356739
718.266846	0.356707
718.466360	0.356505
718.665855	0.356639
718.865332	0.356537
719.064791	0.356501
719.264232	0.356780
719.463655	0.357251
719.663059	0.357279
719.862445	0.357246
720.061813	0.357232
720.261163	0.357495
720.460494	0.357499
720.659807	0.357662
720.859102	0.358011
721.058379	0.357861
721.257638	0.357562
721.456878	0.357623
721.656100	0.357312
721.855304	0.357080
722.054490	0.357205
722.253657	0.356809
722.452806	0.356437
722.651937	0.356279
722.851050	0.356028
723.050145	0.355994
723.249221	0.355824
723.448279	0.356095
723.647319	0.356442
723.846340	0.356169
724.045344	0.356465
724.244329	0.356633
724.443296	0.356638
724.642245	0.356919
724.841175	0.356878
725.040088	0.357028
725.238982	0.356959
725.437857	0.356419
725.636715	0.356230
725.835554	0.356322
726.034376	0.356290
726.233179	0.356177
726.431963	0.355796
726.630730	0.356060
726.829478	0.355873
727.028208	0.355754
727.226920	0.355778
727.425614	0.355934
727.624289	0.355449
727.822946	0.355084
728.021585	0.354892
728.220206	0.354872
728.418808	0.354311
728.617392	0.354163
728.815958	0.354012
729.014506	0.353797
729.213036	0.353709
729.411547	0.353843
729.610040	0.353785
729.808515	0.353276
730.006972	0.353088
730.205410	0.352816
730.403831	0.352510
730.602233	0.352220
730.800616	0.352022
730.998982	0.351641
731.197329	0.351128
731.395658	0.350855
731.593969	0.351188
731.792262	0.350998
731.990536	0.351074
732.188793	0.350799
732.387031	0.350407
732.585250	0.350344
732.783452	0.350174
732.981635	0.350442
733.179800	0.350479
733.377947	0.350018
733.576076	0.349863
733.774186	0.350020
733.972278	0.350145
734.170352	0.350127
734.368408	0.350167
734.566446	0.350428
734.764465	0.350162
734.962466	0.350057
735.160449	0.350123
735.358413	0.350287
735.556360	0.349840
735.754288	0.349588
735.952198	0.349510
736.150090	0.349552
736.347963	0.349189
736.545818	0.349241
736.743655	0.349034
736.941474	0.348800
737.139275	0.348642
737.337057	0.348543
737.534821	0.348648
737.732567	0.348605
737.930295	0.348081
738.128005	0.347908
738.325696	0.347456
738.523369	0.347214
738.721024	0.347044
738.918660	0.346892
739.116279	0.346726
739.313879	0.346497
739.511461	0.346365
739.709024	0.346284
739.906570	0.346065
740.104097	0.346114
740.301606	0.346161
740.499097	0.346346
740.696569	0.346117
740.894024	0.345948
741.091460	0.345849
741.288878	0.345494
741.486277	0.345314
741.683659	0.345289
741.881022	0.345066
742.078367	0.344525
742.275694	0.344206
742.473002	0.344156
742.670293	0.343765
742.867565	0.343515
743.064819	0.343573
743.262054	0.343407
743.459272	0.343184
743.656471	0.342917
743.853652	0.343039
744.050815	0.342761
744.247959	0.342541
744.445085	0.342779
744.642194	0.342435
744.839283	0.342319
745.036355	0.342124
745.233408	0.342080
745.430444	0.341945
745.627461	0.342021
745.824459	0.341817
746.021440	0.341561
746.218402	0.341425
746.415346	0.341445
746.612272	0.341057
746.809180	0.340758
747.006069	0.340330
747.202940	0.340030
747.399793	0.339469
747.596628	0.339174
747.793444	0.339041
747.990243	0.338820
748.187023	0.338429
748.383784	0.338427
748.580528	0.338389
748.777253	0.338498
748.973960	0.338433
749.170649	0.338501
749.367320	0.338655
749.563973	0.338798
749.760607	0.338707
749.957223	0.338788
750.153821	0.338546
750.350400	0.338520
750.546962	0.338243
750.743505	0.338236
750.940030	0.337944
751.136536	0.337678
751.333025	0.337169
751.529495	0.336585
751.725947	0.336311
751.922381	0.336194
752.118796	0.335843
752.315194	0.335630
752.511573	0.335235
752.707934	0.335060
752.904276	0.334750
753.100601	0.334196
753.296907	0.334188
753.493195	0.333909
753.689465	0.333689
753.885716	0.333705
754.081949	0.333547
754.278164	0.333582
754.474361	0.333382
754.670540	0.333528
754.866700	0.333581
755.062843	0.333198
755.258967	0.332871
755.455072	0.332751
755.651160	0.332490
755.847229	0.332479
756.043280	0.332174
756.239313	0.331874
756.435328	0.331285
756.631324	0.331204
756.827302	0.331328
757.023262	0.331556
757.219204	0.331234
757.415127	0.331033
757.611033	0.330756
757.806920	0.330421
758.002788	0.330400
758.198639	0.330275
758.394471	0.330127
758.590286	0.329987
758.786081	0.329700
758.981859	0.329521
759.177619	0.329207
759.373360	0.328878
759.569083	0.328911
759.764788	0.328440
759.960474	0.328450
760.156143	0.328379
760.351793	0.327958
760.547425	0.327734
760.743038	0.327745
760.938634	0.327798
761.134211	0.327730
761.329770	0.327526
761.525311	0.327585
761.720833	0.327482
761.916338	0.327183
762.111824	0.327143
762.307292	0.326995
762.502741	0.326992
762.698173	0.326662
762.893586	0.326712
763.088981	0.326850
763.284358	0.326994
763.479716	0.327027
763.675057	0.327172
763.870379	0.327259
764.065683	0.327233
764.260968	0.327023
764.456236	0.327094
764.651485	0.326936
764.846716	0.326851
765.041929	0.326664
765.237123	0.326384
765.432299	0.326045
765.627457	0.325711
765.822597	0.325615
766.017719	0.325493
766.212822	0.325437
766.407907	0.325090
766.602974	0.325005
766.798023	0.324778
766.993054	0.324397
767.188066	0.324280
767.383060	0.324262
767.578036	0.324115
767.772993	0.323692
767.967933	0.323429
768.162854	0.323414
768.357757	0.323193
768.552642	0.323031
768.747508	0.323317
768.942356	0.323436
769.137186	0.323236
769.331998	0.322996
769.526792	0.323190
769.721567	0.323250
769.916324	0.323321
770.111063	0.323113
770.305784	0.323190
770.500486	0.322962
770.695171	0.322864
770.889837	0.322908
771.084484	0.322936
771.279114	0.322813
771.473725	0.322679
771.668318	0.322631
771.862893	0.322468
772.057450	0.322339
772.251988	0.322142
772.446509	0.321851
772.641011	0.321695
772.835494	0.321774
773.029960	0.321676
773.224407	0.321851
773.418836	0.321854
773.613247	0.321826
773.807640	0.321988
774.002014	0.321846
774.196370	0.321864
774.390708	0.321886
774.585028	0.321683
774.779330	0.321530
774.973613	0.320929
775.167878	0.320504
775.362125	0.320756
775.556354	0.320469
775.750564	0.320214
775.944756	0.320033
776.138930	0.319880
776.333086	0.319940
776.527223	0.320089
776.721343	0.320341
776.915444	0.320561
777.109526	0.320108
777.303591	0.320188
777.497637	0.320430
777.691666	0.320414
777.885676	0.320687
778.079667	0.320681
778.273641	0.320843
778.467596	0.321084
778.661533	0.321016
778.855452	0.321338
779.049352	0.321352
779.243235	0.321375
779.437099	0.321763
779.630945	0.321466
779.824773	0.321455
780.018582	0.321563
780.212373	0.321469
780.406146	0.321665
780.599901	0.321666
780.793638	0.321697
780.987356	0.321790
781.181056	0.321544
781.374738	0.321505
781.568402	0.321467
781.762047	0.321204
781.955674	0.321023
782.149283	0.320733
782.342874	0.320574
782.536447	0.320371
782.730001	0.320293
782.923537	0.320335
783.117055	0.320430
783.310555	0.320615
783.504036	0.320457
783.697499	0.320575
783.890944	0.320891
784.084371	0.320807
784.277780	0.320877
784.471170	0.320985
784.664542	0.321041
784.857896	0.321251
785.051231	0.321070
785.244549	0.321218
785.437848	0.320983
785.631129	0.320943
785.824392	0.321058
786.017636	0.320948
786.210863	0.321012
786.404071	0.320976
786.597260	0.320906
786.790432	0.320913
786.983585	0.321003
787.176721	0.321271
787.369838	0.321232
787.562936	0.321402
787.756017	0.321902
787.949079	0.322038
788.142123	0.321927
788.335149	0.322224
788.528156	0.322328
788.721146	0.322526
788.914117	0.322605
789.107070	0.322882
789.300005	0.322865
789.492921	0.322687
789.685819	0.322663
789.878699	0.322823
790.071561	0.322819
790.264405	0.322951
790.457230	0.323068
790.650037	0.323173
790.842826	0.323127
791.035597	0.323394
791.228349	0.323442
791.421084	0.323664
791.613800	0.323660
791.806497	0.323666
791.999177	0.323798
792.191838	0.323764
792.384481	0.323656
792.577106	0.323619
792.769713	0.323430
792.962301	0.323621
793.154871	0.323803
793.347423	0.324049
793.539957	0.324164
793.732473	0.324185
793.924970	0.324337
794.117449	0.324756
794.309910	0.325129
794.502353	0.325423
794.694777	0.325545
794.887183	0.325442
795.079571	0.325538
795.271941	0.325517
795.464293	0.325719
795.656626	0.325960
795.848941	0.326015
796.041238	0.325942
796.233516	0.326009
796.425777	0.326055
796.618019	0.326362
796.810243	0.326561
797.002449	0.326882
797.194636	0.326963
797.386805	0.326746
797.578956	0.326811
797.771089	0.326839
797.963204	0.326924
798.155300	0.326983
798.347378	0.327134
798.539438	0.327102
798.731480	0.327056
798.923503	0.327136
799.115509	0.327209
799.307496	0.327514
799.499465	0.327853
799.691415	0.328171
799.883348	0.328459
800.075262	0.328652
800.267158	0.329229
800.459035	0.329851
800.650895	0.330471
800.842736	0.330869
801.034559	0.331183
801.226364	0.331301
801.418150	0.331383
801.609919	0.331784
801.801669	0.331983
801.993401	0.331946
802.185114	0.332070
802.376810	0.332210
802.568487	0.332704
802.760146	0.332712
802.951787	0.333255
803.143409	0.333450
803.335014	0.333479
803.526600	0.333651
803.718168	0.333922
803.909717	0.334101
804.101249	0.334088
804.292762	0.333926
804.484257	0.334234
804.675734	0.334533
804.867192	0.335305
805.058632	0.335662
805.250054	0.336165
805.441458	0.336711
805.632844	0.336786
805.824211	0.336937
806.015561	0.337301
806.206891	0.337417
806.398204	0.337276
806.589499	0.337211
806.780775	0.337332
806.972033	0.337292
807.163273	0.337293
807.354495	0.337567
807.545698	0.338216
807.736883	0.338772
807.928050	0.339112
808.119199	0.339657
808.310329	0.339824
808.501441	0.340533
808.692535	0.340744
808.883611	0.341048
809.074669	0.341266
809.265708	0.341371
809.456729	0.341506
809.647732	0.341776
809.838717	0.341986
810.029683	0.342513
810.220632	0.342364
810.411562	0.343083
810.602474	0.343669
810.793367	0.344016
810.984242	0.344238
811.175100	0.344233
811.365938	0.344614
811.556759	0.344771
811.747562	0.344784
811.938346	0.345158
812.129112	0.345010
812.319860	0.345180
812.510589	0.345121
812.701300	0.345639
812.891994	0.346338
813.082668	0.346744
813.273325	0.347103
813.463964	0.347319
813.654584	0.347574
813.845186	0.348234
814.035769	0.348418
814.226335	0.349084
814.416882	0.349360
814.607411	0.349362
814.797922	0.349592
814.988415	0.349885
815.178889	0.350455
815.369345	0.350779
815.559783	0.350796
815.750203	0.350929
815.940605	0.351047
816.130988	0.351150
816.321353	0.351837
816.511700	0.352216
816.702028	0.352463
816.892339	0.352836
817.082631	0.353252
817.272905	0.353599
817.463161	0.354205
817.653398	0.354809
817.843617	0.355102
818.033819	0.355108
818.224001	0.355163
818.414166	0.355636
818.604312	0.356068
818.794440	0.356540
818.984550	0.357036
819.174642	0.357430
819.364716	0.357949
819.554771	0.358331
819.744808	0.358922
819.934827	0.359428
820.124827	0.360113
820.314810	0.360605
820.504774	0.360846
820.694720	0.361147
820.884647	0.361367
821.074557	0.361913
821.264448	0.362524
821.454321	0.362811
821.644176	0.363287
821.834012	0.363707
822.023831	0.363933
822.213631	0.364487
822.403413	0.364896
822.593176	0.365030
822.782922	0.365201
822.972649	0.365682
823.162358	0.366270
823.352049	0.366912
823.541721	0.366940
823.731376	0.367384
823.921012	0.367740
824.110629	0.368216
824.300229	0.368905
824.489811	0.369057
824.679374	0.369348
824.868919	0.369667
825.058445	0.369827
825.247954	0.370300
825.437444	0.370791
825.626916	0.371014
825.816370	0.371270
826.005806	0.371877
826.195223	0.372585
826.384622	0.372837
826.574003	0.373237
826.763366	0.373646
826.952711	0.374090
827.142037	0.374122
827.331345	0.374880
827.520635	0.375380
827.709906	0.375452
827.899160	0.375628
828.088395	0.375974
828.277612	0.376428
828.466810	0.376652
828.655991	0.376988
828.845153	0.377137
829.034297	0.377171
829.223423	0.377856
829.412531	0.378381
829.601620	0.378974
829.790691	0.379440
829.979744	0.379615
830.168779	0.380286
830.357795	0.380935
830.546793	0.381770
830.735773	0.382358
830.924735	0.382624
831.113679	0.382907
831.302604	0.383514
831.491511	0.383982
831.680400	0.384492
831.869271	0.384651
832.058123	0.384894
832.246957	0.385280
832.435773	0.385576
832.624571	0.385781
832.813351	0.386357
833.002112	0.386532
833.190855	0.386703
833.379580	0.387117
833.568287	0.387169
833.756975	0.387481
833.945645	0.387751
834.134297	0.388129
834.322931	0.388429
834.511547	0.388589
834.700144	0.388894
834.888723	0.389505
835.077284	0.390001
835.265826	0.390815
835.454351	0.391394
835.642857	0.391771
835.831345	0.392069
836.019815	0.392555
836.208266	0.393459
836.396699	0.393937
836.585114	0.394560
836.773511	0.394898
836.961890	0.395455
837.150250	0.395908
837.338592	0.396422
837.526916	0.397161
837.715222	0.397908
837.903510	0.398070
838.091779	0.398781
838.280030	0.399167
838.468263	0.399601
838.656477	0.400363
838.844674	0.401027
839.032852	0.401767
839.221012	0.402447
839.409153	0.402653
839.597277	0.403853
839.785382	0.404038
839.973469	0.404523
840.161538	0.405034
840.349589	0.405008
840.537621	0.405321
840.725635	0.405673
840.913631	0.406052
841.101609	0.406777
841.289568	0.406800
841.477509	0.407413
841.665432	0.408132
841.853337	0.409203
842.041224	0.410184
842.229092	0.410678
842.416942	0.411500
842.604774	0.412208
842.792588	0.413023
842.980383	0.413721
843.168160	0.414139
843.355919	0.414685
843.543660	0.415258
843.731382	0.416039
843.919087	0.416744
844.106773	0.417153
844.294441	0.417440
844.482090	0.417787
844.669722	0.418083
844.857335	0.418703
845.044930	0.419054
845.232507	0.419060
845.420065	0.419250
845.607605	0.419812
845.795127	0.419927
845.982631	0.420528
846.170117	0.421090
846.357584	0.421677
846.545033	0.422286
846.732464	0.422593
846.919877	0.423446
847.107272	0.423782
847.294648	0.423986
847.482006	0.424663
847.669346	0.425019
847.856667	0.425123
848.043971	0.425488
848.231256	0.425596
848.418523	0.426228
848.605771	0.426311
848.793002	0.427064
848.980214	0.427531
849.167408	0.428115
849.354584	0.428808
849.541742	0.429147
849.728881	0.429487
849.916002	0.430426
850.103105	0.430810
850.290190	0.431005
850.477256	0.431396
850.664304	0.431913
850.851334	0.432259
851.038346	0.432638
851.225340	0.433227
851.412315	0.434119
851.599272	0.434011
851.786211	0.434319
851.973132	0.435113
852.160034	0.435434
852.346918	0.435912
852.533784	0.436510
852.720632	0.436655
852.907462	0.437687
853.094273	0.437952
853.281066	0.438648
853.467841	0.439239
853.654598	0.439743
853.841336	0.440195
854.028056	0.440751
854.214758	0.441176
854.401442	0.442111
854.588107	0.442200
854.774755	0.442630
854.961384	0.443164
855.147995	0.443724
855.334587	0.444064
855.521162	0.444564
855.707718	0.444786
855.894256	0.445236
856.080775	0.445426
856.267277	0.445651
856.453760	0.445925
856.640225	0.446614
856.826672	0.446840
857.013101	0.447282
857.199511	0.447685
857.385903	0.448232
857.572277	0.448750
857.758633	0.448963
857.944970	0.449249
858.131290	0.449577
858.317591	0.449949
858.503873	0.450690
858.690138	0.451259
858.876384	0.451474
859.062612	0.451978
859.248822	0.452369
859.435014	0.453079
859.621188	0.453583
859.807343	0.453932
859.993480	0.454347
860.179599	0.454706
860.365699	0.455081
860.551781	0.455888
860.737846	0.455891
860.923891	0.456339
861.109919	0.456539
861.295929	0.457130
861.481920	0.457634
861.667893	0.457612
861.853848	0.457837
862.039784	0.458402
862.225702	0.458663
862.411603	0.459224
862.597484	0.459080
862.783348	0.459842
862.969193	0.460299
863.155021	0.460841
863.340830	0.461507
863.526620	0.461850
863.712393	0.461961
863.898147	0.462004
864.083883	0.462069
864.269601	0.463020
864.455301	0.463050
864.640982	0.463177
864.826645	0.463526
865.012290	0.463969
865.197917	0.464170
865.383526	0.464296
865.569116	0.464677
865.754688	0.465321
865.940242	0.465517
866.125777	0.465896
866.311295	0.466307
866.496794	0.466965
866.682275	0.467282
866.867737	0.467977
867.053182	0.468740
867.238608	0.469443
867.424016	0.470104
867.609406	0.470367
867.794778	0.470758
867.980131	0.471144
868.165466	0.471089
868.350783	0.471635
868.536082	0.472058
868.721362	0.472005
868.906625	0.472061
869.091869	0.472109
869.277094	0.472648
869.462302	0.472640
869.647491	0.472924
869.832662	0.473481
870.017815	0.473873
870.202950	0.474208
870.388066	0.474891
870.573165	0.475494
870.758245	0.476145
870.943306	0.476210
871.128350	0.476923
871.313375	0.477355
871.498382	0.477797
871.683371	0.477819
871.868342	0.478053
872.053294	0.478110
872.238229	0.478398
872.423144	0.478129
872.608042	0.478343
872.792922	0.478322
872.977783	0.478798
873.162626	0.478940
873.347451	0.479107
873.532258	0.479115
873.717046	0.480005
873.901816	0.479919
874.086568	0.480514
874.271302	0.481403
874.456017	0.481963
874.640715	0.481884
874.825394	0.482074
875.010055	0.482365
875.194697	0.482873
875.379322	0.482968
875.563928	0.483667
875.748516	0.483876
875.933085	0.483380
876.117637	0.483330
876.302170	0.483783
876.486685	0.483685
876.671182	0.484042
876.855661	0.484369
877.040121	0.484544
877.224563	0.485069
877.408987	0.485279
877.593393	0.485945
877.777780	0.486742
877.962150	0.486708
878.146501	0.487675
878.330833	0.487668
878.515148	0.487875
878.699444	0.487767
878.883722	0.487417
879.067982	0.487578
879.252224	0.488103
879.436447	0.487989
879.620653	0.488057
879.804840	0.487974
879.989008	0.488219
880.173159	0.488105
880.357291	0.488126
880.541405	0.488381
880.725501	0.488585
880.909579	0.488444
881.093638	0.488370
881.277680	0.488831
881.461703	0.488436
881.645707	0.488796
881.829694	0.488964
882.013662	0.489177
882.197612	0.489146
882.381544	0.489667
882.565458	0.489603
882.749353	0.490082
882.933230	0.490109
883.117089	0.490540
883.300930	0.490129
883.484753	0.490419
883.668557	0.490373
883.852343	0.490731
884.036111	0.490303
884.219861	0.489946
884.403592	0.490210
884.587305	0.490499
884.771000	0.490915
884.954677	0.491259
885.138335	0.491349
885.321976	0.491347
885.505598	0.491697
885.689201	0.492555
885.872787	0.493086
886.056354	0.492899
886.239904	0.492560
886.423434	0.492011
886.606947	0.492095
886.790442	0.491986
886.973918	0.492128
887.157376	0.491826
887.340816	0.491655
887.524237	0.491685
887.707641	0.491565
887.891026	0.491806
888.074393	0.492429
888.257741	0.492521
888.441072	0.492355
888.624384	0.492576
888.807678	0.492810
888.990954	0.492448
889.174211	0.492175
889.357451	0.491746
889.540672	0.491342
889.723875	0.490868
889.907059	0.490839
890.090226	0.491048
890.273374	0.491014
890.456504	0.490964
890.639616	0.490687
890.822709	0.490589
891.005785	0.491115
891.188842	0.491515
891.371881	0.491891
891.554901	0.491696
891.737904	0.491346
891.920888	0.491182
892.103854	0.490537
892.286802	0.490405
892.469731	0.490719
892.652643	0.490663
892.835536	0.490484
893.018410	0.490329
893.201267	0.490382
893.384106	0.490720
893.566926	0.490830
893.749728	0.490405
893.932511	0.490148
894.115277	0.490407
894.298024	0.490052
894.480753	0.489909
894.663464	0.489402
894.846157	0.489771
895.028831	0.489304
895.211487	0.488713
895.394125	0.488940
895.576745	0.488899
895.759346	0.488121
895.941930	0.488000
896.124495	0.488160
896.307041	0.488056
896.489570	0.487753
896.672080	0.487657
896.854573	0.487768
897.037046	0.487746
897.219502	0.487404
897.401940	0.487106
897.584359	0.486631
897.766760	0.486311
897.949143	0.485620
898.131507	0.485107
898.313854	0.484633
898.496182	0.484389
898.678492	0.484067
898.860783	0.484030
899.043057	0.484245
899.225312	0.484117
899.407549	0.483620
899.589768	0.484197
899.771968	0.484111
899.954151	0.483891
900.136315	0.483488
900.318461	0.483175
900.500588	0.483226
900.682698	0.482613
900.864789	0.482659
901.046862	0.482529
901.228917	0.482323
901.410953	0.481681
901.592971	0.481117
901.774972	0.481244
901.956953	0.481655
902.138917	0.481174
902.320862	0.481737
902.502790	0.481433
902.684699	0.480995
902.866589	0.480208
903.048462	0.480522
903.230316	0.481088
903.412152	0.480879
903.593970	0.480500
903.775770	0.480379
903.957551	0.479498
904.139314	0.479113
904.321059	0.479231
904.502786	0.479037
904.684494	0.478042
904.866185	0.477949
905.047857	0.477161
905.229510	0.476258
905.411146	0.475353
905.592763	0.474511
905.774363	0.474172
905.955943	0.473005
906.137506	0.472454
906.319051	0.471824
906.500577	0.470725
906.682085	0.470281
906.863575	0.469642
907.045046	0.469451
907.226500	0.468656
907.407935	0.467873
907.589352	0.467485
907.770750	0.466938
907.952131	0.466888
908.133493	0.466273
908.314837	0.466143
908.496163	0.465848
908.677470	0.465562
908.858760	0.465421
909.040031	0.465321
909.221284	0.465463
909.402518	0.465410
909.583735	0.465221
909.764933	0.465330
909.946113	0.464658
910.127275	0.464386
910.308418	0.463907
910.489544	0.463551
910.670651	0.462718
910.851740	0.462353
911.032810	0.461927
911.213863	0.460969
911.394897	0.459699
911.575913	0.459207
911.756911	0.458585
911.937890	0.457821
912.118851	0.457376
912.299794	0.457124
912.480719	0.455938
912.661626	0.455226
912.842514	0.454869
913.023384	0.455253
913.204236	0.454557
913.385070	0.454394
913.565886	0.453638
913.746683	0.453197
913.927462	0.452381
914.108223	0.451634
914.288965	0.450762
914.469690	0.449964
914.650396	0.448816
914.831084	0.447880
915.011754	0.447082
915.192405	0.446728
915.373038	0.445198
915.553653	0.444493
915.734250	0.443855
915.914829	0.442355
916.095389	0.441330
916.275931	0.440182
916.456455	0.439457
916.636961	0.437752
916.817448	0.436329
916.997917	0.436594
917.178368	0.435672
917.358801	0.435348
917.539216	0.435257
917.719612	0.434712
917.899990	0.434916
918.080350	0.434681
918.260692	0.434888
918.441015	0.434685
918.621320	0.433637
918.801607	0.432420
918.981876	0.431755
919.162127	0.431536
919.342359	0.430499
919.522573	0.428688
919.702769	0.427856
919.882947	0.426310
920.063106	0.425702
920.243247	0.424543
920.423370	0.424510
920.603475	0.422451
920.783562	0.420467
920.963630	0.420531
921.143680	0.419558
921.323712	0.418596
921.503725	0.418003
921.683721	0.417641
921.863698	0.417055
922.043657	0.415217
922.223598	0.415317
922.403520	0.415460
922.583424	0.413745
922.763311	0.413001
922.943178	0.411965
923.123028	0.410533
923.302859	0.408833
923.482673	0.407739
923.662467	0.407884
923.842244	0.406866
924.022003	0.405794
924.201743	0.405053
924.381465	0.404444
924.561169	0.403552
924.740854	0.402535
924.920522	0.401596
925.100171	0.401019
925.279802	0.399875
925.459414	0.398629
925.639009	0.397761
925.818585	0.396722
925.998143	0.395786
926.177683	0.394593
926.357205	0.394538
926.536708	0.393738
926.716193	0.392598
926.895660	0.391463
927.075109	0.391164
927.254539	0.389965
927.433951	0.388582
927.613345	0.387448
927.792721	0.386314
927.972079	0.385239
928.151418	0.384289
928.330739	0.383278
928.510042	0.382137
928.689327	0.380525
928.868593	0.379756
929.047841	0.378951
929.227071	0.377828
929.406283	0.377488
929.585476	0.375958
929.764652	0.374218
929.943809	0.372646
930.122948	0.370970
930.302068	0.370801
930.481171	0.369355
930.660255	0.369065
930.839321	0.368145
931.018369	0.367438
931.197398	0.366659
931.376409	0.366567
931.555402	0.366129
931.734377	0.366093
931.913334	0.364652
932.092272	0.363682
932.271192	0.361818
932.450094	0.360165
932.628978	0.358579
932.807844	0.357777
932.986691	0.355871
933.165520	0.354466
933.344331	0.353727
933.523123	0.352923
933.701898	0.351635
933.880654	0.350619
934.059392	0.350395
934.238111	0.348842
934.416813	0.347299
934.595496	0.346589
934.774161	0.345704
934.952808	0.344052
935.131437	0.342053
935.310047	0.341053
935.488639	0.340162
935.667213	0.338955
935.845769	0.338079
936.024306	0.336562
936.202825	0.335383
936.381326	0.334442
936.559809	0.333015
936.738274	0.331628
936.916720	0.330411
937.095148	0.329313
937.273558	0.328022
937.451950	0.327305
937.630323	0.325655
937.808678	0.324291
937.987015	0.322618
938.165334	0.321681
938.343635	0.320261
938.521917	0.318575
938.700181	0.317343
938.878427	0.316268
939.056655	0.314157
939.234864	0.313924
939.413055	0.314091
939.591228	0.312453
939.769383	0.310713
939.947519	0.309988
940.125638	0.308536
940.303738	0.307299
940.481820	0.305501
940.659883	0.304021
940.837929	0.303521
941.015956	0.301871
941.193965	0.300518
941.371955	0.298745
941.549928	0.296446
941.727882	0.296401
941.905818	0.294640
942.083736	0.292834
942.261636	0.291395
942.439517	0.289026
942.617380	0.287077
942.795225	0.286743
942.973052	0.286209
943.150860	0.285248
943.328651	0.282597
943.506423	0.281515
943.684176	0.280823
943.861912	0.279425
944.039629	0.278232
944.217328	0.276587
944.395009	0.274217
944.572672	0.272993
944.750317	0.271535
944.927943	0.270729
945.105551	0.268330
945.283141	0.266552
945.460712	0.266248
945.638265	0.264250
945.815801	0.261941
945.993317	0.261096
946.170816	0.259092
946.348297	0.257614
946.525759	0.256110
946.703203	0.255029
946.880629	0.254159
947.058036	0.253840
947.235425	0.252223
947.412797	0.250913
947.590149	0.249477
947.767484	0.249241
947.944800	0.249411
948.122099	0.246943
948.299379	0.246460
948.476640	0.244051
948.653884	0.239477
948.831109	0.239565
949.008316	0.238258
949.185505	0.236752
949.362676	0.233720
949.539828	0.231686
949.716962	0.229981
949.894078	0.229036
950.071176	0.227904
950.248256	0.228562
950.425317	0.227486
950.602360	0.226265
950.779385	0.223673
950.956391	0.223435
951.133380	0.221254
951.310350	0.220510
951.487302	0.217697
951.664235	0.217653
951.841151	0.214882
952.018048	0.212365
952.194927	0.211752
952.371788	0.212871
952.548631	0.211434
952.725455	0.210760
952.902261	0.210701
953.079049	0.208524
953.255819	0.206206
953.432570	0.206143
953.609303	0.206579
953.786018	0.204852
953.962715	0.201994
954.139394	0.200797
954.316054	0.198392
954.492696	0.198127
954.669320	0.199604
954.845926	0.199225
955.022513	0.197207
955.199083	0.193783
955.375634	0.192811
955.552166	0.193210
955.728681	0.192278
955.905177	0.191763
956.081655	0.188765
956.258115	0.186185
956.434557	0.184962
956.610980	0.184495
956.787385	0.184522
956.963772	0.182929
957.140141	0.180656
957.316492	0.178515
957.492824	0.178584
957.669138	0.177601
957.845434	0.176108
958.021712	0.176331
958.197971	0.173981
958.374212	0.173257
958.550435	0.173558
958.726640	0.174443
958.902826	0.173042
959.078995	0.172032
959.255145	0.171907
959.431277	0.172037
959.607390	0.170110
959.783486	0.171095
959.959563	0.169954
960.135622	0.169829
960.311662	0.167709
960.487685	0.166804
960.663689	0.166565
960.839675	0.166520
961.015643	0.165369
961.191593	0.164013
961.367524	0.163078
961.543437	0.161178
961.719332	0.159039
961.895209	0.155872
962.071067	0.156856
962.246907	0.155788
962.422730	0.154487
962.598533	0.153328
962.774319	0.153128
962.950086	0.152116
963.125835	0.154306
963.301566	0.153190
963.477279	0.156187
963.652973	0.154630
963.828650	0.153953
964.004308	0.153958
964.179947	0.153391
964.355569	0.150943
964.531172	0.151780
964.706757	0.149659
964.882324	0.150598
965.057873	0.150709
965.233403	0.151931
965.408916	0.150456
965.584410	0.149770
965.759885	0.150805
965.935343	0.152194
966.110782	0.151537
966.286203	0.153054
966.461606	0.152315
966.636991	0.152149
966.812357	0.152201
966.987705	0.154022
967.163035	0.155806
967.338347	0.154847
967.513641	0.155748
967.688916	0.155347
967.864173	0.154121
968.039412	0.156070
968.214632	0.154222
968.389835	0.153712
968.565019	0.154362
968.740185	0.152986
968.915333	0.153823
969.090462	0.154886
969.265573	0.155471
969.440667	0.154509
969.615741	0.153526
969.790798	0.155608
969.965836	0.155049
970.140856	0.154291
970.315858	0.154415
970.490842	0.155071
970.665808	0.152224
970.840755	0.150207
971.015684	0.152281
971.190595	0.153073
971.365487	0.152976
971.540362	0.156086
971.715218	0.155666
971.890056	0.156199
972.064875	0.155518
972.239677	0.156333
972.414460	0.156180
972.589225	0.155645
972.763972	0.154108
972.938700	0.151057
973.113411	0.147892
973.288103	0.147397
973.462777	0.145590
973.637432	0.146369
973.812070	0.146177
973.986689	0.148640
974.161290	0.144276
974.335873	0.144271
974.510437	0.146010
974.684984	0.147647
974.859512	0.148233
975.034022	0.149144
975.208513	0.147986
975.382987	0.149086
975.557442	0.148745
975.731879	0.151601
975.906298	0.151567
976.080698	0.151054
976.255080	0.150536
976.429445	0.150846
976.603790	0.149724
976.778118	0.150600
976.952427	0.149620
977.126719	0.149388
977.300992	0.151768
977.475246	0.152020
977.649483	0.149788
977.823701	0.149581
977.997901	0.148528
978.172083	0.150477
978.346247	0.148786
978.520392	0.150005
978.694519	0.148991
978.868628	0.148434
979.042719	0.149693
979.216791	0.151302
979.390845	0.152128
979.564882	0.151215
979.738899	0.151268
979.912899	0.150382
980.086880	0.149008
980.260843	0.151624
980.434788	0.150642
980.608715	0.147087
980.782623	0.147283
980.956514	0.145532
981.130386	0.146348
981.304240	0.144944
981.478075	0.147105
981.651892	0.145046
981.825692	0.141780
981.999472	0.142098
982.173235	0.144051
982.346980	0.144694
982.520706	0.145081
982.694414	0.146163
982.868104	0.146323
983.041775	0.148724
983.215428	0.151676
983.389064	0.153375
983.562680	0.152941
983.736279	0.153472
983.909860	0.151750
984.083422	0.151436
984.256966	0.150063
984.430491	0.151092
984.603999	0.149213
984.777488	0.148709
984.950959	0.150478
985.124412	0.150877
985.297847	0.151596
985.471263	0.151499
985.644661	0.152838
985.818041	0.154268
985.991403	0.154155
986.164747	0.153416
986.338072	0.154399
986.511379	0.152013
986.684668	0.151181
986.857938	0.149372
987.031191	0.151175
987.204425	0.150064
987.377641	0.149120
987.550839	0.147347
987.724018	0.147435
987.897179	0.145688
988.070322	0.146891
988.243447	0.147281
988.416554	0.148733
988.589642	0.149186
988.762712	0.149903
988.935764	0.151540
989.108798	0.152762
989.281813	0.152657
989.454811	0.153866
989.627790	0.152742
989.800751	0.152868
989.973693	0.151789
990.146617	0.150418
990.319524	0.150366
990.492412	0.149741
990.665281	0.150722
990.838133	0.149430
991.010966	0.149051
991.183781	0.149326
991.356578	0.150902
991.529356	0.150932
991.702117	0.152932
991.874859	0.152966
992.047583	0.152001
992.220288	0.150760
992.392976	0.151576
992.565645	0.151725
992.738296	0.152134
992.910929	0.151692
993.083543	0.151790
993.256139	0.151273
993.428718	0.151668
993.601277	0.153960
993.773819	0.154363
993.946342	0.155515
994.118848	0.154562
994.291335	0.155133
994.463803	0.154560
994.636254	0.154314
994.808686	0.152575
994.981100	0.151912
995.153496	0.149944
995.325874	0.149765
995.498233	0.149864
995.670574	0.150208
995.842897	0.148852
996.015202	0.148288
996.187488	0.148689
996.359757	0.150256
996.532007	0.150108
996.704239	0.151742
996.876452	0.150570
997.048648	0.150155
997.220825	0.151745
997.392984	0.152749
997.565124	0.153102
997.737247	0.153654
997.909351	0.152729
998.081437	0.153556
998.253505	0.152947
998.425554	0.153527
998.597586	0.154476
998.769599	0.153402
998.941594	0.152349
999.113571	0.152631
999.285529	0.152965
999.457469	0.152572
999.629391	0.152446
999.801295	0.152738
999.973181	0.154363
1000.145048	0.154413
1000.316897	0.155123
1000.488728	0.155874
1000.660541	0.157126
1000.832335	0.156908
1001.004111	0.157118
1001.175869	0.156414
1001.347609	0.154556
1001.519331	0.153821
1001.691034	0.151864
1001.862719	0.151856
1002.034386	0.151892
1002.206035	0.150313
1002.377665	0.149534
1002.549277	0.150242
1002.720871	0.150454
1002.892447	0.150928
1003.064004	0.151872
1003.235544	0.153757
1003.407065	0.153507
1003.578568	0.152372
1003.750052	0.152689
1003.921519	0.152847
1004.092967	0.153644
1004.264397	0.153637
1004.435809	0.154293
1004.607202	0.153206
1004.778577	0.151925
1004.949934	0.152214
1005.121273	0.152979
1005.292594	0.153411
1005.463896	0.154160
1005.635180	0.153179
1005.806446	0.152329
1005.977694	0.151070
1006.148923	0.151294
1006.320135	0.152002
1006.491328	0.152235
1006.662503	0.152363
1006.833659	0.152106
1007.004798	0.150662
1007.175918	0.150507
1007.347020	0.150657
1007.518103	0.151678
1007.689169	0.151024
1007.860216	0.151258
1008.031245	0.151889
1008.202256	0.150040
1008.373248	0.150690
1008.544223	0.153928
1008.715179	0.154216
1008.886117	0.154969
1009.057036	0.154871
1009.227938	0.154380
1009.398821	0.153898
1009.569686	0.151994
1009.740533	0.152279
1009.911361	0.151481
1010.082172	0.148448
1010.252964	0.149009
1010.423738	0.149869
1010.594493	0.149272
1010.765231	0.150290
1010.935950	0.150532
1011.106651	0.151628
1011.277334	0.151748
1011.447998	0.152277
1011.618645	0.152798
1011.789273	0.152905
1011.959882	0.152342
1012.130474	0.153802
1012.301048	0.154346
1012.471603	0.153445
1012.642140	0.154113
1012.812658	0.156153
1012.983159	0.154480
1013.153641	0.154887
1013.324105	0.153600
1013.494551	0.153075
1013.664979	0.151633
1013.835388	0.150267
1014.005779	0.150643
1014.176152	0.149696
1014.346507	0.148683
1014.516843	0.150349
1014.687162	0.151364
1014.857462	0.152176
1015.027744	0.153061
1015.198007	0.154143
1015.368252	0.154077
1015.538480	0.154272
1015.708689	0.155116
1015.878879	0.154676
1016.049052	0.153573
1016.219206	0.152848
1016.389342	0.152952
1016.559460	0.152156
1016.729559	0.151608
1016.899641	0.151118
1017.069704	0.150547
1017.239749	0.150206
1017.409775	0.150670
1017.579784	0.151527
1017.749774	0.152241
1017.919746	0.151907
1018.089700	0.151113
1018.259635	0.150079
1018.429553	0.150778
1018.599452	0.153076
1018.769333	0.151787
1018.939195	0.152693
1019.109040	0.152486
1019.278866	0.151464
1019.448674	0.150525
1019.618464	0.151876
1019.788235	0.152823
1019.957989	0.152613
1020.127724	0.151062
1020.297441	0.151607
1020.467139	0.151589
1020.636820	0.151436
1020.806482	0.151184
1020.976126	0.152609
1021.145752	0.152512
1021.315359	0.152350
1021.484948	0.153505
1021.654519	0.152151
1021.824072	0.152675
1021.993607	0.150849
1022.163123	0.151059
1022.332621	0.150636
1022.502101	0.150731
1022.671563	0.150675
1022.841007	0.151406
1023.010432	0.151501
1023.179839	0.151827
1023.349228	0.151850
1023.518598	0.153505
1023.687951	0.152576
1023.857285	0.153446
1024.026601	0.152189
1024.195899	0.151759
1024.365178	0.150355
1024.534439	0.150183
1024.703682	0.150113
1024.872907	0.149238
1025.042114	0.148752
1025.211302	0.148519
1025.380472	0.149377
1025.549624	0.150610
1025.718758	0.150053
1025.887873	0.150199
1026.056970	0.148851
1026.226049	0.149944
1026.395110	0.150167
1026.564153	0.148159
1026.733177	0.148972
1026.902183	0.147296
1027.071171	0.146388
1027.240141	0.146385
1027.409092	0.148012
1027.578026	0.148775
1027.746940	0.148464
1027.915837	0.149198
1028.084716	0.151879
1028.253576	0.152273
1028.422418	0.150424
1028.591242	0.149896
1028.760048	0.150307
1028.928835	0.149095
1029.097604	0.148273
1029.266355	0.148417
1029.435088	0.148149
1029.603803	0.147525
1029.772499	0.145359
1029.941177	0.147292
1030.109837	0.147826
1030.278478	0.149701
1030.447102	0.149550
1030.615707	0.148865
1030.784294	0.150599
1030.952863	0.150439
1031.121413	0.149400
1031.289945	0.150711
1031.458460	0.150903
1031.626955	0.151751
1031.795433	0.150500
1031.963892	0.150967
1032.132334	0.152682
1032.300756	0.151389
1032.469161	0.150963
1032.637548	0.152166
1032.805916	0.152032
1032.974266	0.151274
1033.142598	0.149067
1033.310911	0.147976
1033.479207	0.148567
1033.647484	0.146825
1033.815743	0.146214
1033.983983	0.146860
1034.152206	0.146295
1034.320410	0.145696
1034.488596	0.145294
1034.656764	0.147014
1034.824914	0.147767
1034.993045	0.146821
1035.161158	0.146974
1035.329253	0.146208
1035.497330	0.147019
1035.665388	0.148139
1035.833428	0.149734
1036.001450	0.150262
1036.169454	0.150046
1036.337440	0.149950
1036.505407	0.148608
1036.673356	0.149991
1036.841287	0.150000
1037.009200	0.148512
1037.177094	0.147720
1037.344970	0.147556
1037.512828	0.147680
1037.680668	0.147602
1037.848489	0.146744
1038.016293	0.147158
1038.184078	0.146842
1038.351845	0.147970
1038.519593	0.149788
1038.687324	0.148620
1038.855036	0.147205
1039.022730	0.146407
1039.190406	0.144965
1039.358063	0.145825
1039.525702	0.148348
1039.693323	0.149916
1039.860926	0.148676
1040.028511	0.147777
1040.196077	0.150027
1040.363625	0.150708
1040.531155	0.151260
1040.698667	0.156076
1040.866161	0.155866
1041.033636	0.155930
1041.201093	0.154313
1041.368532	0.154860
1041.535952	0.154265
1041.703355	0.153276
1041.870739	0.151601
1042.038105	0.152585
1042.205452	0.150381
1042.372782	0.151153
1042.540093	0.150518
1042.707386	0.150285
1042.874661	0.150799
1043.041918	0.151816
1043.209156	0.152691
1043.376376	0.153938
1043.543578	0.153696
1043.710762	0.151068
1043.877927	0.149167
1044.045074	0.147993
1044.212203	0.149491
1044.379314	0.150220
1044.546407	0.148548
1044.713481	0.147289
1044.880537	0.147456
1045.047575	0.146938
1045.214595	0.147588
1045.381596	0.148667
1045.548579	0.147783
1045.715544	0.146625
1045.882491	0.145649
1046.049420	0.145865
1046.216330	0.145646
1046.383222	0.146654
1046.550096	0.148960
1046.716951	0.149736
1046.883789	0.151738
1047.050608	0.153041
1047.217409	0.151781
1047.384192	0.151790
1047.550956	0.151848
1047.717703	0.151976
1047.884431	0.153139
1048.051140	0.150361
1048.217832	0.150497
1048.384505	0.149372
1048.551161	0.150778
1048.717798	0.152342
1048.884416	0.151861
1049.051017	0.152340
1049.217599	0.153255
1049.384163	0.150911
1049.550709	0.152377
1049.717237	0.151310
1049.883746	0.149959
1050.050237	0.148651
1050.216710	0.149340
1050.383165	0.149771
1050.549601	0.151030
1050.716019	0.150811
1050.882420	0.151241
1051.048801	0.149744
1051.215165	0.149404
1051.381510	0.149409
1051.547837	0.148483
1051.714146	0.147685
1051.880437	0.145232
1052.046709	0.145475
1052.212964	0.144187
1052.379200	0.144257
1052.545417	0.145070
1052.711617	0.146702
1052.877798	0.147293
1053.043961	0.146663
1053.210106	0.147092
1053.376233	0.149425
1053.542341	0.148097
1053.708432	0.147844
1053.874504	0.147883
1054.040557	0.148647
1054.206593	0.148780
1054.372610	0.148610
1054.538609	0.150498
1054.704590	0.149842
1054.870553	0.150840
1055.036497	0.150553
1055.202424	0.150852
1055.368331	0.150460
1055.534221	0.149994
1055.700093	0.149351
1055.865946	0.150299
1056.031781	0.150894
1056.197598	0.150564
1056.363397	0.150106
1056.529177	0.151182
1056.694939	0.151071
1056.860683	0.150059
1057.026409	0.149782
1057.192116	0.150693
1057.357806	0.150703
1057.523477	0.149669
1057.689130	0.150534
1057.854764	0.149668
1058.020381	0.147551
1058.185979	0.148618
1058.351559	0.149593
1058.517120	0.148086
1058.682664	0.147513
1058.848189	0.145245
1059.013696	0.145526
1059.179185	0.145659
1059.344656	0.145371
1059.510108	0.146685
1059.675542	0.146197
1059.840958	0.146488
1060.006356	0.148108
1060.171735	0.147295
1060.337096	0.149056
1060.502439	0.150389
1060.667764	0.149200
1060.833071	0.150466
1060.998359	0.150167
1061.163629	0.149824
1061.328881	0.150875
1061.494115	0.151200
1061.659330	0.152514
1061.824527	0.152155
1061.989706	0.150858
1062.154867	0.151256
1062.320010	0.152311
1062.485134	0.150949
1062.650240	0.151885
1062.815328	0.150317
1062.980398	0.149135
1063.145449	0.149257
1063.310482	0.149649
1063.475497	0.149560
1063.640494	0.151220
1063.805473	0.149469
1063.970433	0.150493
1064.135375	0.152922
1064.300299	0.153581
1064.465204	0.154561
1064.630092	0.154744
1064.794961	0.153317
1064.959812	0.153632
1065.124645	0.153108
1065.289459	0.152632
1065.454256	0.152829
1065.619034	0.148817
1065.783793	0.149979
1065.948535	0.149477
1066.113258	0.148160
1066.277964	0.151172
1066.442651	0.151277
1066.607319	0.152370
1066.771970	0.152292
1066.936602	0.153542
1067.101216	0.154061
1067.265812	0.153200
1067.430389	0.154796
1067.594949	0.155224
1067.759490	0.153878
1067.924013	0.153999
1068.088518	0.152944
1068.253004	0.154018
1068.417472	0.154896
1068.581922	0.156994
1068.746354	0.155793
1068.910768	0.155687
1069.075163	0.157468
1069.239540	0.156538
1069.403899	0.155817
1069.568240	0.157273
1069.732562	0.157087
1069.896866	0.154160
1070.061152	0.152922
1070.225420	0.155545
1070.389670	0.154342
1070.553901	0.152874
1070.718114	0.153501
1070.882309	0.154149
1071.046486	0.153381
1071.210644	0.153007
1071.374784	0.154765
1071.538906	0.156529
1071.703010	0.155330
1071.867096	0.156407
1072.031163	0.157127
1072.195212	0.158048
1072.359243	0.158968
1072.523256	0.158478
1072.687250	0.158084
1072.851226	0.156438
1073.015184	0.153707
1073.179124	0.155534
1073.343045	0.156008
1073.506949	0.155441
1073.670834	0.153751
1073.834701	0.153097
1073.998549	0.152833
1074.162380	0.154346
1074.326192	0.156007
1074.489986	0.159484
1074.653761	0.157524
1074.817519	0.158418
1074.981258	0.159542
1075.144979	0.161512
1075.308682	0.162044
1075.472367	0.162019
1075.636033	0.162077
1075.799681	0.163153
1075.963311	0.161489
1076.126923	0.160956
1076.290516	0.159533
1076.454092	0.159156
1076.617649	0.158636
1076.781187	0.159909
1076.944708	0.159318
1077.108210	0.159299
1077.271695	0.157765
1077.435160	0.157135
1077.598608	0.157483
1077.762038	0.159163
1077.925449	0.159044
1078.088842	0.158430
1078.252217	0.154873
1078.415573	0.158582
1078.578912	0.158790
1078.742232	0.160674
1078.905534	0.161226
1079.068817	0.163886
1079.232083	0.163505
1079.395330	0.161429
1079.558559	0.161563
1079.721770	0.161761
1079.884962	0.157906
1080.048136	0.159626
1080.211293	0.158147
1080.374430	0.159402
1080.537550	0.157598
1080.700651	0.154882
1080.863735	0.157091
1081.026800	0.156591
1081.189846	0.159080
1081.352875	0.161611
1081.515885	0.159468
1081.678877	0.161001
1081.841851	0.160455
1082.004807	0.160535
1082.167744	0.163733
1082.330663	0.164625
1082.493564	0.164383
1082.656447	0.164555
1082.819312	0.164144
1082.982158	0.165251
1083.144986	0.164393
1083.307796	0.166175
1083.470587	0.164326
1083.633361	0.159731
1083.796116	0.158844
1083.958853	0.161629
1084.121571	0.160366
1084.284272	0.159252
1084.446954	0.157819
1084.609618	0.156796
1084.772264	0.155541
1084.934892	0.158831
1085.097501	0.162702
1085.260092	0.161027
1085.422665	0.159840
1085.585220	0.160199
1085.747756	0.160686
1085.910274	0.161607
1086.072774	0.160875
1086.235256	0.161462
1086.397720	0.159482
1086.560165	0.159133
1086.722592	0.158750
1086.885001	0.158518
1087.047392	0.158226
1087.209764	0.156261
1087.372119	0.156532
1087.534455	0.157474
1087.696772	0.158892
1087.859072	0.159920
1088.021353	0.156723
1088.183616	0.160356
1088.345861	0.160178
1088.508088	0.161387
1088.670296	0.161700
1088.832486	0.160574
1088.994658	0.163827
1089.156812	0.160965
1089.318948	0.163434
1089.481065	0.167929
1089.643164	0.167792
1089.805245	0.168597
1089.967308	0.168201
1090.129352	0.170183
1090.291378	0.171255
1090.453386	0.168230
1090.615376	0.169165
1090.777347	0.165571
1090.939301	0.165361
1091.101236	0.164569
1091.263153	0.163601
1091.425051	0.165051
1091.586932	0.164372
1091.748794	0.164824
1091.910638	0.164882
1092.072463	0.164784
1092.234271	0.163922
1092.396060	0.164120
1092.557831	0.163858
1092.719584	0.163521
1092.881319	0.161955
1093.043035	0.160161
1093.204733	0.159541
1093.366413	0.160532
1093.528075	0.158788
1093.689718	0.160402
1093.851343	0.160335
1094.012950	0.159137
1094.174539	0.162045
1094.336110	0.162382
1094.497662	0.165466
1094.659196	0.163689
1094.820712	0.161752
1094.982210	0.163258
1095.143689	0.163465
1095.305151	0.159756
1095.466594	0.162427
1095.628018	0.161334
1095.789425	0.159857
1095.950813	0.158158
1096.112183	0.161963
1096.273535	0.163941
1096.434869	0.162521
1096.596184	0.162011
1096.757482	0.165633
1096.918761	0.165224
1097.080021	0.164112
1097.241264	0.165002
1097.402488	0.166676
1097.563694	0.162971
1097.724882	0.164780
1097.886052	0.168520
1098.047203	0.170270
1098.208336	0.169701
1098.369451	0.167836
1098.530548	0.168600
1098.691627	0.168582
1098.852687	0.168325
1099.013729	0.167735
1099.174753	0.166005
1099.335758	0.164241
1099.496746	0.163209
1099.657715	0.164135
1099.818666	0.162658
1099.979599	0.163321
1100.140513	0.163964
1100.301409	0.163706
1100.462287	0.166273
1100.623147	0.167476
1100.783989	0.168227
1100.944812	0.169711
1101.105617	0.169666
1101.266404	0.170842
1101.427173	0.168073
1101.587923	0.171188
1101.748656	0.170084
1101.909370	0.169526
1102.070066	0.169567
1102.230743	0.168882
1102.391403	0.168400
1102.552044	0.165408
1102.712667	0.168048
1102.873271	0.169258
1103.033858	0.164866
1103.194426	0.169368
1103.354976	0.170978
1103.515508	0.168995
1103.676021	0.168759
1103.836517	0.167367
1103.996994	0.168703
1104.157453	0.165838
1104.317893	0.164962
1104.478316	0.168866
1104.638720	0.164940
1104.799106	0.165299
1104.959474	0.162425
1105.119823	0.160400
1105.280155	0.160930
1105.440468	0.163546
1105.600763	0.164468
1105.761039	0.163968
1105.921298	0.162243
1106.081538	0.162262
1106.241760	0.161546
1106.401964	0.167484
1106.562149	0.172753
1106.722316	0.175269
1106.882465	0.172571
1107.042596	0.173770
1107.202709	0.174961
1107.362803	0.174261
1107.522879	0.175748
1107.682937	0.176681
1107.842977	0.176331
1108.002999	0.175107
1108.163002	0.168336
1108.322987	0.164959
1108.482954	0.163795
1108.642902	0.165360
1108.802833	0.163034
1108.962745	0.161105
1109.122639	0.157851
1109.282515	0.156907
1109.442372	0.153074
1109.602211	0.158248
1109.762032	0.162075
1109.921835	0.163295
1110.081620	0.164961
1110.241386	0.166848
1110.401134	0.166612
1110.560864	0.166509
1110.720576	0.165383
1110.880269	0.168852
1111.039945	0.169952
1111.199602	0.165653
1111.359240	0.164759
1111.518861	0.159949
1111.678463	0.157159
1111.838047	0.158926
1111.997613	0.162040
1112.157161	0.160756
1112.316690	0.160220
1112.476202	0.155359
1112.635695	0.159526
1112.795169	0.158839
1112.954626	0.160964
1113.114064	0.163717
1113.273484	0.163364
1113.432886	0.164960
1113.592270	0.164329
1113.751635	0.160520
1113.910983	0.163410
1114.070312	0.163200
1114.229622	0.162323
1114.388915	0.165310
1114.548189	0.163777
1114.707445	0.164009
1114.866683	0.161500
1115.025903	0.160052
1115.185104	0.164913
1115.344287	0.165727
1115.503452	0.166143
1115.662599	0.169271
1115.821727	0.167526
1115.980838	0.173314
1116.139930	0.175896
1116.299004	0.174728
1116.458059	0.177527
1116.617097	0.175625
1116.776116	0.175712
1116.935117	0.177379
1117.094099	0.176264
1117.253064	0.175593
1117.412010	0.170120
1117.570938	0.165173
1117.729848	0.165515
1117.888740	0.167050
1118.047613	0.165791
1118.206468	0.164945
1118.365305	0.163674
1118.524124	0.166914
1118.682924	0.166933
1118.841707	0.171027
1119.000471	0.177623
1119.159216	0.178709
1119.317944	0.177580
1119.476653	0.181945
1119.635344	0.186442
1119.794017	0.186239
1119.952672	0.182670
1120.111308	0.181328
1120.269927	0.176541
1120.428527	0.172227
1120.587108	0.168580
1120.745672	0.163517
1120.904217	0.161611
1121.062744	0.153771
1121.221253	0.151413
1121.379744	0.151215
1121.538216	0.150164
1121.696671	0.150221
1121.855107	0.144633
1122.013524	0.149320
1122.171924	0.157047
1122.330305	0.153758
1122.488668	0.156044
1122.647013	0.158753
1122.805340	0.157635
1122.963648	0.159537
1123.121938	0.156293
1123.280210	0.161391
1123.438464	0.156262
1123.596700	0.152884
1123.754917	0.153653
1123.913116	0.154510
1124.071297	0.151985
1124.229459	0.153727
1124.387604	0.153426
1124.545730	0.156120
1124.703838	0.155727
1124.861928	0.159958
1125.019999	0.159040
1125.178052	0.159675
1125.336088	0.156459
1125.494104	0.161134
1125.652103	0.161532
1125.810083	0.161601
1125.968045	0.164478
1126.125989	0.167511
1126.283915	0.167500
1126.441823	0.168372
1126.599712	0.165050
1126.757583	0.167982
1126.915436	0.164387
1127.073270	0.161242
1127.231087	0.163759
1127.388885	0.163867
1127.546665	0.157515
1127.704426	0.151034
1127.862170	0.150352
1128.019895	0.157552
1128.177602	0.155842
1128.335291	0.156606
1128.492961	0.159480
1128.650614	0.154963
1128.808248	0.158541
1128.965864	0.164324
1129.123461	0.167377
1129.281041	0.168047
1129.438602	0.163291
1129.596145	0.167726
1129.753670	0.167780
1129.911176	0.163434
1130.068665	0.166377
1130.226135	0.162022
1130.383587	0.161347
1130.541020	0.162301
1130.698436	0.160047
1130.855833	0.160336
1131.013212	0.158838
1131.170573	0.159945
1131.327915	0.166277
1131.485239	0.165872
1131.642545	0.160185
1131.799833	0.161488
1131.957103	0.162682
1132.114354	0.163182
1132.271588	0.169504
1132.428803	0.167817
1132.585999	0.169531
1132.743178	0.165336
1132.900338	0.165188
1133.057480	0.168634
1133.214604	0.165230
1133.371710	0.168928
1133.528797	0.166315
1133.685866	0.157762
1133.842917	0.157675
1133.999950	0.154115
1134.156964	0.157368
1134.313960	0.156241
1134.470938	0.159249
1134.627898	0.159613
1134.784840	0.157286
1134.941763	0.156238
1135.098668	0.158304
1135.255555	0.162828
1135.412424	0.163555
1135.569274	0.159558
1135.726107	0.154780
1135.882921	0.153427
1136.039716	0.149969
1136.196494	0.146086
1136.353253	0.150881
1136.509995	0.149608
1136.666717	0.142880
1136.823422	0.145773
1136.980109	0.148952
1137.136777	0.156036
1137.293427	0.156091
1137.450059	0.161247
1137.606672	0.162877
1137.763267	0.162078
1137.919844	0.166062
1138.076403	0.168288
1138.232944	0.162248
1138.389466	0.166523
1138.545971	0.168633
1138.702457	0.167876
1138.858924	0.165442
1139.015374	0.161607
1139.171805	0.160831
1139.328218	0.157748
1139.484613	0.160512
1139.640990	0.168510
1139.797348	0.166571
1139.953688	0.165741
1140.110010	0.168342
1140.266314	0.170231
1140.422600	0.175089
1140.578867	0.177745
1140.735116	0.177989
1140.891347	0.177093
1141.047559	0.168397
1141.203754	0.164301
1141.359930	0.163431
1141.516088	0.159114
1141.672228	0.157072
1141.828349	0.160193
1141.984452	0.153896
1142.140537	0.154684
1142.296604	0.154111
1142.452653	0.154901
1142.608683	0.156371
1142.764695	0.151330
1142.920689	0.150516
1143.076665	0.151222
1143.232622	0.145200
1143.388562	0.147752
1143.544483	0.142054
1143.700385	0.138424
1143.856270	0.140932
1144.012136	0.142689
1144.167985	0.144619
1144.323814	0.148167
1144.479626	0.146945
1144.635420	0.149332
1144.791195	0.153544
1144.946952	0.151236
1145.102691	0.147669
1145.258411	0.142985
1145.414113	0.139365
1145.569798	0.137303
1145.725463	0.137764
1145.881111	0.138854
1146.036741	0.140253
1146.192352	0.135091
1146.347945	0.147055
1146.503519	0.152270
1146.659076	0.146295
1146.814614	0.143533
1146.970134	0.143963
1147.125636	0.149341
1147.281120	0.154360
1147.436585	0.153234
1147.592032	0.151260
1147.747461	0.145954
1147.902872	0.145227
1148.058265	0.155440
1148.213639	0.153204
1148.368995	0.150285
1148.524333	0.141628
1148.679653	0.132693
1148.834954	0.129917
1148.990237	0.134266
1149.145502	0.126172
1149.300749	0.128956
1149.455977	0.125453
1149.611188	0.128410
1149.766380	0.133186
1149.921553	0.133511
1150.076709	0.139949
1150.231846	0.143751
1150.386966	0.141578
1150.542066	0.154307
1150.697149	0.153594
1150.852214	0.157176
1151.007260	0.158235
1151.162288	0.153289
1151.317298	0.157021
1151.472289	0.150148
1151.627263	0.150661
1151.782218	0.148570
1151.937155	0.146979
1152.092073	0.145085
1152.246974	0.145638
1152.401856	0.144222
1152.556720	0.147815
1152.711566	0.139079
1152.866393	0.151443
1153.021203	0.145086
1153.175994	0.148864
1153.330767	0.144019
1153.485521	0.141857
1153.640258	0.133080
1153.794976	0.130846
1153.949676	0.125786
1154.104358	0.128695
1154.259021	0.120344
1154.413667	0.124218
1154.568294	0.113308
1154.722903	0.107168
1154.877493	0.107886
1155.032066	0.111635
1155.186620	0.116745
1155.341156	0.123611
1155.495674	0.122731
1155.650173	0.121227
1155.804654	0.124782
1155.959118	0.139058
1156.113562	0.145610
1156.267989	0.148587
1156.422397	0.148317
1156.576788	0.143779
1156.731160	0.138756
1156.885513	0.137533
1157.039849	0.141548
1157.194166	0.132717
1157.348465	0.119859
1157.502746	0.123931
1157.657009	0.121243
1157.811253	0.118745
1157.965479	0.117764
1158.119687	0.116452
1158.273877	0.125298
1158.428048	0.115487
1158.582201	0.119077
1158.736337	0.125422
1158.890453	0.120668
1159.044552	0.125915
1159.198632	0.125885
1159.352694	0.122062
1159.506738	0.125516
1159.660764	0.123681
1159.814771	0.129162
1159.968761	0.131139
1160.122732	0.133697
1160.276685	0.132029
1160.430619	0.128063
1160.584535	0.129049
1160.738434	0.132998
1160.892313	0.132354
1161.046175	0.135661
1161.200019	0.137342
1161.353844	0.128895
1161.507651	0.128162
1161.661440	0.125644
1161.815210	0.130604
1161.968962	0.134808
1162.122697	0.136205
1162.276412	0.135703
1162.430110	0.131176
1162.583789	0.130652
1162.737451	0.131326
1162.891094	0.132489
1163.044718	0.140998
1163.198325	0.131081
1163.351913	0.131711
1163.505483	0.130113
1163.659035	0.127046
1163.812569	0.128094
1163.966084	0.125316
1164.119581	0.126546
1164.273060	0.124056
1164.426521	0.116993
1164.579964	0.115820
1164.733388	0.109460
1164.886794	0.110333
1165.040182	0.104107
1165.193551	0.101557
1165.346903	0.099411
1165.500236	0.105586
1165.653551	0.109784
1165.806848	0.108531
1165.960126	0.114215
1166.113386	0.115832
1166.266628	0.116678
1166.419852	0.136304
1166.573058	0.136046
1166.726245	0.142636
1166.879414	0.131524
1167.032565	0.124851
1167.185698	0.128881
1167.338812	0.129914
1167.491909	0.124261
1167.644987	0.118057
1167.798046	0.109398
1167.951088	0.105484
1168.104111	0.107817
1168.257117	0.119892
1168.410103	0.119922
1168.563072	0.115029
1168.716023	0.115927
1168.868955	0.110031
1169.021869	0.120350
1169.174765	0.103077
1169.327642	0.096797
1169.480501	0.086406
1169.633343	0.080260
1169.786165	0.082938
1169.938970	0.080663
1170.091757	0.074426
1170.244525	0.084798
1170.397275	0.080682
1170.550007	0.090606
1170.702720	0.101271
1170.855415	0.111230
1171.008092	0.104835
1171.160751	0.097906
1171.313392	0.097050
1171.466014	0.174401
1171.618619	0.058325
1171.771205	0.058325
1171.923772	0.058325
