sample name	sample
index	1015
start time	 04-19-2021  11:43:43 AM
880	0.278675
Peak Time (s)	101.04
Peak Height 	0.2787
calc peak height	100,103
Baseline Time (s)	9.537
Baseline Value 	-0.006313
subtract baseline	10,4
Abs	0.179462
Peak Time (s)	102.035
Peak Height 	0.1795
calc peak height	100,103
Baseline Time (s)	8.537
Baseline Value 	0.003315
subtract baseline	10,3
PK_550	0.105025
Peak Time (s)	102.035
Peak Height 	0.105
calc peak height	100,103
Baseline Time (s)	9.537
Baseline Value 	6.234E-4
subtract baseline	10,2
PK_880	0.170197
Peak Time (s)	102.535
Peak Height 	0.1702
calc peak height	100,103
Baseline Time (s)	9.537
Baseline Value 	0.002533
subtract baseline	10,1


Time (s)	A880-A510	A880-A775	A880-A975	A880	I510	I775	I975	I880	
0.037000	-0.000818	-0.001118	-0.003989	0.002816	6553.479022	45809.706299	3942.752163	24234.594098
0.537500	-0.000891	-0.001219	-0.000717	0.004283	6540.129105	45654.762656	3947.686198	24162.232713
1.038000	-0.002800	-0.000984	-0.005719	0.003898	6526.960517	45715.848434	3935.105239	24181.164738
1.535000	-0.004980	-0.000832	-0.004899	0.006696	6484.290143	45455.315020	3929.759262	24043.734982
2.038500	-0.000823	-0.000316	-0.003254	0.001296	6566.648696	46040.192183	3948.919427	24309.792512
2.535500	0.000386	0.000340	-0.003538	0.001287	6577.279468	46106.356666	3948.166290	24310.243629
3.036000	0.001299	-0.000058	0.002544	-0.000661	6602.361224	46261.212710	3970.373826	24407.035087
3.536500	-0.002908	-0.001026	-0.003293	0.003071	6533.162958	45793.502996	3943.954890	24221.956475
4.036000	-0.001401	-0.000399	-0.001428	-0.000045	6573.297641	46165.522991	3957.632021	24376.357331
4.536500	-0.000753	-0.001112	0.001465	-0.000585	6583.689721	46148.348050	3967.155298	24403.277028
5.040000	-0.000329	-0.000810	-0.002508	-0.000516	6586.803590	46171.594262	3955.954385	24399.838391
5.537500	0.001198	-0.000192	-0.003429	-0.000074	6596.314717	46189.094528	3952.199786	24377.817112
6.035000	-0.000366	-0.000332	-0.003802	-0.000330	6584.847608	46200.762733	3951.879421	24390.578457
6.538000	0.000549	-0.000493	-0.000649	-0.000478	6594.162880	46199.380314	3960.985866	24397.907361
7.035500	-0.000691	0.000319	-0.002013	0.000375	6575.836050	46195.301226	3954.861052	24355.505137
7.536000	-0.000053	0.000010	-0.003084	0.000118	6583.669266	46190.179216	3952.621730	24368.293527
8.036000	-0.001703	0.000223	-0.003336	0.000074	6569.635536	46215.871094	3952.049217	24370.486704
8.536500	-0.000214	0.000278	0.000000	-0.000128	6584.412369	46241.467280	3961.815553	24380.524279
9.036500	-0.000260	-0.000010	0.000206	0.000109	6581.927222	46188.985800	3961.729226	24368.712940
9.537000	0.000000	0.000000	0.002296	0.000000	6585.159968	46200.894003	3967.839752	24374.143908
10.037000	0.001212	-0.000232	-0.002363	-0.000363	6598.973781	46214.006408	3955.931473	24392.211718
10.535000	-0.001164	-0.000140	-0.001131	-0.000506	6579.399684	46237.517300	3959.729571	24399.324913
11.038000	0.000209	0.000802	-0.002064	0.000558	6582.107860	46225.258192	3954.216569	24346.429417
11.535500	0.001749	0.000474	0.001146	0.000224	6598.532662	46225.894579	3964.018520	24363.007728
12.035500	-0.001178	-0.000419	0.002089	-0.000508	6579.293653	46209.749248	3968.678235	24399.417741
12.536000	0.000436	-0.000517	0.002276	-0.000563	6593.912527	46205.533086	3969.351655	24402.154510
13.036500	0.000820	-0.000184	-0.002732	-0.000431	6596.131411	46225.616696	3955.102837	24395.596121
13.536000	0.000604	0.000314	0.000790	0.000384	6587.085712	46193.915345	3962.586712	24355.061963
14.037000	-0.001007	0.000282	-0.002692	0.002327	6556.086009	45997.093753	3947.636158	24258.763011
14.537000	-0.000004	0.000097	0.006238	0.002164	6566.225908	45994.931262	3972.801656	24266.817459
15.036500	-0.001515	-0.000523	-0.000812	0.003526	6541.281903	45798.334488	3949.502371	24199.537986
15.537500	0.000607	-0.000053	0.000197	-0.000672	6596.381813	46262.815206	3963.870808	24407.605267
16.034500	0.001668	0.000296	-0.002332	-0.000264	6602.116998	46256.837446	3955.743189	24387.280841
16.535500	-0.000883	-0.000539	0.003465	-0.000657	6583.180863	46212.698549	3972.935923	24406.822631
17.036000	0.000296	-0.000238	0.000160	-0.000394	6591.206476	46216.572887	3962.997915	24393.767489
17.535500	-0.001098	-0.000641	-0.001290	0.000083	6574.840568	46128.631185	3957.662679	24370.033814
18.036000	-0.001539	-0.000062	-0.001936	0.001061	6562.460193	46088.816592	3953.185223	24321.451220
18.536500	-0.002104	0.000137	0.000079	0.000686	6560.809408	46145.993224	3959.779233	24340.038009
19.037000	0.000245	0.000690	0.003283	0.002022	6569.637512	46068.118843	3964.960010	24273.854612
19.537000	-0.000571	-0.000695	-0.002140	0.000626	6574.694418	46069.070540	3953.819567	24343.033831
20.040500	-0.001164	-0.000111	0.000447	0.001104	6565.353108	46079.635581	3959.638889	24319.296514
20.535000	0.000178	-0.000039	-0.000695	0.000954	6578.370061	46101.787236	3956.897819	24326.743640
21.035500	0.000961	0.000164	-0.000500	0.001390	6581.400973	46078.584329	3956.234401	24305.119847
21.535000	-0.001650	0.000733	0.000686	0.001438	6558.221245	46130.565067	3959.378547	24302.765226
22.035500	-0.000139	-0.000371	0.000081	0.000881	6576.237938	46075.952645	3959.244143	24330.379726
22.536500	0.000077	-0.000120	-0.001728	0.000902	6577.944555	46098.917715	3954.193726	24329.333126
23.036500	-0.001600	0.000218	-0.001755	0.001075	6561.809978	46115.363048	3953.642558	24320.737888
23.537000	-0.000678	0.000555	0.000769	0.001367	6567.292785	46119.845227	3959.804020	24306.272863
24.037500	0.000088	-0.000588	0.003540	0.001050	6576.749711	46037.561030	3968.377786	24321.996463
24.540000	-0.000343	0.000181	-0.002948	0.001318	6570.644803	46087.387975	3949.698694	24308.695649
25.035000	-0.002095	-0.000634	-0.001563	0.000462	6562.831597	46091.458237	3955.862274	24351.159271
25.537500	-0.003269	0.000085	-0.003600	0.000847	6549.294867	46124.888793	3949.201543	24332.090983
26.035500	-0.000559	0.000289	-0.002617	0.001407	6567.984701	46089.410151	3950.361976	24304.299550
26.535500	0.000441	0.000851	-0.000098	0.001389	6576.868785	46147.123487	3957.347048	24305.178473
27.039000	-0.000898	0.000535	0.003111	0.001182	6566.989911	46136.302023	3966.816824	24315.433353
27.536500	0.000924	-0.000357	0.002330	-0.001450	6606.001392	46310.167755	3971.977082	24446.351134
28.037000	0.000331	0.001244	0.003664	0.000169	6586.581647	46308.401892	3971.182564	24365.757398
28.537000	0.000446	0.000285	0.000816	0.000086	6588.315488	46220.785204	3963.483275	24369.867765
29.040000	-0.001528	0.000559	-0.001811	0.001740	6556.657121	46083.121642	3951.660702	24287.802731
29.537500	-0.000380	0.000552	0.001432	0.000317	6579.062619	46224.369135	3964.554504	24358.394713
30.035000	0.000798	0.000625	0.004377	0.000243	6590.022451	46239.110366	3972.970265	24362.072133
30.535500	-0.001711	-0.000669	0.002522	0.001874	6553.894300	45947.562269	3963.255244	24281.138789
31.036000	-0.000028	-0.000255	-0.000784	0.002199	6565.711220	45956.446043	3953.221888	24265.072122
31.536000	0.002082	0.000731	-0.000925	0.000832	6596.122715	46190.882841	3956.602707	24332.830092
32.036000	0.001190	0.001142	0.005214	0.000958	6587.188778	46219.306964	3973.310150	24326.554701
32.536500	0.002902	0.000726	0.004032	0.000448	6606.709069	46228.675074	3971.431543	24351.898922
33.037000	0.001947	0.000522	-0.004948	0.001154	6592.107735	46137.777278	3944.669467	24316.815948
33.540000	-0.000997	-0.000491	0.003750	-0.000231	6578.458799	46174.947844	3972.541246	24385.646563
34.034500	0.001202	-0.000070	0.001939	-0.000324	6598.551388	46226.322774	3967.747194	24390.280269
34.534000	-0.002070	-0.000798	0.000910	0.001338	6555.435843	45987.975731	3960.274283	24307.701336
35.035000	-0.001838	-0.000038	0.002031	0.002094	6550.895750	45988.518258	3961.287899	24270.293459
35.535500	0.000959	0.000062	-0.000820	0.002135	6574.881083	45994.341640	3953.301381	24268.244306
36.036000	0.000546	0.000779	0.000316	0.002200	6570.709182	46059.234373	3956.253044	24265.038554
36.536000	-0.000044	0.000308	-0.001711	0.002325	6564.481148	45999.889574	3950.330939	24258.859061
37.036500	-0.000111	0.000909	0.002560	0.003331	6555.139541	45959.623477	3959.327010	24209.147151
37.536500	0.000231	-0.000229	-0.001682	0.001480	6574.237736	46030.520959	3952.732397	24300.688492
38.039500	-0.000328	-0.000272	-0.003209	0.001346	6570.525382	46039.508517	3948.905828	24307.309266
38.537000	0.000167	0.000573	0.003696	0.001974	6569.373276	46061.171313	3966.239509	24276.198976
39.037500	-0.000098	0.000632	0.001483	0.002063	6566.290090	46058.176620	3959.855645	24271.810125
39.535000	0.000288	0.000566	-0.002422	0.001755	6572.343564	46082.283965	3949.943405	24287.075109
40.035000	-0.000584	-0.000311	-0.001666	0.001155	6569.961138	46054.648774	3953.667122	24316.764960
40.535000	0.001459	-0.000215	0.000688	0.001037	6588.856017	46075.995565	3960.493828	24322.636488
41.036000	-0.000202	0.000124	0.000767	0.001445	6570.770992	46069.098079	3959.584201	24302.414094
41.536000	0.000404	0.000913	0.000380	0.001802	6572.943827	46112.198138	3957.527809	24284.728400
42.036500	-0.001407	0.000224	0.003627	0.001370	6560.924529	46086.542571	3967.728638	24306.115695
42.539500	0.000845	0.001036	0.005243	0.001884	6576.076175	46116.294860	3970.803361	24280.671275
43.037000	-0.000267	-0.000091	0.004155	0.001391	6570.667975	46053.073544	3969.143007	24305.091450
43.537500	-0.000199	0.000037	0.004574	0.001853	6567.232358	46019.800642	3969.021288	24282.182891
44.034500	-0.000815	0.000242	0.000429	0.001144	6568.043941	46110.860305	3959.480057	24317.308217
44.535000	0.002317	0.000464	0.004294	0.000220	6603.561257	46225.241089	3972.798885	24363.190260
45.034500	-0.001339	-0.000142	-0.003268	0.005010	6529.978978	45689.324886	3938.742044	24126.466156
45.535500	0.000816	0.000396	0.002248	0.000448	6588.376162	46195.698146	3966.457314	24351.857381
46.035500	0.003209	0.000352	0.002828	0.000223	6611.388889	46213.725540	3968.697773	24363.034231
46.536000	0.000818	0.000682	0.000278	0.000607	6587.003348	46208.386714	3960.549118	24343.979836
47.039500	-0.001420	0.000142	0.000254	0.005115	6528.369399	45706.940491	3948.067793	24121.314275
47.537000	-0.001302	0.000530	0.007751	0.002496	6552.046127	46004.912047	3976.107491	24250.380052
48.037000	-0.001369	-0.000319	0.005516	0.002204	6554.003937	45949.586716	3970.671056	24264.834576
48.534500	0.001257	0.000883	0.004030	0.000555	6591.312358	46233.674401	3971.125534	24346.555612
49.035000	-0.002427	0.000267	0.000875	0.005464	6516.689884	45684.760949	3948.812065	24104.133094
49.535000	0.000108	0.000426	0.000935	-0.000217	6588.007624	46265.217200	3964.655188	24384.939249
50.035500	0.003451	0.000649	0.000536	-0.001915	6632.432838	46457.775920	3968.271095	24469.583635
50.536000	-0.001108	0.000975	0.005028	-0.001217	6586.111624	46420.465899	3978.887326	24434.749487
51.036000	0.001190	-0.000899	0.007244	0.039357	6265.240488	42360.176983	3875.694461	22503.181170
51.539000	0.017853	-0.004011	0.026991	0.318953	4683.539769	23439.600317	3372.492594	13139.870079
52.036000	-0.010740	-0.016134	-0.032910	-0.089239	7338.524086	54154.691969	4128.106937	29300.404410
52.537000	-0.021200	-0.057632	-0.039309	-0.207803	8626.225295	64123.403855	4531.824180	37625.713882
53.037500	-0.024174	-0.074790	-0.033566	-0.232108	8920.405244	65140.558836	4658.884177	39631.461667
53.534000	-0.005600	-0.069074	-0.011752	-0.225647	9093.996900	65033.673803	4727.277669	39087.264211
54.035000	-0.002072	-0.049475	-0.002756	-0.195357	8716.821325	63520.868935	4633.059461	36641.246258
54.534500	-0.000864	-0.021362	0.002317	-0.128487	7884.131789	58338.026026	4384.382648	31808.840543
55.034500	-0.007993	-0.012193	-0.005512	-0.092268	7399.513138	54985.302886	4227.529574	29485.980017
55.536000	0.002298	-0.010082	-0.000224	-0.102774	7625.983991	56523.128509	4281.948927	30139.934608
56.039000	0.008546	-0.007725	0.003541	-0.105320	7725.074519	57132.922239	4304.257973	30300.855229
56.536000	0.021018	-0.009348	0.008719	-0.126614	8124.686028	59649.868671	4401.432336	31683.930249
57.037000	0.019934	0.000444	0.008786	-0.080583	7575.457871	55099.795951	4236.396421	28776.987827
57.537000	0.023635	0.003073	0.018380	-0.079041	7599.339149	55230.787651	4264.059930	28684.845120
58.037500	0.032322	0.008609	0.023539	-0.056084	7443.648818	53169.943574	4203.595187	27351.040273
58.535000	0.040142	0.014520	0.034793	-0.018467	7134.574099	49624.645967	4118.462544	25312.234882
59.035000	0.044567	0.019471	0.039913	0.004501	6952.671052	47722.489846	4063.690893	24151.508607
59.536000	0.054845	0.024200	0.046834	0.018195	6919.993834	46805.002377	4043.486317	23488.082948
60.036000	0.065266	0.028303	0.055323	0.041391	6800.065341	44912.930807	4000.688238	22411.013222
60.538500	0.066409	0.032727	0.066889	0.063904	6607.158884	43195.490411	3969.759019	21419.218557
61.036500	0.068856	0.037185	0.069757	0.086998	6429.580609	41499.399058	3914.624399	20453.887502
61.536500	0.080878	0.042277	0.076512	0.098821	6431.251504	40904.477444	3901.208211	19979.202592
62.037000	0.086871	0.046402	0.087816	0.099773	6473.860513	41183.775697	3928.782914	19941.556834
62.537500	0.095975	0.051618	0.093773	0.131452	6286.881094	38915.666605	3861.462546	18734.205832
63.035000	0.099385	0.055320	0.100358	0.167596	6032.455580	36317.116803	3788.864264	17460.047050
63.534500	0.108310	0.059656	0.108888	0.178659	6016.489832	35802.200476	3782.869965	17090.781534
64.035000	0.114254	0.064368	0.117028	0.163773	6175.383461	37324.941395	3838.669656	17589.867791
64.535500	0.115595	0.066153	0.117843	0.178718	6070.756765	36294.937243	3804.079292	17088.861006
65.039000	0.120358	0.069671	0.124587	0.190274	6019.716402	35680.885072	3792.552452	16713.078070
65.536000	0.126481	0.072339	0.121462	0.191988	6052.753363	35753.221132	3781.092179	16658.211971
66.036500	0.125248	0.076851	0.132080	0.176830	6159.304370	37279.302780	3843.644177	17151.196639
66.536500	0.129975	0.077420	0.127697	0.166391	6279.306778	38164.059289	3858.885197	17500.836625
67.037000	0.128932	0.079123	0.132108	0.169811	6243.561048	38024.606810	3861.399509	17385.362687
67.537000	0.133049	0.079774	0.134079	0.171858	6260.092770	37911.588322	3861.206491	17316.671649
68.035000	0.136364	0.081554	0.136731	0.176269	6251.328550	37699.643483	3856.748727	17169.770466
68.536000	0.136218	0.082025	0.133675	0.181189	6211.104389	37344.063603	3836.758807	17007.673573
69.035000	0.137598	0.082536	0.137723	0.184676	6194.509522	37108.299794	3838.151315	16893.882228
69.538500	0.139152	0.084519	0.139957	0.189345	6170.126254	36896.879061	3832.114033	16742.940317
70.036000	0.139067	0.084395	0.141366	0.193297	6138.779259	36578.436002	3825.841370	16616.426968
70.536500	0.139072	0.085566	0.142256	0.197286	6108.130998	36360.055985	3818.249443	16489.912121
71.036500	0.137158	0.085928	0.141709	0.207132	6019.292576	35635.514287	3793.182132	16182.574283
71.537000	0.143249	0.087547	0.142527	0.205626	6076.405930	35872.477409	3798.736310	16229.128087
72.037000	0.144028	0.088089	0.149672	0.208540	6060.256135	35692.425706	3808.924434	16139.193687
72.537500	0.145805	0.088508	0.149883	0.212321	6045.166893	35438.900722	3800.321164	16023.375122
73.035000	0.142513	0.088080	0.140936	0.220941	5956.896668	34766.283732	3759.008238	15763.089550
73.535500	0.145945	0.089196	0.144106	0.217895	6004.593957	35073.977489	3773.434823	15854.473267
74.038500	0.146013	0.089497	0.152195	0.220454	5986.169397	34906.646160	3786.446952	15777.656729
74.535500	0.145367	0.090764	0.151204	0.223311	5960.431249	34789.355809	3777.374693	15692.419839
75.036000	0.144815	0.089770	0.149475	0.229585	5910.865876	34258.701655	3758.763595	15507.181501
75.536000	0.150248	0.092052	0.154979	0.229303	5952.309488	34444.900289	3772.183932	15515.449910
76.036500	0.150379	0.092794	0.151910	0.231369	5938.221458	34348.604651	3760.264602	15455.016246
76.537000	0.150502	0.091667	0.152166	0.232387	5931.723358	34193.222815	3758.507627	15425.332833
77.037000	0.146148	0.092220	0.151592	0.240186	5844.819918	33674.109333	3739.406746	15200.262144
77.537000	0.151403	0.093067	0.156538	0.237430	5901.832331	33931.182744	3756.964171	15279.340567
78.035000	0.152868	0.093994	0.153260	0.239828	5895.137189	33825.989526	3743.995007	15210.511426
78.538000	0.154316	0.094872	0.159543	0.242650	5885.301251	33687.437474	3751.882133	15129.973223
79.036000	0.150177	0.094719	0.151879	0.248676	5813.521937	33251.277572	3721.044646	14959.776430
79.536000	0.156068	0.095085	0.158319	0.245242	5879.307660	33518.813723	3743.189076	15056.483271
80.036500	0.156412	0.096323	0.159789	0.247536	5865.432136	33444.215158	3741.321950	14991.799424
80.536500	0.155381	0.094827	0.162132	0.247563	5857.935590	33337.033089	3746.580636	14991.055619
81.037000	0.154938	0.096237	0.159090	0.254456	5806.422832	32954.100040	3724.224408	14798.742855
81.537000	0.157696	0.096596	0.163541	0.251490	5846.543532	33185.727834	3740.864614	14881.122988
82.037500	0.158347	0.096243	0.164291	0.252691	5842.660077	33077.173306	3739.843494	14847.683709
82.535000	0.159879	0.097568	0.163994	0.254653	5839.628721	33032.870363	3734.749957	14793.280184
83.038000	0.155914	0.097827	0.163997	0.261527	5764.277076	32576.103349	3719.421181	14604.618606
83.535500	0.159227	0.098469	0.160603	0.256362	5823.065081	32976.720320	3723.351291	14746.118333
84.035500	0.157608	0.096548	0.165215	0.256565	5810.325062	32829.519714	3733.197343	14740.504475
84.536000	0.157964	0.097400	0.167640	0.257433	5806.762465	32828.456505	3736.702273	14716.638174
85.036000	0.158702	0.098018	0.169267	0.259080	5800.438430	32757.396552	3736.655917	14671.432405
85.537000	0.161729	0.097460	0.167481	0.259754	5816.837046	32672.622799	3731.128334	14653.003027
86.037000	0.161992	0.099917	0.169374	0.261927	5803.516577	32692.076869	3730.501891	14593.722379
86.537000	0.163017	0.099089	0.166340	0.262477	5806.823090	32597.479913	3722.510553	14578.778565
87.034500	0.157522	0.098158	0.157556	0.267530	5734.258230	32189.903566	3692.268043	14442.275055
87.537500	0.161662	0.098087	0.165306	0.262568	5796.771088	32522.672735	3720.016984	14576.315894
88.036000	0.163966	0.099557	0.172256	0.264350	5800.401177	32501.345812	3731.531945	14528.012363
88.535500	0.164301	0.099146	0.165852	0.264409	5802.312246	32469.150109	3717.150219	14526.397454
89.039000	0.157679	0.099287	0.164262	0.269858	5719.538118	32108.923986	3701.732724	14379.924261
89.536500	0.164087	0.100393	0.165628	0.266723	5784.787167	32396.379921	3711.562681	14463.966404
90.036500	0.164908	0.100173	0.174122	0.266993	5788.597646	32363.010614	3729.789327	14456.707468
90.537000	0.163455	0.101000	0.172163	0.267974	5771.798920	32352.581822	3723.234753	14430.367246
91.037000	0.162424	0.101457	0.167528	0.273842	5724.694681	31986.873079	3700.176496	14274.004503
91.534500	0.164580	0.101152	0.167413	0.268753	5774.187621	32310.009201	3711.026473	14409.498119
92.037500	0.163418	0.101493	0.174052	0.268997	5764.513150	32316.518702	3725.159872	14402.947460
92.535000	0.164655	0.101782	0.174536	0.270049	5765.782008	32264.752144	3723.896830	14374.822796
93.035500	0.162300	0.100220	0.164607	0.271094	5742.521646	32088.531768	3699.800151	14346.954689
93.536000	0.165902	0.101731	0.175188	0.270861	5768.772652	32206.291202	3723.540246	14353.166641
94.036000	0.166484	0.101962	0.181209	0.271190	5770.514646	32199.689323	3736.278745	14344.414710
94.536500	0.163984	0.102421	0.173450	0.271548	5750.909323	32206.458616	3718.163680	14334.859719
95.036500	0.163727	0.102063	0.164661	0.275789	5720.331420	31896.890560	3689.789793	14222.574270
95.537000	0.167672	0.102850	0.172035	0.272200	5771.740519	32191.435071	3713.607643	14317.545880
96.037500	0.165688	0.101590	0.169708	0.271967	5759.710846	32122.016652	3709.011480	14323.725587
96.537500	0.164869	0.102403	0.175662	0.272460	5750.731897	32143.670714	3721.043217	14310.628148
97.035000	0.162823	0.102592	0.168674	0.276866	5706.959418	31860.214381	3696.109502	14194.220211
97.535000	0.167614	0.102693	0.178534	0.273729	5760.835185	32077.604669	3724.603300	14276.971777
98.035500	0.167453	0.103316	0.175662	0.274254	5756.139109	32084.210924	3717.075391	14263.098950
98.536000	0.168299	0.103294	0.170457	0.274566	5759.794890	32061.688387	3704.970100	14254.846542
99.035500	0.167058	0.103642	0.171624	0.278314	5725.788436	31833.683471	3699.360030	14156.240108
99.536500	0.165589	0.103066	0.181575	0.274305	5743.051156	32063.888451	3730.106008	14261.740269
100.036500	0.165990	0.103067	0.169078	0.274550	5744.115315	32047.495249	3702.003944	14255.268934
100.537000	0.169128	0.103781	0.174412	0.275389	5759.831156	32039.052433	3711.821818	14233.114401
101.040000	0.165740	0.103277	0.170367	0.278675	5714.432397	31785.200384	3695.859902	14146.785437
101.535000	0.167320	0.105005	0.177092	0.276920	5737.029649	32018.439333	3714.349350	14192.813909
102.035500	0.168916	0.105025	0.179462	0.276978	5747.508391	32015.833046	3719.452888	14191.275377
102.535500	0.170197	0.103746	0.178825	0.275960	5763.250566	31998.304399	3720.295950	14218.062988
103.035500	0.167729	0.104120	0.176265	0.279512	5722.218873	31785.563613	3706.850825	14124.889988
103.535500	0.169378	0.104562	0.173981	0.277021	5750.372303	31981.889223	3707.302962	14190.151171
104.036500	0.170562	0.104229	0.172077	0.277115	5757.837870	31953.232499	3702.947981	14187.694519
104.536500	0.169117	0.103597	0.174337	0.276522	5751.998928	31950.569925	3709.173393	14203.262510
105.037000	0.168399	0.104590	0.177705	0.278991	5730.294388	31851.783906	3711.145626	14138.517295
105.540000	0.168179	0.104710	0.176594	0.277568	5738.467880	31955.128625	3711.831061	14175.801542
106.034500	0.169193	0.104140	0.178604	0.277744	5744.177422	31905.093561	3715.865676	14171.176253
106.535000	0.168516	0.104867	0.180115	0.278253	5736.101709	31919.719819	3718.077887	14157.836006
107.035000	0.167595	0.104241	0.173019	0.280116	5717.221356	31753.301864	3698.477377	14109.107975
107.535000	0.168500	0.103323	0.174181	0.277608	5740.376775	31859.494094	3706.457955	14174.737559
108.038500	0.168216	0.104644	0.178236	0.278299	5733.749027	31901.649560	3713.832971	14156.628718
108.536000	0.173630	0.106570	0.184324	0.280225	5757.547299	31901.718665	3723.036485	14106.287015
109.036000	0.169504	0.105428	0.180039	0.281741	5719.146260	31724.177612	3710.231334	14066.797197
109.536500	0.170349	0.104901	0.178925	0.279779	5738.186548	31819.817490	3712.091093	14117.904785
110.040000	0.168637	0.104277	0.178327	0.278696	5733.908912	31850.553209	3713.157675	14146.227439
110.537500	0.167607	0.104952	0.177897	0.279429	5721.952314	31846.657960	3710.604374	14127.047008
