sample name	sample
index	1434
start time	 05-10-2021  12:42:14 PM
880	0.429739
Peak Time (s)	92.035
Peak Height 	0.4297
calc peak height	90,93
Baseline Time (s)	10.536
Baseline Value 	-0.003153
subtract baseline	10,4
Abs	0.288831
Peak Time (s)	92.536
Peak Height 	0.2888
calc peak height	90,93
Baseline Time (s)	9.037
Baseline Value 	0.002062
subtract baseline	10,3
PK_550	0.151569
Peak Time (s)	91.035
Peak Height 	0.1516
calc peak height	90,93
Baseline Time (s)	10.536
Baseline Value 	2.9754E-4
subtract baseline	10,2
PK_880	0.264408
Peak Time (s)	91.535
Peak Height 	0.2644
calc peak height	90,93
Baseline Time (s)	11.536
Baseline Value 	0.001183
subtract baseline	10,1


Time (s)	A880-A510	A880-A775	A880-A975	A880	I510	I775	I975	I880	
0.034500	-0.000480	-0.000870	-0.001842	0.001638	6488.780185	43963.286894	3937.499950	22633.988702
0.535000	-0.002930	-0.000085	-0.001481	0.007465	6420.085194	43489.693629	3923.461880	22370.397699
1.035500	-0.001377	-0.000294	0.000131	0.004106	6460.692123	43784.901188	3936.219538	22521.896944
1.535500	-0.003169	0.000091	-0.001066	0.001459	6467.805309	44071.040915	3939.969179	22642.126117
2.038500	-0.000533	0.000336	-0.000805	0.001123	6492.649262	44126.106380	3941.514958	22657.448376
2.536500	-0.004428	-0.000623	0.003362	0.006347	6416.969249	43543.944690	3938.777125	22420.705834
3.036500	-0.000284	0.000170	-0.000519	-0.001551	6517.245432	44364.676337	3949.219876	22779.733884
3.536500	-0.000680	0.000896	0.002821	0.000523	6496.447883	44236.281000	3952.529464	22684.826140
4.037000	0.000621	0.000851	-0.001398	0.000797	6505.082109	44205.968606	3940.824566	22672.321923
4.537500	-0.002240	-0.000070	0.000674	0.002702	6465.195209	43938.330831	3941.257027	22585.591502
5.035000	0.000592	0.000136	-0.002260	-0.000302	6514.094210	44242.481820	3941.438167	22722.503449
5.535500	-0.002372	-0.001231	-0.000569	-0.001112	6495.977020	44189.587104	3947.942098	22759.617048
6.035500	0.000098	0.000404	0.000721	-0.000544	6511.976614	44291.020755	3949.827625	22733.607681
6.538500	-0.000559	-0.000765	0.001263	-0.001056	6510.749901	44228.507970	3952.583791	22757.043709
7.036000	0.001183	0.000091	-0.001037	-0.000345	6519.450778	44242.307905	3944.724242	22724.478334
7.536500	-0.001849	-0.000006	0.002060	-0.001082	6500.112063	44303.225463	3954.741364	22758.232979
8.036500	-0.001676	0.000647	0.004719	-0.000270	6494.747442	44288.065100	3959.596285	22721.051306
8.533500	-0.000834	-0.000596	0.000446	-0.001085	6508.677068	44247.310492	3950.520273	22758.342655
9.037000	0.000260	0.000421	0.000000	0.000139	6507.583066	44227.716473	3946.165809	22702.371836
9.537500	-0.001894	-0.000324	-0.001995	-0.000832	6497.638725	44249.152986	3943.501014	22746.779357
10.035000	0.000166	-0.000472	0.003242	0.000127	6506.892089	44144.004885	3954.668791	22702.894578
10.535500	-0.000974	0.000000	-0.000421	0.000000	6498.374615	44200.848116	3945.429662	22708.707657
11.038000	0.001465	0.000669	-0.001831	0.001426	6506.898018	44129.060424	3938.075389	22643.654691
11.536000	0.000000	0.000164	0.001659	-0.000471	6510.529193	44261.194655	3952.088585	22730.236819
12.036500	0.001230	0.000020	-0.002003	-0.000497	6521.129875	44249.951313	3942.610838	22731.419377
12.536500	-0.000082	0.000523	0.002206	-0.000153	6507.154546	44265.069616	3952.688072	22715.686665
13.037000	-0.002328	0.000303	0.003040	0.002270	6468.060702	44014.363817	3948.534441	22605.223982
13.537500	0.000255	0.001058	0.005994	0.001023	6500.102774	44204.183498	3959.550083	22662.014611
14.037000	-0.001306	0.000746	-0.001618	0.002735	6472.701193	44012.344204	3935.245066	22584.096161
14.535500	-0.001736	0.000333	-0.001430	0.001862	6476.392943	44055.813608	3937.982520	22623.771337
15.035000	-0.000306	0.000374	-0.001597	0.001328	6492.834593	44110.379375	3938.934752	22648.122751
15.535500	0.001216	0.000331	0.000903	0.000088	6516.070104	44223.950333	3948.651649	22704.673818
16.036000	-0.000742	0.000244	-0.003341	-0.000091	6501.091684	44232.737883	3938.092827	22712.883814
16.536000	-0.002252	0.000479	0.000077	0.000267	6485.412406	44220.944854	3946.031025	22696.486474
17.036500	-0.001496	0.001023	0.002454	0.000906	6486.399736	44212.008786	3950.566475	22667.347488
17.536500	0.000929	-0.000092	0.000014	0.001080	6505.293972	44089.676333	3943.754591	22659.410896
18.037000	-0.003544	-0.000519	-0.001509	0.000218	6475.023637	44130.834326	3942.037431	22698.735482
18.537500	-0.000617	-0.000210	0.000481	0.001161	6491.622357	44070.777992	3944.756397	22655.690461
19.034500	-0.000736	0.000354	-0.000743	0.001600	6486.951381	44082.644905	3940.439356	22635.696354
19.535500	-0.001027	0.000421	0.000062	0.001118	6488.554142	44134.718112	3943.781633	22657.687938
20.035000	-0.000638	0.000393	0.001335	0.001379	6489.620425	44107.245136	3946.412775	22645.774805
20.535500	-0.000480	0.000909	-0.000432	0.001898	6486.596875	44106.939403	3940.473697	22622.134440
21.036000	-0.000400	-0.000439	0.001286	0.000892	6495.702853	44074.643028	3947.554943	22667.990103
21.536000	0.001162	0.001314	0.001173	0.002024	6499.310065	44133.469690	3944.311765	22616.407782
22.036500	-0.001293	0.000337	0.002649	0.001559	6482.626659	44084.845225	3949.369085	22637.566947
22.537000	-0.000123	0.000473	0.001510	0.001183	6495.583482	44133.479431	3947.380034	22654.714165
23.037000	0.000313	-0.000355	0.001882	0.001243	6498.742016	44049.380261	3948.193798	22651.992021
23.534500	-0.001181	0.000368	0.005823	0.001254	6486.116674	44116.679310	3958.489508	22651.456043
24.035500	-0.001233	0.000743	-0.002078	0.001766	6481.405826	44103.791028	3936.556962	22628.153093
24.535000	-0.000498	0.001085	0.000079	0.002168	6484.187225	44098.065078	3941.099693	22609.863079
25.035500	0.000978	0.001035	0.000977	0.002085	6497.258577	44101.177710	3943.644060	22613.638797
25.536000	-0.002450	-0.000765	-0.000004	0.000419	6482.490489	44088.524354	3945.423878	22689.555415
26.036000	-0.003517	0.000220	0.002330	0.001033	6468.460366	44123.686001	3949.911319	22661.554291
26.536500	0.000505	0.000181	-0.001345	0.001478	6498.375850	44077.757785	3939.197417	22641.253900
27.036500	0.001473	0.001409	0.002655	-0.000558	6523.702672	44388.191900	3954.926499	22734.235043
27.537000	0.002009	0.000684	0.002420	0.000047	6523.119405	44261.397025	3952.723619	22706.547901
28.037500	0.000111	0.000845	0.003564	0.000393	6504.191423	44243.869934	3954.817105	22690.759992
28.540500	0.001107	0.000112	0.002727	-0.000321	6518.600410	44242.001128	3954.494261	22723.379516
29.035000	-0.000455	0.000492	0.001047	0.000343	6499.850396	44214.991430	3948.361563	22693.019471
29.535000	-0.000602	0.000132	0.005582	-0.000324	6504.217708	44244.148165	3962.016007	22723.504621
30.035500	0.003411	0.000993	-0.000043	0.000291	6532.928070	44267.596947	3945.656935	22695.419842
30.535500	-0.002227	-0.000789	-0.004824	0.001765	6473.112073	43958.931406	3929.494118	22628.206189
31.036000	0.000532	0.000415	0.000533	0.001474	6498.645423	44100.381617	3944.079758	22641.465394
31.536500	0.002139	-0.000299	0.005804	-0.000659	6530.197117	44235.112485	3963.488456	22738.864425
32.036500	0.000392	0.000794	-0.001499	0.000707	6503.909152	44209.074298	3940.794579	22676.401786
32.537500	-0.001348	0.000126	0.001208	0.001294	6484.395877	44090.109491	3946.303829	22649.668111
33.040500	-0.000849	0.000260	0.002415	0.000267	6497.181500	44200.150772	3952.135476	22696.490202
33.537500	0.001234	-0.000114	0.005397	-0.001580	6530.331360	44340.452958	3964.847448	22781.078313
34.035500	-0.000226	0.000492	0.003575	0.001730	6490.130617	44083.318243	3951.342523	22629.768933
34.535500	-0.001856	-0.000037	-0.000840	0.001901	6475.069735	44017.052978	3939.407339	22621.989692
35.035500	-0.001080	-0.000481	-0.002284	0.001178	6487.607080	44043.620381	3937.547201	22654.957729
35.536000	-0.001265	-0.000486	-0.003632	0.001366	6484.487381	44025.293992	3933.583060	22646.384510
36.036500	-0.001423	-0.000576	0.004736	0.000598	6489.590484	44089.420021	3957.357342	22681.390718
36.536500	-0.000684	0.000109	0.003054	0.001294	6489.950622	44088.438824	3951.119450	22649.642602
37.036500	0.000352	0.000462	-0.000287	0.001683	6495.373546	44084.986511	3941.406167	22631.918254
37.540000	0.000868	0.000308	-0.000946	0.001434	6501.795854	44093.953030	3940.344095	22643.252936
38.035000	-0.002540	0.000034	0.002295	0.001273	6474.601195	44083.291620	3949.192678	22650.607501
38.535000	0.000160	0.000499	0.002830	0.001650	6494.038233	44091.633525	3949.603657	22633.435493
39.035500	-0.001650	0.000030	0.004685	0.001152	6483.053252	44094.365918	3955.768511	22656.132618
39.536000	0.001652	0.000704	0.001202	0.002073	6503.018120	44070.952841	3944.260383	22614.183376
40.035500	-0.002992	-0.000102	-0.002067	0.001197	6471.465043	44077.553254	3938.055559	22654.060964
40.536000	-0.001950	0.000496	0.001251	0.001589	6476.895773	44097.110048	3945.646797	22636.216806
41.036000	-0.001004	0.000371	-0.000320	0.001620	6484.541286	44082.387676	3941.484679	22634.817034
41.537000	-0.000891	0.000051	-0.000950	0.001199	6489.012504	44091.925434	3940.943272	22653.987658
42.037000	-0.001833	0.000054	-0.003716	0.001322	6480.098280	44080.555015	3933.480121	22648.374854
42.537500	-0.000690	0.000238	-0.000917	0.001726	6486.278487	44059.665205	3939.662636	22629.952305
43.037500	-0.001520	0.000484	-0.001879	0.001848	6478.324171	44071.493701	3936.860648	22624.429350
43.534500	0.000471	-0.000039	-0.000221	-0.000918	6518.275006	44284.510008	3948.345485	22750.724943
44.035500	-0.000806	0.000534	0.001024	0.000006	6499.732359	44251.021114	3949.182608	22708.426767
44.535500	-0.001783	-0.000067	-0.002651	-0.000530	6496.030233	44244.777502	3941.015552	22732.925304
45.036000	-0.001997	0.000980	0.002298	0.003092	6463.966124	44000.663951	3944.458874	22567.867660
45.536500	-0.000679	-0.000408	0.003770	-0.000586	6505.780497	44217.817409	3957.930749	22735.527911
46.036500	-0.000127	-0.000073	0.002510	-0.000128	6506.570934	44206.078176	3953.419932	22714.548627
46.537000	0.000971	0.001072	0.006519	0.001500	6502.115181	44160.244260	3959.676604	22640.281782
47.037000	-0.001625	-0.000085	-0.004334	0.003205	6466.122803	43889.463493	3927.056597	22562.738165
47.535000	-0.002387	-0.000010	0.002055	0.002013	6469.710746	44009.089078	3946.635246	22616.908742
48.035000	0.002396	0.000507	0.000046	-0.000058	6527.287008	44254.565622	3946.798054	22711.377802
48.535000	-0.000127	0.000843	0.003459	0.001413	6493.615840	44146.668082	3951.869127	22644.215514
49.035500	-0.002335	-0.000104	0.002059	0.003929	6454.206028	43819.432272	3941.665820	22529.926997
49.535500	0.000837	0.000892	0.004985	-0.002535	6535.067160	44527.753950	3966.285797	22824.919413
50.036000	0.001329	0.001126	0.006395	0.001480	6505.291848	44167.149491	3959.400340	22641.154901
50.537000	-0.002825	-0.004837	0.007047	-0.000180	6484.365392	43760.777089	3965.510798	22716.937930
51.036500	0.018757	-0.030687	0.092860	0.425130	4284.734656	17385.147544	3341.638048	10316.612296
51.536500	0.022573	-0.013542	0.083181	0.374068	4477.929362	19841.642939	3394.261661	11247.146652
52.034500	-0.018926	-0.029832	-0.002140	0.014083	6238.964629	40232.655705	3905.046434	22075.322713
52.535000	-0.009251	-0.078908	-0.031229	-0.250475	9222.025069	64189.810368	4689.435796	38196.480384
53.035000	-0.002653	-0.071592	-0.019309	-0.240449	9171.923268	63808.781117	4697.625918	37390.005636
53.535500	0.000448	-0.050828	-0.007259	-0.209348	8777.229185	62377.190297	4616.838564	35003.562579
54.035000	0.005799	-0.034750	-0.001304	-0.174120	8383.202264	59813.261538	4499.411305	32499.075887
54.535500	0.006081	-0.023061	0.006664	-0.140936	7979.517523	57066.844677	4404.406686	30318.582915
55.039000	0.006787	-0.020248	0.002320	-0.138329	7957.110889	57092.508283	4379.173486	30154.223899
55.536500	0.018187	-0.016522	0.023809	-0.130811	8002.967368	56621.802814	4430.304131	29685.807310
56.037000	0.031514	-0.006502	0.040617	-0.072258	7493.389641	50945.832754	4282.292135	26302.067538
56.537000	0.046921	0.005937	0.060147	-0.001988	6942.396861	44960.756285	4120.527490	22799.793124
57.037500	0.069177	0.020176	0.080329	0.050397	6668.137659	41427.285710	4027.244833	20533.839585
57.535000	0.084794	0.026184	0.102270	0.120833	6215.406778	36120.987757	3899.191342	17887.523694
58.035000	0.102478	0.039843	0.116456	0.143521	6176.862305	35438.322214	3878.179699	17122.552785
58.538500	0.118624	0.051524	0.130353	0.168065	6113.158704	34489.857509	3852.439346	16338.770082
59.035500	0.134054	0.060255	0.145250	0.183229	6115.150408	34025.926002	3851.800268	15876.194066
59.539000	0.154536	0.073474	0.169835	0.208376	6080.273525	33183.799976	3850.458403	15143.825413
60.036000	0.171382	0.083616	0.185279	0.249814	5902.461745	31081.061981	3790.319138	14025.815771
60.536500	0.183240	0.091456	0.200305	0.300936	5638.634495	28411.749373	3712.555107	12785.683021
61.037000	0.191842	0.095973	0.220210	0.327363	5526.514464	27158.611568	3699.180318	12199.610116
61.537000	0.195506	0.100126	0.222444	0.350175	5411.087230	26140.093026	3658.274152	11721.602860
62.037500	0.205330	0.108958	0.227950	0.361540	5402.018357	26005.188279	3646.977599	11492.674662
62.535500	0.209848	0.113098	0.233804	0.360195	5436.694049	26298.304099	3660.879457	11519.450123
63.035500	0.210255	0.116378	0.227328	0.356569	5460.824742	26672.720888	3655.346693	11592.059013
63.535500	0.214396	0.120732	0.241650	0.356512	5486.179035	26915.033731	3683.627798	11593.217298
64.041500	0.220409	0.124633	0.245139	0.357377	5517.609777	27083.222037	3688.890529	11575.837133
64.536000	0.222292	0.126025	0.243026	0.357406	5529.025847	27159.130694	3684.593920	11575.262050
65.037500	0.225879	0.130230	0.243010	0.361891	5523.492150	27143.476767	3675.629110	11485.703116
65.537000	0.228565	0.130493	0.243953	0.364521	5523.830301	27011.912437	3672.292324	11433.602627
66.033500	0.228478	0.131840	0.247640	0.367262	5506.483043	26934.804961	3674.161687	11379.658284
66.534500	0.234053	0.132843	0.253095	0.370855	5518.629913	26792.086022	3677.853249	11309.449077
67.034500	0.231160	0.133643	0.253887	0.375361	5473.557843	26589.432973	3670.507238	11222.214565
67.535000	0.237027	0.136712	0.249299	0.377271	5497.562446	26652.591026	3657.806833	11185.510755
68.035500	0.238027	0.137604	0.256896	0.380850	5481.890579	26506.344901	3665.636551	11117.168499
68.535500	0.242575	0.138737	0.257437	0.381917	5503.067486	26509.931175	3664.609336	11096.908327
69.036000	0.243557	0.142457	0.261443	0.387817	5473.198397	26391.960125	3660.913041	10985.740883
69.536500	0.247941	0.142949	0.257372	0.388030	5498.507679	26406.978086	3652.610134	10981.746929
70.036500	0.246687	0.143756	0.263313	0.392588	5463.310679	26205.185254	3655.282296	10896.943352
70.537000	0.248607	0.145855	0.262220	0.393417	5469.882497	26273.362593	3651.573004	10881.621453
71.037000	0.250203	0.145431	0.263413	0.395780	5465.258409	26124.065855	3649.324214	10838.081459
71.537500	0.252615	0.147219	0.267294	0.397871	5467.194677	26107.926108	3652.769344	10799.755791
72.035000	0.252464	0.148557	0.268929	0.401783	5442.823711	25970.963882	3648.386787	10728.531902
72.535500	0.251911	0.148317	0.273552	0.401528	5441.042190	25971.767867	3657.798639	10733.153670
73.035500	0.255159	0.149263	0.264814	0.403829	5446.700298	25900.072772	3636.653710	10691.551320
73.536000	0.254641	0.150699	0.269036	0.405848	5431.582152	25869.232352	3640.830699	10655.221442
74.036000	0.252190	0.149062	0.274829	0.409162	5397.540173	25609.325493	3645.556086	10595.944588
74.536500	0.256306	0.149618	0.271835	0.407948	5428.999226	25701.913438	3642.159878	10617.610823
75.037000	0.256574	0.150856	0.274550	0.409936	5418.800531	25662.616342	3643.546068	10582.169225
75.537000	0.257251	0.151930	0.279611	0.410033	5422.230713	25713.790422	3653.066867	10580.437361
76.034500	0.256383	0.150979	0.273459	0.412304	5403.715340	25545.466324	3636.974746	10540.171223
76.535000	0.257331	0.152788	0.276222	0.412026	5410.929616	25654.388164	3642.748985	10545.091661
77.035000	0.258417	0.153147	0.276076	0.412159	5416.553435	25666.216367	3642.216821	10542.734634
77.535500	0.257267	0.152093	0.280151	0.410776	5417.937859	25683.463599	3652.675425	10567.253716
78.035000	0.255252	0.151334	0.276439	0.413587	5389.560807	25497.255809	3640.192671	10517.512209
78.539000	0.261171	0.154001	0.275922	0.412203	5432.619828	25708.620676	3641.840631	10541.964058
79.036500	0.260938	0.154431	0.277703	0.412581	5428.985886	25711.338805	3644.513775	10535.263357
79.536000	0.263299	0.155569	0.277645	0.412703	5442.319201	25764.667282	3644.170790	10533.115090
80.037000	0.262299	0.155154	0.281325	0.412602	5436.955271	25748.199995	3651.418304	10534.902059
80.537000	0.259701	0.154388	0.274938	0.412233	5423.715091	25727.370719	3639.913860	10541.430157
81.037500	0.259316	0.156444	0.281935	0.414756	5406.544567	25702.837578	3648.451098	10496.920184
81.537500	0.262696	0.155323	0.280129	0.412421	5440.402796	25766.607665	3649.467484	10538.104984
82.035500	0.259804	0.157023	0.279803	0.418194	5389.234266	25553.453021	3637.833283	10436.682493
82.535500	0.259041	0.155087	0.279120	0.412195	5420.035841	25766.047853	3647.964775	10542.106912
83.035500	0.259739	0.154656	0.275123	0.413767	5414.864407	25661.022654	3637.355515	10514.334069
83.536000	0.262874	0.156316	0.278559	0.414005	5432.027618	25735.499800	3643.430289	10510.139176
84.036500	0.259316	0.155012	0.283929	0.413420	5414.418298	25697.781377	3654.863365	10520.447176
84.537000	0.260343	0.155159	0.281946	0.414367	5414.891384	25655.919889	3649.218797	10503.762654
85.037000	0.261176	0.154839	0.282083	0.415105	5415.448711	25600.641507	3648.064993	10490.780246
85.534500	0.264067	0.156204	0.287349	0.416972	5421.505001	25574.494114	3654.609944	10458.039466
86.037500	0.265196	0.155593	0.283846	0.417204	5426.825551	25530.600891	3647.422833	10453.989291
86.535000	0.264769	0.154421	0.282357	0.417846	5420.487978	25436.442000	3643.348540	10442.761606
87.035500	0.261325	0.154504	0.280015	0.418314	5397.443085	25416.486125	3638.007521	10434.591981
87.536000	0.261666	0.152809	0.279338	0.417830	5402.288177	25353.934522	3637.642296	10443.045901
88.035500	0.258881	0.153302	0.281160	0.425019	5344.345897	25010.970297	3627.542306	10318.522506
88.536500	0.263795	0.152373	0.278989	0.419652	5404.092524	25237.684840	3633.541718	10411.292607
89.036500	0.264105	0.153437	0.281283	0.420266	5402.306755	25260.843216	3636.714113	10400.627883
89.536500	0.264579	0.152383	0.281154	0.421292	5399.059433	25154.129425	3634.532112	10382.821294
90.037000	0.259184	0.150493	0.276217	0.425333	5344.278504	24852.829885	3617.769361	10313.127787
90.539500	0.259600	0.150582	0.282887	0.421189	5370.604760	25067.461706	3638.002184	10384.608324
91.035000	0.263729	0.151569	0.279166	0.422442	5387.350717	25053.935480	3628.634055	10362.922956
91.535000	0.264408	0.151152	0.288667	0.423601	5384.545552	24973.792112	3644.407015	10342.918409
92.035500	0.261195	0.150798	0.275561	0.429739	5330.570475	24646.878515	3608.469002	10237.887565
92.536000	0.262736	0.151062	0.288831	0.425296	5364.977730	24883.418862	3641.490366	10313.764834
93.036000	0.265472	0.149693	0.284318	0.424985	5382.683941	24830.050540	3633.533301	10319.107877
93.536000	0.264303	0.150313	0.286837	0.426293	5368.282859	24795.393864	3635.818911	10296.674075
94.036500	0.261662	0.150581	0.288099	0.433184	5313.618484	24464.640334	3625.252789	10179.584059
94.536500	0.262473	0.149024	0.291548	0.427487	5350.810697	24670.800757	3642.491656	10276.253452
95.037500	0.265673	0.148971	0.286209	0.429634	5356.882057	24561.017766	3628.354865	10239.675917
95.537500	0.264514	0.147271	0.283778	0.428088	5359.116455	24553.360497	3626.699692	10265.998152
96.035000	0.263672	0.148450	0.286905	0.435571	5311.477567	24241.865937	3618.600321	10139.447417
