sample name	sample
index	285
start time	 02-25-2021  12:18:13 PM
880	0.397174
Peak Time (s)	92.537
Peak Height 	0.3972
calc peak height	90,93
Baseline Time (s)	11.037
Baseline Value 	-0.003608
subtract baseline	10,4
Abs	0.293690
Peak Time (s)	92.036
Peak Height 	0.2937
calc peak height	90,93
Baseline Time (s)	10.036
Baseline Value 	0.003586
subtract baseline	10,3
PK_550	0.135014
Peak Time (s)	90.535
Peak Height 	0.135
calc peak height	90,93
Baseline Time (s)	11.037
Baseline Value 	4.7252E-4
subtract baseline	10,2
PK_880	0.285818
Peak Time (s)	91.535
Peak Height 	0.2858
calc peak height	90,93
Baseline Time (s)	10.036
Baseline Value 	7.6767E-4
subtract baseline	10,1


Time (s)	A880-A510	A880-A775	A880-A975	A880	I510	I775	I975	I880	
0.035500	0.000020	-0.000106	0.001718	0.001025	6856.399771	45718.995948	4007.363549	24155.277594
0.536000	-0.001151	0.000049	-0.002658	0.003818	6820.779043	45459.885273	3989.317235	24019.096722
1.039000	-0.002631	-0.000720	-0.008369	0.002841	6816.281738	45480.311147	3977.564844	24066.634917
1.536500	0.001322	-0.000569	-0.001525	-0.000249	6879.726637	45798.859620	4002.378802	24217.665386
2.039000	0.000465	-0.000354	-0.000415	-0.000246	6871.922127	45819.729784	4005.176212	24217.493745
2.537000	-0.000858	-0.000425	-0.005944	0.001621	6843.114628	45628.902174	3986.603295	24126.139242
3.037000	0.002333	-0.000577	-0.000594	-0.002464	6909.129360	46017.233412	4010.355026	24326.587130
3.534500	0.003429	-0.000182	-0.000373	0.000249	6894.354948	45787.900331	4004.029018	24193.221449
4.035000	0.000149	0.000039	-0.005270	0.000939	6858.338459	45741.642962	3989.983511	24159.461054
4.535500	-0.002709	-0.000196	-0.002710	0.000802	6833.841008	45732.037381	3996.741981	24166.154720
5.036000	-0.000196	-0.000273	-0.001698	0.000225	6861.669775	45781.243301	4000.743546	24194.397057
5.536000	-0.000404	0.000113	0.002403	0.000529	6857.053395	45789.387415	4010.365320	24179.536234
6.036500	0.000505	0.000027	0.002393	0.000486	6865.652491	45785.110187	4010.446913	24181.625363
6.539500	-0.000838	-0.001335	0.000600	-0.000796	6865.099512	45777.218614	4009.147119	24244.478988
7.036500	0.001655	-0.000028	0.001922	0.000118	6879.411115	45816.020370	4010.186435	24199.668237
7.537000	0.001550	-0.000081	-0.003575	0.000057	6879.015254	45816.750637	3996.440930	24202.637375
8.037500	0.002070	-0.000706	-0.000393	-0.000847	6891.970645	45844.441692	4006.757831	24247.026513
8.534000	0.001212	0.000366	0.002077	0.000221	6874.458313	45844.739863	4010.317466	24194.617670
9.035000	-0.000487	0.000066	0.004869	0.000099	6860.184507	45827.224418	4017.759719	24200.601159
9.535500	-0.002186	-0.001198	-0.001585	-0.001106	6855.723665	45821.362638	4004.390404	24259.709594
10.035500	0.000000	-0.000636	0.000000	-0.000567	6870.611667	45823.611409	4007.041978	24233.234065
10.536000	0.001351	-0.000077	-0.002959	0.000193	6875.972286	45803.822473	3997.647098	24195.985074
11.036500	-0.000353	0.000000	-0.005789	0.000000	6862.286837	45830.450411	3991.032966	24205.445610
11.536500	0.001046	0.000210	0.001005	-0.000610	6880.486588	45911.461009	4009.703933	24235.346480
12.037000	0.000708	-0.000899	0.000817	-0.000937	6880.388908	45834.151054	4010.058932	24251.420816
12.537000	0.000772	0.000709	-0.002238	0.000143	6871.179074	45886.381422	3999.590637	24198.450906
13.037500	0.001510	0.000294	0.001569	-0.001758	6895.164703	46033.592996	4014.068381	24291.800328
13.535000	-0.001420	-0.000653	-0.000426	0.001908	6835.489570	45578.314292	3999.707156	24112.117458
14.035000	-0.000248	-0.000501	-0.001375	-0.000305	6865.998350	45811.135520	4002.896988	24220.414185
14.539000	-0.001591	-0.000088	-0.001948	0.001278	6839.612903	45695.840777	3997.462877	24142.909282
15.036000	0.000814	-0.000994	-0.001331	-0.001862	6889.762927	45916.243850	4006.951004	24296.904740
15.569000	-0.002310	-0.000373	-0.001717	0.004280	6806.317091	45373.451602	3990.513799	23996.694990
16.036500	0.001285	0.000038	-0.001602	-0.001161	6887.670973	45948.934105	4004.487403	24262.408757
16.537000	0.001155	0.000053	-0.000445	-0.001442	6889.044577	45978.355374	4008.133813	24276.239677
17.034000	0.001005	0.000113	-0.001101	-0.001378	6887.097637	45977.902972	4006.308018	24273.095439
17.537000	0.003940	0.000231	0.000185	-0.003636	6934.623182	46213.991228	4015.329410	24384.412596
18.035000	0.000667	-0.000397	-0.000410	-0.000683	6877.722235	45858.719938	4006.299221	24238.969750
18.535000	0.000707	-0.000122	0.001609	0.000269	6869.448691	45791.801495	4009.005794	24192.253754
19.035500	-0.000365	-0.000322	-0.003579	0.000019	6862.012027	45796.746696	3996.525828	24204.511879
19.535500	0.000064	-0.000152	-0.001432	0.001102	6856.103567	45706.869976	3999.204600	24151.513663
20.036000	0.002084	-0.000780	-0.000299	-0.000323	6887.324175	45785.377816	4005.667958	24221.293894
20.539000	-0.000537	0.000319	0.000707	0.000868	6852.791620	45776.271549	4005.199657	24162.961297
21.036500	0.001802	0.000482	-0.004647	0.001151	6871.376263	45764.372703	3991.010416	24149.078877
21.536000	0.001659	-0.000096	0.000591	0.001165	6869.951323	45706.173676	4004.151631	24148.423660
22.037000	0.000453	-0.000134	0.000078	0.000414	6865.832980	45776.321025	4004.754044	24185.146754
22.534500	0.001828	-0.000300	-0.003113	0.000165	6880.562134	45784.622226	3997.332069	24197.376543
23.035000	0.002611	-0.000004	-0.004112	0.000533	6884.326811	45777.477747	3993.897991	24179.323984
23.535500	0.000929	-0.000261	-0.000686	0.001904	6856.668256	45617.193905	3999.060281	24112.302541
24.035500	0.000519	-0.000714	0.000920	-0.000252	6872.460037	45784.862462	4008.579048	24217.792781
24.536000	-0.000578	-0.000491	0.001164	-0.000016	6860.398545	45783.554896	4008.598051	24206.212909
25.039000	0.001030	-0.000999	-0.001204	-0.000439	6878.795041	45775.200649	4003.669577	24226.987795
25.536500	-0.000332	-0.000268	-0.000980	0.001764	6846.566451	45630.263481	3998.675897	24119.164778
26.037000	-0.000661	-0.000494	-0.000108	-0.000231	6861.597095	45804.440587	4005.917695	24216.763840
26.537000	0.001315	-0.000522	-0.003742	0.000297	6874.703873	45749.646431	3995.418897	24190.908248
27.037500	-0.000108	-0.000022	0.004504	0.000619	6858.905915	45767.182678	4015.493199	24175.123408
27.534500	0.003043	-0.000763	0.000923	-0.002277	6913.903551	45980.205265	4013.742455	24317.336254
28.035500	0.002524	-0.000153	-0.003630	-0.001679	6903.696011	45981.440668	4000.674347	24287.927025
28.535500	0.000879	0.000136	0.000052	-0.001069	6883.145801	45949.565165	4008.449290	24257.913690
29.035500	0.002404	0.000395	0.002859	-0.001256	6898.738318	45993.831852	4016.082082	24267.109155
29.536000	0.001532	-0.000147	-0.000588	-0.001249	6890.724464	45939.383768	4007.281732	24266.772915
30.036500	-0.000244	-0.000113	0.005125	-0.001508	6876.937332	45968.453234	4022.541687	24279.498615
30.536500	-0.002389	-0.000418	-0.003453	0.004428	6804.288874	45354.653732	3985.816505	23989.496575
31.064000	0.003590	0.000242	0.001264	-0.001198	6909.045860	45972.876874	4011.860835	24264.254475
31.537000	-0.001505	-0.000922	0.000399	0.002837	6826.400885	45460.945517	3999.446386	24066.858142
32.037500	0.002534	0.000137	0.004215	-0.000919	6896.847012	45934.841878	4018.693239	24250.553739
32.554000	-0.002965	-0.000679	-0.003249	0.003461	6807.767723	45423.614017	3988.733602	24036.463987
33.035000	0.001013	0.000171	0.000614	-0.001425	6887.600269	45988.301533	4010.783891	24275.385330
33.535500	0.000177	0.000075	0.002845	0.003253	6837.756578	45517.864132	4004.571991	24046.599414
34.036000	0.002296	-0.000048	-0.006876	-0.001699	6901.797294	45993.792338	3992.565215	24288.904917
34.536000	-0.000867	-0.000540	-0.001606	0.003288	6828.074103	45454.190048	3993.276488	24044.908702
35.036500	0.001383	0.000626	0.001545	0.000994	6869.007671	45794.126383	4007.003368	24156.790739
35.537000	-0.000578	0.000591	0.005463	0.001129	6850.071585	45777.417138	4016.641977	24150.185967
36.037000	-0.000717	0.000107	-0.002820	0.000324	6856.080740	45809.088350	3997.667618	24189.576848
36.534500	-0.000339	-0.000258	-0.000425	0.001735	6846.766308	45634.134029	4000.146314	24120.587890
37.035000	-0.000302	-0.000116	-0.002114	0.000413	6859.018962	45778.237420	3999.218957	24185.192657
37.535000	-0.000619	-0.000732	-0.003702	-0.000296	6862.562240	45787.428007	3997.007504	24219.939635
38.035500	0.000799	0.000253	0.000585	0.000563	6867.614896	45799.823037	4005.661503	24177.858039
38.535500	-0.000469	0.000229	-0.003605	0.001706	6845.859614	45684.887549	3992.229822	24122.004480
39.038500	0.001157	0.000277	-0.001707	0.000725	6869.400024	45786.251345	3999.462239	24169.953900
39.536000	-0.001528	-0.000264	-0.002456	0.001602	6837.265310	45646.614752	3995.371111	24127.082146
40.036500	0.000146	-0.001170	-0.004048	-0.000206	6868.668235	45735.317629	3995.912295	24215.532760
40.537000	-0.000205	-0.000047	0.000827	0.000713	6857.188428	45755.451026	4005.894113	24170.521704
41.037000	0.001895	0.000173	-0.003823	0.000361	6879.380333	45811.872763	3995.052330	24187.734438
41.535000	0.001299	-0.000026	-0.007016	0.001927	6859.804359	45638.088934	3983.177325	24111.198430
42.035000	0.001013	-0.000305	-0.003790	0.000198	6872.863704	45780.795568	3995.545349	24195.730351
42.535500	-0.001467	-0.000461	0.003581	-0.000115	6853.269992	45796.351918	4015.011523	24211.105645
43.035500	-0.000199	-0.000138	0.002497	0.000495	6859.211210	45767.993877	4010.690575	24181.209440
43.538500	-0.001716	0.000285	0.002662	0.002143	6830.726645	45647.423992	4006.921241	24100.665371
44.036000	0.000093	-0.000198	-0.004373	0.000354	6863.117838	45775.930476	3993.692735	24188.095499
44.536500	0.002430	0.000169	0.003626	-0.003595	6920.370771	46203.669188	4024.055672	24382.379955
45.036500	0.002642	0.000664	-0.002550	-0.001045	6898.981457	45999.446932	4001.797356	24256.708059
45.537000	-0.001820	-0.000444	0.004396	0.002048	6830.640427	45585.151390	4011.570525	24105.303140
46.036500	0.000219	-0.000648	0.003721	-0.001964	6885.282370	45960.620969	4020.107539	24301.953414
46.534500	0.001127	-0.000562	-0.000737	-0.001625	6890.453854	45935.552570	4007.857997	24285.232102
47.035000	0.002829	0.000499	0.002802	-0.001489	6904.744804	46027.153057	4016.532808	24278.555345
47.535000	-0.000914	-0.000816	-0.001070	0.002101	6838.296464	45543.326413	3997.597816	24102.692652
48.046500	0.002296	0.000935	0.003519	-0.000547	6891.290488	45977.023052	4015.957592	24232.286135
48.536000	-0.001770	-0.000419	-0.004739	0.002076	6830.836579	45584.736579	3988.471987	24103.913450
49.036500	0.000177	0.000095	0.001195	-0.000092	6867.913373	45848.904206	4008.871389	24209.939119
49.544500	-0.003507	-0.000673	-0.003312	0.001866	6817.170300	45580.519813	3992.562650	24114.184629
50.037000	0.000992	-0.000122	0.003869	-0.001225	6885.593990	45939.501524	4018.589181	24265.570683
50.537000	-0.002772	-0.000157	-0.005387	0.003104	6812.672105	45509.640916	3984.298302	24053.818100
51.037000	0.002293	0.000212	-0.002090	-0.002919	6912.917259	46140.690067	4007.708633	24348.999723
51.535000	-0.000628	-0.000711	0.001127	0.003771	6825.891682	45390.189759	3998.926616	24021.416423
52.035500	-0.003405	-0.004698	-0.001554	0.000393	6831.274930	45330.719606	4000.684348	24186.197258
52.535500	-0.026677	-0.017177	-0.006360	0.194275	5298.685027	29301.051471	3598.477425	16527.543346
53.035500	-0.018179	-0.022838	-0.016165	-0.097618	7654.112272	53887.953230	4232.621682	29570.821194
53.536000	-0.031244	-0.147832	-0.012420	-0.312038	10436.913438	65535.000000	5098.915623	46586.310469
54.036000	-0.025320	-0.155828	0.004112	-0.320034	10681.206859	65535.000000	5226.382624	47397.788792
54.536500	-0.034757	-0.129784	-0.000118	-0.293990	10073.633496	65535.000000	5070.081233	44808.787540
55.037000	-0.023382	-0.104734	0.007552	-0.268932	9852.264361	65533.938402	4985.115168	42460.145209
55.537000	-0.009825	-0.070450	-0.002176	-0.229601	9453.767112	64810.684073	4762.941673	39036.401934
56.037000	-0.006418	-0.085211	0.003370	-0.249346	9810.619509	65524.712438	4874.339844	40716.377564
56.535000	-0.001599	-0.070649	0.007475	-0.230514	9592.366269	64912.537441	4808.685924	39112.388186
57.035000	0.011041	-0.049115	0.014264	-0.199270	9313.248437	63542.570330	4704.461110	36599.938820
57.535500	0.016613	-0.026015	0.019241	-0.153446	8748.783652	60453.541724	4542.944774	33227.060623
58.036000	0.028580	-0.012344	0.034654	-0.104313	8272.038386	55944.543902	4420.591520	29984.874235
58.536000	0.037481	-0.003942	0.044242	-0.048644	7727.308967	50479.499069	4268.031818	26728.504655
59.035500	0.050528	0.004468	0.055465	-0.004728	7398.590731	46748.132816	4169.202282	24438.470458
59.536500	0.067408	0.015051	0.074408	0.045377	7069.944039	42938.213532	4081.681090	22093.431401
60.037000	0.083357	0.025024	0.088770	0.092853	6780.508882	39629.939638	3995.308385	20107.718491
60.537500	0.104286	0.036428	0.114075	0.141207	6545.260024	36638.124785	3938.960297	18296.478011
61.035000	0.129607	0.049988	0.141039	0.188837	6364.550588	34096.174572	3890.919850	16699.039414
61.538000	0.154471	0.066166	0.162027	0.233654	6210.601163	32108.430696	3838.287683	15347.754021
62.038000	0.174910	0.079920	0.185968	0.260006	6166.324421	31274.673638	3833.121262	14615.948689
62.536000	0.187393	0.087435	0.200534	0.291292	6029.466715	29765.943171	3798.074767	13802.861317
63.036000	0.211214	0.104150	0.213265	0.318419	6006.010497	29130.667843	3768.960447	13143.732132
63.568000	0.218000	0.111041	0.223267	0.304837	6153.406384	30394.483117	3817.167833	13468.607814
64.036500	0.224876	0.113857	0.234112	0.305848	6197.147489	30508.766617	3838.053868	13444.067438
64.537000	0.232534	0.119180	0.233873	0.312332	6205.970850	30435.180468	3823.722028	13288.062083
65.037000	0.238822	0.122337	0.240499	0.319772	6197.310932	30165.432552	3822.003215	13111.921028
65.540000	0.242309	0.125901	0.246899	0.327286	6167.211402	29919.005812	3819.653071	12937.055388
66.035000	0.246834	0.128458	0.250131	0.333730	6152.971441	29678.750321	3812.915705	12789.495498
66.538000	0.247539	0.130749	0.250809	0.339665	6114.461061	29455.344571	3801.992707	12655.491839
67.035000	0.251870	0.133945	0.257233	0.343080	6121.168209	29441.965508	3808.227586	12579.222675
67.536000	0.254739	0.134800	0.259269	0.345965	6121.057435	29318.479025	3806.464672	12515.262418
68.036000	0.257196	0.135923	0.258086	0.349239	6115.070267	29188.167310	3797.262364	12443.177354
68.536000	0.258799	0.137142	0.261206	0.351482	6110.392621	29126.382796	3799.066969	12394.110404
69.036500	0.260159	0.137741	0.263954	0.353655	6104.453725	29031.657263	3800.249263	12346.807563
69.537000	0.264128	0.140635	0.266095	0.356760	6110.763333	29019.040930	3798.265530	12279.640920
70.037000	0.263901	0.139769	0.263014	0.357172	6106.091862	28942.366576	3791.111264	12270.752878
70.534500	0.265793	0.139853	0.270456	0.361480	6088.508679	28690.849852	3797.527955	12178.441807
71.035000	0.269550	0.140738	0.268925	0.361385	6116.593925	28748.957343	3794.581784	12180.468278
71.535500	0.264689	0.141744	0.273180	0.370220	6017.863931	28288.027598	3785.251438	11993.924439
72.035500	0.268307	0.140947	0.273673	0.365074	6080.680898	28543.054167	3796.752887	12102.112787
72.535500	0.270889	0.142470	0.272938	0.369242	6069.221842	28387.660119	3786.745077	12014.393163
73.036000	0.272987	0.142075	0.277641	0.369705	6081.036638	28337.427574	3795.393740	12004.702719
73.536500	0.268582	0.142391	0.273818	0.376090	6003.868443	27985.109430	3774.712222	11872.082105
74.036500	0.276021	0.143544	0.276732	0.373091	6078.485631	28225.642475	3786.632379	11934.125805
74.537000	0.276150	0.144310	0.279355	0.375758	6060.181380	28115.214692	3786.542368	11878.923461
75.037500	0.277269	0.144442	0.276143	0.376355	6063.933804	28088.284702	3778.845868	11866.605022
75.534500	0.272265	0.142382	0.279620	0.380470	5998.945039	27733.338096	3777.562667	11782.214305
76.038000	0.277037	0.143120	0.280376	0.376193	6063.435767	28021.216605	3787.733974	11869.954200
76.535500	0.276544	0.142822	0.281256	0.379215	6038.229156	27830.292003	3783.391456	11807.877803
77.035000	0.278265	0.142132	0.282076	0.377469	6063.085856	27890.851185	3788.593560	11843.678744
77.536000	0.275280	0.143129	0.281961	0.384589	5991.170570	27541.656421	3773.999813	11698.538120
78.036000	0.278435	0.142696	0.284270	0.380684	6041.237636	27739.040316	3786.520662	11777.847016
78.536500	0.280591	0.142473	0.278610	0.380378	6058.892808	27743.795197	3775.721775	11784.096149
79.036500	0.280146	0.142136	0.286093	0.381794	6045.541458	27643.940732	3787.970491	11755.242871
79.537000	0.276251	0.141826	0.282252	0.387526	5977.372815	27302.730010	3768.722725	11639.357943
80.037500	0.281733	0.142979	0.286334	0.384492	6037.592725	27538.677201	3782.987466	11700.499196
80.538000	0.279670	0.141517	0.281680	0.384309	6024.202788	27466.353702	3773.997713	11704.206633
81.035000	0.284237	0.143472	0.280404	0.386048	6044.370923	27478.551726	3767.987405	11669.089213
81.535500	0.281444	0.140062	0.282672	0.384103	6038.308604	27395.913822	3776.396469	11708.365430
82.035500	0.281642	0.140747	0.279578	0.385613	6028.955831	27349.581122	3767.210530	11677.866410
82.536500	0.280384	0.140921	0.285504	0.386023	6017.100125	27336.328238	3778.230974	11669.603172
83.036000	0.282270	0.139796	0.284457	0.386340	6028.249587	27255.421901	3775.490818	11663.207519
83.537500	0.284756	0.140638	0.289841	0.388304	6031.965201	27192.759463	3782.373709	11623.753497
84.034500	0.281987	0.139672	0.288794	0.387867	6015.394051	27163.260155	3781.141238	11632.519200
84.537500	0.281871	0.138822	0.287257	0.389114	6005.738306	27046.600808	3775.542579	11607.523675
85.040000	0.284864	0.140709	0.289779	0.390682	6015.832897	27064.302528	3777.459144	11576.213141
85.535000	0.281548	0.138918	0.284522	0.389624	5999.858502	27023.600856	3769.064883	11597.325679
86.035500	0.283387	0.138748	0.287448	0.390664	6005.501886	26956.675345	3772.825421	11576.573866
86.536000	0.278944	0.136996	0.282605	0.390250	5977.157740	26882.815122	3764.021232	11584.829253
87.036000	0.283075	0.137533	0.291917	0.391561	5996.972555	26840.209140	3779.991565	11558.709705
87.536500	0.283227	0.138089	0.287854	0.392955	5988.227950	26794.147548	3769.066381	11531.013146
88.037000	0.284824	0.137064	0.290529	0.393245	5997.425433	26722.030062	3773.823475	11525.256495
88.536000	0.282310	0.136148	0.286258	0.393556	5977.576921	26654.929098	3764.706667	11519.092254
89.037000	0.281085	0.134934	0.283220	0.392628	5975.497072	26639.340082	3760.540934	11537.494860
89.537500	0.279247	0.135136	0.286037	0.399390	5915.906082	26284.212439	3752.805961	11404.324551
90.035000	0.283844	0.134166	0.291105	0.393382	5989.562374	26556.442258	3774.700947	11522.537116
90.535500	0.284365	0.135014	0.292671	0.396137	5973.899648	26453.036858	3772.324586	11468.131789
91.036000	0.283295	0.134248	0.293132	0.396289	5965.364535	26403.405013	3772.941648	11465.139189
91.535500	0.285818	0.134744	0.287899	0.397144	5977.022459	26384.038578	3760.863555	11448.330616
92.036000	0.285026	0.133384	0.293690	0.396976	5972.655296	26319.793676	3772.683338	11451.625498
92.536500	0.284003	0.132621	0.290921	0.397174	5964.129867	26268.140296	3766.778292	11447.745727
93.036500	0.285017	0.133699	0.290347	0.398722	5960.403927	26242.856106	3762.577409	11417.376745
93.537000	0.284365	0.130595	0.297233	0.397578	5963.833565	26137.999621	3778.579295	11439.809135
94.037000	0.284132	0.131741	0.293569	0.398859	5953.299782	26130.808157	3768.691551	11414.711632
94.537000	0.286539	0.131333	0.292185	0.399850	5963.156570	26056.245042	3763.982466	11395.342986
95.098000	0.287208	0.130027	0.289590	0.399871	5967.670922	25985.757592	3758.824085	11394.929348
95.535500	0.283679	0.128896	0.287234	0.405215	5906.371189	25644.845884	3743.822663	11291.257818
96.057000	0.281255	0.128144	0.288991	0.400466	5922.308874	25854.677139	3756.479414	11383.327701
96.535500	0.286576	0.128587	0.293822	0.402597	5944.324341	25765.813732	3761.788209	11341.880509
97.036000	0.286245	0.129573	0.296045	0.403308	5937.115648	25780.272192	3764.776761	11328.107911
97.536500	0.281950	0.127562	0.293386	0.403488	5906.347226	25665.330497	3759.175400	11324.611640
98.037000	0.285233	0.127707	0.294669	0.404274	5923.472739	25631.827028	3760.152351	11309.406604
98.537000	0.287784	0.129587	0.293692	0.407501	5918.832050	25561.578092	3751.915338	11247.284542
