sample name	sample
index	841
start time	 04-05-2021  11:01:53 AM


Wavelength (nm)	Absorbance
494.344910	-0.025897
494.563924	-0.025897
494.782919	-0.025897
495.001897	-0.040436
495.220856	-0.023633
495.439797	-0.025096
495.658719	-0.020955
495.877624	-0.020478
496.096510	-0.032467
496.315378	-0.030114
496.534227	-0.025835
496.753059	-0.030119
496.971872	-0.018531
497.190667	0.048370
497.409444	0.073714
497.628203	0.077890
497.846943	0.083245
498.065665	0.088256
498.284369	0.089147
498.503055	0.088107
498.721723	0.087940
498.940372	0.088019
499.159003	0.088026
499.377616	0.087192
499.596210	0.087357
499.814787	0.087676
500.033345	0.087312
500.251885	0.087488
500.470406	0.088807
500.688910	0.089516
500.907395	0.088850
501.125862	0.089826
501.344311	0.089117
501.562742	0.089514
501.781154	0.089126
501.999548	0.088787
502.217924	0.088839
502.436282	0.088316
502.654621	0.089705
502.872942	0.090821
503.091245	0.089746
503.309530	0.090686
503.527797	0.090023
503.746045	0.090070
503.964275	0.090638
504.182487	0.091333
504.400681	0.092023
504.618856	0.090788
504.837013	0.090640
505.055152	0.091093
505.273273	0.092108
505.491376	0.093458
505.709460	0.093003
505.927526	0.092498
506.145574	0.092069
506.363604	0.091668
506.581615	0.091981
506.799608	0.092669
507.017583	0.092683
507.235540	0.092435
507.453478	0.092191
507.671399	0.093082
507.889301	0.092923
508.107185	0.093439
508.325050	0.093998
508.542898	0.094812
508.760727	0.094520
508.978538	0.095272
509.196330	0.095500
509.414105	0.095581
509.631861	0.095701
509.849599	0.096208
510.067319	0.096251
510.285021	0.096765
510.502704	0.096940
510.720369	0.097200
510.938016	0.095963
511.155645	0.096049
511.373255	0.096348
511.590848	0.095762
511.808422	0.096949
512.025977	0.097424
512.243515	0.096386
512.461034	0.096335
512.678536	0.095962
512.896018	0.096915
513.113483	0.096629
513.330930	0.096150
513.548358	0.096478
513.765768	0.096068
513.983160	0.095785
514.200533	0.095860
514.417889	0.095598
514.635226	0.096076
514.852545	0.096463
515.069845	0.096904
515.287128	0.098191
515.504392	0.097880
515.721638	0.097504
515.938866	0.097277
516.156075	0.098796
516.373267	0.099248
516.590440	0.099718
516.807594	0.099782
517.024731	0.099776
517.241850	0.099933
517.458950	0.100829
517.676032	0.101624
517.893095	0.102763
518.110141	0.101956
518.327168	0.101926
518.544177	0.101714
518.761168	0.102207
518.978141	0.102385
519.195095	0.102037
519.412031	0.101928
519.628949	0.102227
519.845849	0.101625
520.062731	0.102400
520.279594	0.101984
520.496439	0.102477
520.713266	0.102975
520.930074	0.102864
521.146865	0.102994
521.363637	0.104225
521.580391	0.104085
521.797127	0.104854
522.013844	0.105631
522.230543	0.107051
522.447224	0.107337
522.663887	0.106757
522.880532	0.107505
523.097158	0.107649
523.313766	0.107630
523.530356	0.107652
523.746928	0.107777
523.963481	0.107755
524.180017	0.108015
524.396534	0.108183
524.613032	0.108618
524.829513	0.108789
525.045975	0.109498
525.262420	0.109498
525.478845	0.109855
525.695253	0.110774
525.911643	0.110455
526.128014	0.109853
526.344367	0.110392
526.560702	0.111196
526.777018	0.111687
526.993316	0.112223
527.209597	0.112211
527.425858	0.112464
527.642102	0.112205
527.858328	0.112238
528.074535	0.113115
528.290724	0.113333
528.506894	0.113409
528.723047	0.113821
528.939181	0.113959
529.155297	0.114315
529.371395	0.114884
529.587475	0.114727
529.803536	0.115359
530.019579	0.115176
530.235604	0.115132
530.451611	0.115213
530.667600	0.115319
530.883570	0.115201
531.099522	0.115859
531.315456	0.115939
531.531372	0.116491
531.747269	0.117358
531.963148	0.118085
532.179009	0.118372
532.394852	0.119066
532.610676	0.119116
532.826482	0.120129
533.042271	0.120215
533.258040	0.121037
533.473792	0.121356
533.689525	0.121472
533.905240	0.121182
534.120937	0.122047
534.336616	0.122001
534.552277	0.122207
534.767919	0.121961
534.983543	0.122296
535.199149	0.122059
535.414736	0.122764
535.630306	0.122604
535.845857	0.123908
536.061390	0.123914
536.276904	0.124169
536.492401	0.124544
536.707879	0.124956
536.923339	0.124862
537.138781	0.125780
537.354204	0.125714
537.569610	0.125796
537.784997	0.125690
538.000366	0.125963
538.215716	0.126438
538.431049	0.126618
538.646363	0.126636
538.861659	0.127342
539.076937	0.126551
539.292196	0.126571
539.507438	0.127823
539.722661	0.127682
539.937866	0.127871
540.153052	0.128204
540.368221	0.128998
540.583371	0.128831
540.798503	0.129003
541.013617	0.129746
541.228712	0.129767
541.443789	0.129571
541.658848	0.129943
541.873889	0.130142
542.088912	0.130120
542.303916	0.130192
542.518902	0.130915
542.733870	0.131438
542.948820	0.131859
543.163752	0.132691
543.378665	0.132773
543.593560	0.133121
543.808437	0.133203
544.023295	0.133853
544.238136	0.134031
544.452958	0.134698
544.667762	0.134417
544.882548	0.134430
545.097315	0.134325
545.312064	0.134637
545.526795	0.135032
545.741508	0.135299
545.956203	0.135175
546.170879	0.134566
546.385537	0.134445
546.600177	0.134826
546.814799	0.134876
547.029402	0.135487
547.243988	0.135551
547.458555	0.135330
547.673103	0.135240
547.887634	0.135553
548.102146	0.136506
548.316640	0.136831
548.531116	0.137384
548.745574	0.137917
548.960013	0.137969
549.174435	0.138132
549.388838	0.139048
549.603222	0.140074
549.817589	0.140663
550.031937	0.140816
550.246267	0.140924
550.460579	0.140826
550.674873	0.140819
550.889148	0.140922
551.103405	0.141416
551.317644	0.141220
551.531865	0.140952
551.746068	0.140177
551.960252	0.140687
552.174418	0.141047
552.388566	0.141347
552.602696	0.141516
552.816807	0.141937
553.030900	0.141427
553.244975	0.141590
553.459032	0.142005
553.673070	0.142944
553.887091	0.142969
554.101093	0.142527
554.315077	0.142715
554.529042	0.142928
554.742990	0.142971
554.956919	0.143814
555.170830	0.143864
555.384722	0.143997
555.598597	0.144397
555.812453	0.144240
556.026291	0.145066
556.240111	0.145142
556.453913	0.145307
556.667696	0.145477
556.881461	0.145415
557.095208	0.146013
557.308937	0.145909
557.522647	0.145710
557.736339	0.146429
557.950013	0.146345
558.163669	0.146674
558.377307	0.146888
558.590926	0.147142
558.804527	0.148081
559.018110	0.148083
559.231675	0.148529
559.445221	0.148990
559.658749	0.148966
559.872259	0.149083
560.085751	0.149209
560.299225	0.149698
560.512680	0.149822
560.726117	0.149052
560.939536	0.149170
561.152937	0.149073
561.366319	0.148677
561.579683	0.148878
561.793029	0.148854
562.006357	0.148916
562.219667	0.149096
562.432958	0.149816
562.646231	0.150176
562.859486	0.150030
563.072723	0.150560
563.285941	0.150944
563.499141	0.151040
563.712323	0.151767
563.925487	0.151944
564.138632	0.152208
564.351760	0.152071
564.564869	0.152587
564.777960	0.153469
564.991032	0.153287
565.204087	0.153622
565.417123	0.153397
565.630141	0.153619
565.843140	0.153692
566.056122	0.153464
566.269085	0.153640
566.482030	0.153554
566.694957	0.153248
566.907866	0.153334
567.120756	0.153386
567.333628	0.153376
567.546482	0.153292
567.759318	0.154033
567.972135	0.154325
568.184935	0.154056
568.397716	0.154479
568.610478	0.154659
568.823223	0.154894
569.035949	0.154872
569.248657	0.155593
569.461347	0.155710
569.674019	0.155544
569.886672	0.155884
570.099308	0.155861
570.311925	0.155874
570.524523	0.156054
570.737104	0.155904
570.949666	0.156035
571.162210	0.155894
571.374736	0.156015
571.587244	0.155841
571.799733	0.155485
572.012205	0.155958
572.224658	0.155896
572.437092	0.155950
572.649509	0.156422
572.861907	0.156584
573.074287	0.157065
573.286649	0.157204
573.498993	0.157455
573.711318	0.157837
573.923625	0.157911
574.135914	0.158204
574.348185	0.158635
574.560438	0.158434
574.772672	0.158904
574.984888	0.159170
575.197086	0.159395
575.409266	0.159811
575.621427	0.160091
575.833570	0.160027
576.045695	0.159670
576.257802	0.159555
576.469890	0.160069
576.681961	0.159691
576.894013	0.159869
577.106046	0.159845
577.318062	0.160019
577.530059	0.160297
577.742039	0.160777
577.954000	0.161249
578.165942	0.161399
578.377867	0.161479
578.589773	0.162188
578.801661	0.162084
579.013531	0.162188
579.225382	0.162168
579.437216	0.162025
579.649031	0.162288
579.860828	0.162692
580.072606	0.162857
580.284367	0.162878
580.496109	0.163011
580.707833	0.163189
580.919539	0.163523
581.131227	0.163925
581.342896	0.164291
581.554547	0.164203
581.766180	0.164049
581.977795	0.164100
582.189391	0.164688
582.400969	0.164526
582.612529	0.164675
582.824071	0.164393
583.035595	0.164381
583.247100	0.164641
583.458587	0.164584
583.670056	0.164967
583.881506	0.164740
584.092939	0.164872
584.304353	0.164831
584.515749	0.165182
584.727127	0.165518
584.938486	0.165162
585.149828	0.164970
585.361151	0.164926
585.572456	0.165362
585.783742	0.165456
585.995011	0.165343
586.206261	0.165532
586.417493	0.165296
586.628706	0.165684
586.839902	0.166119
587.051079	0.166325
587.262238	0.166917
587.473379	0.166922
587.684502	0.167903
587.895606	0.168000
588.106692	0.168343
588.317760	0.168692
588.528810	0.168901
588.739841	0.169019
588.950855	0.169488
589.161850	0.169747
589.372827	0.169901
589.583785	0.169661
589.794726	0.170037
590.005648	0.170034
590.216552	0.170169
590.427437	0.170533
590.638305	0.170630
590.849154	0.170429
591.059985	0.170301
591.270798	0.170652
591.481592	0.170744
591.692369	0.171029
591.903127	0.171180
592.113867	0.171436
592.324588	0.171250
592.535292	0.171425
592.745977	0.171498
592.956644	0.171771
593.167293	0.171383
593.377923	0.171372
593.588536	0.171197
593.799130	0.171623
594.009706	0.171551
594.220263	0.171678
594.430803	0.172122
594.641324	0.172087
594.851827	0.172574
595.062312	0.172988
595.272778	0.173631
595.483227	0.173648
595.693657	0.173927
595.904069	0.174309
596.114462	0.174100
596.324838	0.173965
596.535195	0.174398
596.745534	0.174451
596.955855	0.174489
597.166157	0.174106
597.376441	0.174595
597.586707	0.174400
597.796955	0.174357
598.007185	0.174918
598.217396	0.175110
598.427589	0.175209
598.637764	0.175270
598.847921	0.175338
599.058060	0.175575
599.268180	0.175837
599.478282	0.176220
599.688366	0.176537
599.898431	0.176674
600.108479	0.176722
600.318508	0.177289
600.528519	0.177113
600.738511	0.177215
600.948486	0.177699
601.158442	0.177536
601.368380	0.177691
601.578300	0.177820
601.788202	0.177877
601.998085	0.178241
602.207950	0.178052
602.417797	0.178203
602.627626	0.178608
602.837436	0.178803
603.047228	0.178835
603.257002	0.179028
603.466758	0.178907
603.676496	0.179074
603.886215	0.178888
604.095916	0.179182
604.305599	0.179491
604.515264	0.179385
604.724910	0.179165
604.934538	0.179595
605.144148	0.179665
605.353740	0.179860
605.563314	0.179803
605.772869	0.180283
605.982406	0.180204
606.191925	0.180645
606.401425	0.180846
606.610908	0.181172
606.820372	0.181004
607.029818	0.181101
607.239246	0.180960
607.448655	0.180987
607.658047	0.180899
607.867420	0.181047
608.076775	0.181055
608.286111	0.181369
608.495430	0.181198
608.704730	0.181468
608.914012	0.181397
609.123275	0.181773
609.332521	0.181902
609.541748	0.182372
609.750957	0.182517
609.960148	0.182457
610.169321	0.182199
610.378475	0.182628
610.587611	0.182596
610.796729	0.183024
611.005829	0.182806
611.214910	0.183415
611.423974	0.183051
611.633019	0.183183
611.842045	0.183254
612.051054	0.183327
612.260044	0.183258
612.469017	0.183634
612.677970	0.183636
612.886906	0.184122
613.095824	0.184213
613.304723	0.184398
613.513604	0.184505
613.722467	0.184638
613.931311	0.185069
614.140138	0.185424
614.348946	0.185431
614.557736	0.185515
614.766507	0.185643
614.975261	0.185428
615.183996	0.185859
615.392713	0.186021
615.601412	0.186312
615.810092	0.186459
616.018754	0.186421
616.227399	0.186630
616.436024	0.187003
616.644632	0.187205
616.853222	0.187547
617.061793	0.187615
617.270346	0.187497
617.478880	0.187440
617.687397	0.187665
617.895895	0.187819
618.104375	0.187984
618.312837	0.188027
618.521281	0.188068
618.729706	0.188109
618.938113	0.188122
619.146502	0.188360
619.354873	0.188643
619.563226	0.188841
619.771560	0.189058
619.979876	0.189231
620.188174	0.189403
620.396453	0.189481
620.604715	0.189776
620.812958	0.189839
621.021183	0.190145
621.229390	0.190060
621.437578	0.190060
621.645748	0.190203
621.853900	0.190279
622.062034	0.190067
622.270150	0.190162
622.478247	0.190256
622.686326	0.190489
622.894387	0.190662
623.102430	0.190855
623.310454	0.190928
623.518461	0.190998
623.726449	0.191248
623.934418	0.191551
624.142370	0.191744
624.350303	0.191703
624.558218	0.191738
624.766115	0.191686
624.973994	0.191831
625.181855	0.192190
625.389697	0.192276
625.597521	0.192239
625.805327	0.192409
626.013114	0.192694
626.220883	0.192841
626.428634	0.193090
626.636367	0.193490
626.844082	0.193966
627.051778	0.193950
627.259457	0.194198
627.467117	0.194453
627.674758	0.194551
627.882382	0.194545
628.089987	0.194826
628.297574	0.194958
628.505143	0.194957
628.712694	0.194793
628.920226	0.194943
629.127740	0.195235
629.335236	0.195734
629.542714	0.196121
629.750174	0.196565
629.957615	0.196721
630.165038	0.196691
630.372443	0.196618
630.579829	0.196796
630.787198	0.196591
630.994548	0.196639
631.201880	0.196236
631.409194	0.196083
631.616489	0.196073
631.823766	0.196182
632.031025	0.196713
632.238266	0.197035
632.445489	0.197110
632.652693	0.197503
632.859879	0.197608
633.067047	0.197922
633.274197	0.198236
633.481329	0.198244
633.688442	0.198303
633.895537	0.198272
634.102614	0.198364
634.309672	0.198610
634.516713	0.199055
634.723735	0.199098
634.930739	0.199131
635.137724	0.199347
635.344692	0.199484
635.551641	0.199729
635.758572	0.199895
635.965485	0.200225
636.172379	0.200339
636.379256	0.200078
636.586114	0.200184
636.792954	0.200518
636.999775	0.200783
637.206579	0.201063
637.413364	0.201027
637.620131	0.201009
637.826880	0.201028
638.033610	0.201050
638.240323	0.201352
638.447017	0.201658
638.653692	0.201975
638.860350	0.202027
639.066990	0.202468
639.273611	0.202777
639.480214	0.203038
639.686798	0.203347
639.893365	0.203678
640.099913	0.203666
640.306443	0.203558
640.512955	0.203447
640.719449	0.203305
640.925924	0.203175
641.132381	0.203325
641.338820	0.203373
641.545241	0.203288
641.751644	0.203374
641.958028	0.203517
642.164394	0.203747
642.370742	0.203869
642.577071	0.203882
642.783383	0.203900
642.989676	0.204010
643.195951	0.204239
643.402207	0.204515
643.608446	0.204517
643.814666	0.205013
644.020868	0.205297
644.227052	0.205602
644.433218	0.205931
644.639365	0.206165
644.845494	0.206395
645.051605	0.206475
645.257698	0.206673
645.463772	0.206860
645.669828	0.206878
645.875866	0.206930
646.081886	0.207025
646.287888	0.207380
646.493871	0.207665
646.699836	0.207791
646.905783	0.207929
647.111712	0.208040
647.317622	0.208526
647.523514	0.208622
647.729388	0.208881
647.935244	0.209017
648.141082	0.209157
648.346901	0.209174
648.552702	0.209564
648.758485	0.210039
648.964250	0.210333
649.169996	0.210411
649.375724	0.210471
649.581434	0.210550
649.787126	0.210629
649.992800	0.210536
650.198455	0.210862
650.404092	0.211043
650.609711	0.210939
650.815311	0.211035
651.020894	0.211036
651.226458	0.211275
651.432004	0.211527
651.637532	0.211755
651.843041	0.212205
652.048532	0.212296
652.254006	0.212391
652.459460	0.212810
652.664897	0.213006
652.870315	0.213165
653.075716	0.213367
653.281097	0.213707
653.486461	0.213920
653.691807	0.214133
653.897134	0.214304
654.102443	0.214401
654.307734	0.214301
654.513006	0.214258
654.718261	0.214577
654.923497	0.214956
655.128715	0.215023
655.333915	0.215018
655.539096	0.215270
655.744259	0.215566
655.949404	0.215724
656.154531	0.216079
656.359640	0.216641
656.564730	0.217136
656.769802	0.217529
656.974856	0.217941
657.179892	0.218400
657.384909	0.218242
657.589908	0.218449
657.794889	0.218621
657.999852	0.218767
658.204797	0.218897
658.409723	0.218927
658.614631	0.218846
658.819521	0.218868
659.024393	0.219157
659.229246	0.219619
659.434081	0.219707
659.638898	0.219938
659.843697	0.220028
660.048478	0.219978
660.253240	0.220258
660.457984	0.220300
660.662710	0.220526
660.867417	0.220361
661.072107	0.220365
661.276778	0.220648
661.481431	0.220775
661.686066	0.221145
661.890682	0.221279
662.095281	0.221333
662.299861	0.221615
662.504422	0.221830
662.708966	0.222420
662.913491	0.222686
663.117999	0.222703
663.322488	0.223081
663.526958	0.223440
663.731411	0.223761
663.935845	0.223771
664.140261	0.224139
664.344659	0.224298
664.549038	0.224284
664.753400	0.224474
664.957743	0.224749
665.162068	0.224699
665.366375	0.224751
665.570663	0.225060
665.774933	0.225432
665.979185	0.225437
666.183419	0.225669
666.387635	0.226205
666.591832	0.226404
666.796011	0.226566
667.000172	0.227050
667.204315	0.227316
667.408439	0.227558
667.612545	0.227906
667.816634	0.228293
668.020703	0.228534
668.224755	0.228473
668.428788	0.228533
668.632803	0.228776
668.836800	0.228855
669.040779	0.229147
669.244739	0.229391
669.448681	0.229518
669.652605	0.229599
669.856511	0.229808
670.060399	0.229960
670.264268	0.230323
670.468119	0.230498
670.671952	0.230565
670.875767	0.230702
671.079563	0.231000
671.283341	0.231244
671.487101	0.231545
671.690843	0.231590
671.894567	0.231749
672.098272	0.232037
672.301959	0.232486
672.505628	0.232859
672.709278	0.233071
672.912911	0.233063
673.116525	0.232979
673.320121	0.233184
673.523699	0.233473
673.727258	0.233590
673.930799	0.233792
674.134322	0.233969
674.337827	0.234076
674.541314	0.234398
674.744782	0.234538
674.948232	0.234853
675.151664	0.234989
675.355078	0.235134
675.558474	0.235337
675.761851	0.235389
675.965210	0.235449
676.168551	0.235853
676.371873	0.235969
676.575178	0.236284
676.778464	0.236406
676.981732	0.236571
677.184981	0.236543
677.388213	0.236931
677.591426	0.237250
677.794621	0.237457
677.997798	0.237739
678.200956	0.238113
678.404097	0.238155
678.607219	0.238419
678.810323	0.238652
679.013408	0.238993
679.216476	0.239365
679.419525	0.239527
679.622556	0.239703
679.825569	0.239766
680.028563	0.239564
680.231540	0.240035
680.434498	0.240185
680.637438	0.240491
680.840359	0.240846
681.043263	0.240940
681.246148	0.241287
681.449015	0.241483
681.651864	0.241687
681.854694	0.242100
682.057506	0.242232
682.260301	0.242631
682.463076	0.242862
682.665834	0.243058
682.868573	0.243446
683.071295	0.243609
683.273998	0.243972
683.476682	0.244034
683.679349	0.244151
683.881997	0.244292
684.084627	0.244479
684.287239	0.244591
684.489833	0.244806
684.692408	0.244864
684.894965	0.244941
685.097504	0.245002
685.300025	0.245270
685.502527	0.245454
685.705012	0.245629
685.907478	0.245589
686.109925	0.245693
686.312355	0.245803
686.514766	0.245822
686.717159	0.246033
686.919534	0.246183
687.121891	0.246224
687.324230	0.246288
687.526550	0.246560
687.728852	0.247047
687.931136	0.247255
688.133401	0.247583
688.335649	0.247926
688.537878	0.248190
688.740089	0.248312
688.942281	0.248865
689.144456	0.249211
689.346612	0.249545
689.548750	0.249557
689.750870	0.249935
689.952971	0.249995
690.155055	0.250284
690.357120	0.250357
690.559167	0.250719
690.761195	0.250834
690.963206	0.251125
691.165198	0.251019
691.367172	0.251268
691.569128	0.251060
691.771065	0.251580
691.972984	0.251602
692.174885	0.251927
692.376768	0.252152
692.578633	0.252109
692.780479	0.252150
692.982308	0.252692
693.184118	0.252844
693.385909	0.253251
693.587683	0.253163
693.789438	0.253161
693.991175	0.253050
694.192894	0.253096
694.394595	0.253330
694.596277	0.253427
694.797941	0.253266
694.999587	0.253220
695.201215	0.253096
695.402824	0.253116
695.604416	0.253296
695.805989	0.253542
696.007543	0.253506
696.209080	0.253619
696.410598	0.253921
696.612099	0.254342
696.813580	0.254579
697.015044	0.254715
697.216490	0.254893
697.417917	0.255077
697.619326	0.255140
697.820717	0.255338
698.022089	0.255379
698.223444	0.255273
698.424780	0.254980
698.626098	0.254951
698.827397	0.255219
699.028679	0.255432
699.229942	0.255559
699.431187	0.255807
699.632414	0.255953
699.833622	0.256034
700.034813	0.256149
700.235985	0.256219
700.437139	0.256386
700.638274	0.256582
700.839392	0.256485
701.040491	0.256518
701.241572	0.256450
701.442635	0.256465
701.643679	0.256774
701.844706	0.256903
702.045714	0.257262
702.246704	0.257480
702.447675	0.257600
702.648629	0.257692
702.849564	0.257998
703.050481	0.258130
703.251380	0.258340
703.452260	0.258303
703.653122	0.258478
703.853966	0.258348
704.054792	0.258501
704.255600	0.258400
704.456389	0.258509
704.657160	0.258306
704.857913	0.258367
705.058648	0.258593
705.259365	0.258750
705.460063	0.258586
705.660743	0.258468
705.861405	0.258469
706.062048	0.258612
706.262674	0.258511
706.463281	0.258608
706.663870	0.258736
706.864441	0.258357
707.064993	0.258150
707.265527	0.258233
707.466043	0.258523
707.666541	0.258527
707.867021	0.258618
708.067482	0.258728
708.267925	0.258689
708.468350	0.258769
708.668757	0.259113
708.869145	0.259508
709.069516	0.259548
709.269868	0.259288
709.470201	0.259349
709.670517	0.259272
709.870814	0.259405
710.071093	0.259370
710.271354	0.259074
710.471597	0.258738
710.671821	0.258523
710.872028	0.258481
711.072216	0.258612
711.272385	0.258550
711.472537	0.258524
711.672670	0.258460
711.872785	0.258616
712.072882	0.258895
712.272961	0.258933
712.473021	0.258688
712.673063	0.259002
712.873087	0.259250
713.073093	0.259270
713.273081	0.259303
713.473050	0.259186
713.673001	0.259165
713.872934	0.258987
714.072849	0.259096
714.272745	0.259443
714.472623	0.259274
714.672483	0.258997
714.872325	0.258999
715.072148	0.258939
715.271954	0.259266
715.471741	0.258998
715.671509	0.259106
715.871260	0.259042
716.070992	0.258853
716.270707	0.258517
716.470403	0.258593
716.670080	0.258397
716.869740	0.258280
717.069381	0.257833
717.269004	0.257712
717.468609	0.257579
717.668195	0.257645
717.867764	0.257335
718.067314	0.257506
718.266846	0.257404
718.466360	0.257232
718.665855	0.257108
718.865332	0.257005
719.064791	0.256893
719.264232	0.256711
719.463655	0.256513
719.663059	0.256392
719.862445	0.256133
720.061813	0.255850
720.261163	0.255884
720.460494	0.255930
720.659807	0.255792
720.859102	0.255862
721.058379	0.255583
721.257638	0.255215
721.456878	0.255167
721.656100	0.254959
721.855304	0.254838
722.054490	0.254577
722.253657	0.254237
722.452806	0.254362
722.651937	0.254372
722.851050	0.254404
723.050145	0.254624
723.249221	0.254472
723.448279	0.254277
723.647319	0.254315
723.846340	0.254162
724.045344	0.254093
724.244329	0.253985
724.443296	0.253760
724.642245	0.253593
724.841175	0.253304
725.040088	0.253395
725.238982	0.253414
725.437857	0.253295
725.636715	0.253401
725.835554	0.253456
726.034376	0.253227
726.233179	0.253154
726.431963	0.253031
726.630730	0.253170
726.829478	0.252980
727.028208	0.252814
727.226920	0.252551
727.425614	0.252103
727.624289	0.251823
727.822946	0.251646
728.021585	0.251342
728.220206	0.251316
728.418808	0.251073
728.617392	0.250940
728.815958	0.250830
729.014506	0.250773
729.213036	0.250731
729.411547	0.250473
729.610040	0.250362
729.808515	0.250162
730.006972	0.250021
730.205410	0.249801
730.403831	0.249723
730.602233	0.249595
730.800616	0.249387
730.998982	0.249443
731.197329	0.249335
731.395658	0.249226
731.593969	0.249268
731.792262	0.249148
731.990536	0.248818
732.188793	0.248699
732.387031	0.248685
732.585250	0.248626
732.783452	0.248366
732.981635	0.248285
733.179800	0.248001
733.377947	0.247841
733.576076	0.247361
733.774186	0.247274
733.972278	0.247070
734.170352	0.246805
734.368408	0.246697
734.566446	0.246556
734.764465	0.246458
734.962466	0.246372
735.160449	0.246091
735.358413	0.246337
735.556360	0.246380
735.754288	0.246103
735.952198	0.245980
736.150090	0.245588
736.347963	0.245315
736.545818	0.244932
736.743655	0.244939
736.941474	0.244897
737.139275	0.244419
737.337057	0.243679
737.534821	0.243456
737.732567	0.243431
737.930295	0.243369
738.128005	0.243230
738.325696	0.243066
738.523369	0.242555
738.721024	0.242122
738.918660	0.241747
739.116279	0.242050
739.313879	0.241853
739.511461	0.241398
739.709024	0.241157
739.906570	0.241016
740.104097	0.240997
740.301606	0.240829
740.499097	0.240851
740.696569	0.241009
740.894024	0.240516
741.091460	0.240165
741.288878	0.240331
741.486277	0.240178
741.683659	0.239895
741.881022	0.239586
742.078367	0.239447
742.275694	0.239122
742.473002	0.238869
742.670293	0.239034
742.867565	0.238787
743.064819	0.238303
743.262054	0.238250
743.459272	0.238408
743.656471	0.238325
743.853652	0.238139
744.050815	0.237832
744.247959	0.237744
744.445085	0.237252
744.642194	0.237227
744.839283	0.237022
745.036355	0.236658
745.233408	0.236244
745.430444	0.235905
745.627461	0.235669
745.824459	0.235626
746.021440	0.235540
746.218402	0.235746
746.415346	0.235789
746.612272	0.235447
746.809180	0.235091
747.006069	0.234859
747.202940	0.234908
747.399793	0.234784
747.596628	0.234520
747.793444	0.234255
747.990243	0.233623
748.187023	0.233291
748.383784	0.233215
748.580528	0.233190
748.777253	0.232856
748.973960	0.232537
749.170649	0.232530
749.367320	0.232648
749.563973	0.232420
749.760607	0.232336
749.957223	0.232067
750.153821	0.232056
750.350400	0.231941
750.546962	0.231856
750.743505	0.231547
750.940030	0.231058
751.136536	0.230855
751.333025	0.230524
751.529495	0.230626
751.725947	0.230699
751.922381	0.230288
752.118796	0.230006
752.315194	0.229890
752.511573	0.229547
752.707934	0.229298
752.904276	0.228849
753.100601	0.228693
753.296907	0.228022
753.493195	0.227313
753.689465	0.227187
753.885716	0.226964
754.081949	0.226513
754.278164	0.226524
754.474361	0.226513
754.670540	0.226480
754.866700	0.226336
755.062843	0.226422
755.258967	0.226621
755.455072	0.226511
755.651160	0.226531
755.847229	0.226381
756.043280	0.226210
756.239313	0.225860
756.435328	0.225556
756.631324	0.225263
756.827302	0.225060
757.023262	0.224866
757.219204	0.224443
757.415127	0.224259
757.611033	0.224295
757.806920	0.224181
758.002788	0.224140
758.198639	0.223836
758.394471	0.223611
758.590286	0.223924
758.786081	0.223775
758.981859	0.223742
759.177619	0.223549
759.373360	0.223498
759.569083	0.223342
759.764788	0.223389
759.960474	0.223247
760.156143	0.223433
760.351793	0.222922
760.547425	0.222570
760.743038	0.222485
760.938634	0.222110
761.134211	0.221798
761.329770	0.221687
761.525311	0.221242
761.720833	0.221374
761.916338	0.221207
762.111824	0.221023
762.307292	0.221231
762.502741	0.221189
762.698173	0.221274
762.893586	0.221135
763.088981	0.221190
763.284358	0.221349
763.479716	0.221273
763.675057	0.221219
763.870379	0.221194
764.065683	0.220983
764.260968	0.220906
764.456236	0.220764
764.651485	0.220696
764.846716	0.220476
765.041929	0.220306
765.237123	0.220017
765.432299	0.219865
765.627457	0.219699
765.822597	0.219677
766.017719	0.219481
766.212822	0.219266
766.407907	0.219295
766.602974	0.219272
766.798023	0.219050
766.993054	0.219046
767.188066	0.218809
767.383060	0.218861
767.578036	0.218797
767.772993	0.218672
767.967933	0.218657
768.162854	0.218423
768.357757	0.218048
768.552642	0.218028
768.747508	0.218171
768.942356	0.218031
769.137186	0.217876
769.331998	0.217511
769.526792	0.217489
769.721567	0.217578
769.916324	0.217671
770.111063	0.217583
770.305784	0.217709
770.500486	0.217662
770.695171	0.217672
770.889837	0.217251
771.084484	0.217497
771.279114	0.217331
771.473725	0.217463
771.668318	0.217227
771.862893	0.217479
772.057450	0.217123
772.251988	0.217065
772.446509	0.217190
772.641011	0.217417
772.835494	0.217518
773.029960	0.217545
773.224407	0.217405
773.418836	0.217274
773.613247	0.217135
773.807640	0.217161
774.002014	0.217026
774.196370	0.216766
774.390708	0.216750
774.585028	0.216414
774.779330	0.216439
774.973613	0.216249
775.167878	0.216472
775.362125	0.216421
775.556354	0.216344
775.750564	0.216186
775.944756	0.216351
776.138930	0.216024
776.333086	0.216048
776.527223	0.216066
776.721343	0.216146
776.915444	0.216053
777.109526	0.215980
777.303591	0.215947
777.497637	0.215866
777.691666	0.215634
777.885676	0.215981
778.079667	0.216011
778.273641	0.216031
778.467596	0.215820
778.661533	0.215763
778.855452	0.215806
779.049352	0.215749
779.243235	0.215532
779.437099	0.215700
779.630945	0.215666
779.824773	0.215407
780.018582	0.215127
780.212373	0.215073
780.406146	0.215244
780.599901	0.215254
780.793638	0.215442
780.987356	0.215736
781.181056	0.215669
781.374738	0.215510
781.568402	0.215752
781.762047	0.215974
781.955674	0.216160
782.149283	0.215870
782.342874	0.215837
782.536447	0.216043
782.730001	0.215950
782.923537	0.216155
783.117055	0.216344
783.310555	0.216452
783.504036	0.216385
783.697499	0.216341
783.890944	0.216339
784.084371	0.216516
784.277780	0.216598
784.471170	0.216723
784.664542	0.216701
784.857896	0.216857
785.051231	0.216859
785.244549	0.217214
785.437848	0.217390
785.631129	0.217803
785.824392	0.217768
786.017636	0.217570
786.210863	0.217598
786.404071	0.217821
786.597260	0.217823
786.790432	0.217901
786.983585	0.217927
787.176721	0.217969
787.369838	0.218151
787.562936	0.218110
787.756017	0.218306
787.949079	0.218389
788.142123	0.218372
788.335149	0.218311
788.528156	0.218433
788.721146	0.218377
788.914117	0.218478
789.107070	0.218142
789.300005	0.218546
789.492921	0.218786
789.685819	0.219077
789.878699	0.219152
790.071561	0.219343
790.264405	0.219523
790.457230	0.219702
790.650037	0.219893
790.842826	0.219971
791.035597	0.219913
791.228349	0.219901
791.421084	0.219971
791.613800	0.219740
791.806497	0.219719
791.999177	0.219623
792.191838	0.219484
792.384481	0.219646
792.577106	0.220078
792.769713	0.220502
792.962301	0.220647
793.154871	0.220954
793.347423	0.221523
793.539957	0.221711
793.732473	0.222001
793.924970	0.222545
794.117449	0.222538
794.309910	0.222830
794.502353	0.222858
794.694777	0.223113
794.887183	0.223013
795.079571	0.223065
795.271941	0.223451
795.464293	0.223738
795.656626	0.223938
795.848941	0.223949
796.041238	0.224224
796.233516	0.224477
796.425777	0.224663
796.618019	0.225018
796.810243	0.225212
797.002449	0.225141
797.194636	0.225375
797.386805	0.225137
797.578956	0.225642
797.771089	0.225554
797.963204	0.225334
798.155300	0.225318
798.347378	0.225429
798.539438	0.225431
798.731480	0.225778
798.923503	0.225781
799.115509	0.226296
799.307496	0.226254
799.499465	0.226399
799.691415	0.226687
799.883348	0.226957
800.075262	0.227168
800.267158	0.227434
800.459035	0.227741
800.650895	0.227850
800.842736	0.227849
801.034559	0.228063
801.226364	0.228175
801.418150	0.228387
801.609919	0.228208
801.801669	0.228298
801.993401	0.228595
802.185114	0.228704
802.376810	0.228807
802.568487	0.229185
802.760146	0.229200
802.951787	0.229392
803.143409	0.229500
803.335014	0.230136
803.526600	0.230197
803.718168	0.230260
803.909717	0.230465
804.101249	0.230803
804.292762	0.230842
804.484257	0.231396
804.675734	0.231947
804.867192	0.232272
805.058632	0.232565
805.250054	0.232929
805.441458	0.233538
805.632844	0.233487
805.824211	0.233768
806.015561	0.234330
806.206891	0.234468
806.398204	0.234583
806.589499	0.234921
806.780775	0.234969
806.972033	0.235364
807.163273	0.235459
807.354495	0.236042
807.545698	0.236348
807.736883	0.236557
807.928050	0.236926
808.119199	0.237046
808.310329	0.237435
808.501441	0.237736
808.692535	0.237997
808.883611	0.237994
809.074669	0.238352
809.265708	0.238694
809.456729	0.238664
809.647732	0.239122
809.838717	0.239571
810.029683	0.239729
810.220632	0.240071
810.411562	0.240216
810.602474	0.240596
810.793367	0.240678
810.984242	0.240913
811.175100	0.241599
811.365938	0.241580
811.556759	0.241666
811.747562	0.242227
811.938346	0.242451
812.129112	0.242966
812.319860	0.243247
812.510589	0.243651
812.701300	0.243874
812.891994	0.244230
813.082668	0.244464
813.273325	0.244731
813.463964	0.244679
813.654584	0.244881
813.845186	0.245177
814.035769	0.245722
814.226335	0.246027
814.416882	0.246425
814.607411	0.246364
814.797922	0.246891
814.988415	0.247330
815.178889	0.247964
815.369345	0.248386
815.559783	0.248337
815.750203	0.248657
815.940605	0.248805
816.130988	0.249001
816.321353	0.249311
816.511700	0.249828
816.702028	0.250449
816.892339	0.250790
817.082631	0.251240
817.272905	0.251665
817.463161	0.251857
817.653398	0.252313
817.843617	0.252823
818.033819	0.253217
818.224001	0.253527
818.414166	0.253742
818.604312	0.253798
818.794440	0.254102
818.984550	0.254850
819.174642	0.255373
819.364716	0.255986
819.554771	0.256287
819.744808	0.256718
819.934827	0.256880
820.124827	0.257204
820.314810	0.257518
820.504774	0.257884
820.694720	0.258094
820.884647	0.258318
821.074557	0.258389
821.264448	0.258575
821.454321	0.258968
821.644176	0.259186
821.834012	0.259624
822.023831	0.260372
822.213631	0.260691
822.403413	0.260666
822.593176	0.261187
822.782922	0.261673
822.972649	0.262241
823.162358	0.262529
823.352049	0.263109
823.541721	0.263063
823.731376	0.263107
823.921012	0.263294
824.110629	0.264043
824.300229	0.264503
824.489811	0.264823
824.679374	0.264843
824.868919	0.265183
825.058445	0.265306
825.247954	0.265858
825.437444	0.266309
825.626916	0.266937
825.816370	0.267092
826.005806	0.267087
826.195223	0.267417
826.384622	0.267998
826.574003	0.268203
826.763366	0.268560
826.952711	0.268996
827.142037	0.269341
827.331345	0.269782
827.520635	0.270130
827.709906	0.270465
827.899160	0.270847
828.088395	0.271483
828.277612	0.272362
828.466810	0.273174
828.655991	0.273550
828.845153	0.274040
829.034297	0.274376
829.223423	0.275177
829.412531	0.275461
829.601620	0.275808
829.790691	0.275825
829.979744	0.276008
830.168779	0.276262
830.357795	0.276712
830.546793	0.277053
830.735773	0.277293
830.924735	0.277400
831.113679	0.278092
831.302604	0.278459
831.491511	0.278905
831.680400	0.279177
831.869271	0.279549
832.058123	0.279773
832.246957	0.280141
832.435773	0.280505
832.624571	0.280667
832.813351	0.280850
833.002112	0.281087
833.190855	0.281693
833.379580	0.282133
833.568287	0.282468
833.756975	0.283187
833.945645	0.283433
834.134297	0.283755
834.322931	0.284384
834.511547	0.284790
834.700144	0.285401
834.888723	0.285626
835.077284	0.285973
835.265826	0.286256
835.454351	0.286801
835.642857	0.287450
835.831345	0.287947
836.019815	0.288389
836.208266	0.289195
836.396699	0.290006
836.585114	0.290641
836.773511	0.290957
836.961890	0.291550
837.150250	0.291773
837.338592	0.292286
837.526916	0.292888
837.715222	0.293230
837.903510	0.293630
838.091779	0.293523
838.280030	0.294062
838.468263	0.294535
838.656477	0.295014
838.844674	0.295476
839.032852	0.295853
839.221012	0.296141
839.409153	0.296889
839.597277	0.297312
839.785382	0.298016
839.973469	0.298483
840.161538	0.299456
840.349589	0.299736
840.537621	0.300150
840.725635	0.300790
840.913631	0.301298
841.101609	0.301662
841.289568	0.302158
841.477509	0.302681
841.665432	0.302928
841.853337	0.302985
842.041224	0.303493
842.229092	0.304108
842.416942	0.304103
842.604774	0.304729
842.792588	0.305247
842.980383	0.306045
843.168160	0.306480
843.355919	0.307181
843.543660	0.307598
843.731382	0.308698
843.919087	0.309111
844.106773	0.309678
844.294441	0.310187
844.482090	0.310942
844.669722	0.311131
844.857335	0.311803
845.044930	0.312526
845.232507	0.313269
845.420065	0.313203
845.607605	0.313728
845.795127	0.314542
845.982631	0.314997
846.170117	0.315196
846.357584	0.315853
846.545033	0.316466
846.732464	0.316501
846.919877	0.316909
847.107272	0.317555
847.294648	0.318182
847.482006	0.318457
847.669346	0.319114
847.856667	0.319691
848.043971	0.319765
848.231256	0.320030
848.418523	0.320596
848.605771	0.321051
848.793002	0.321679
848.980214	0.322185
849.167408	0.322662
849.354584	0.323255
849.541742	0.323821
849.728881	0.324153
849.916002	0.324576
850.103105	0.325143
850.290190	0.325476
850.477256	0.325802
850.664304	0.325579
850.851334	0.326302
851.038346	0.326452
851.225340	0.326941
851.412315	0.327624
851.599272	0.328244
851.786211	0.328267
851.973132	0.328994
852.160034	0.329006
852.346918	0.329812
852.533784	0.330150
852.720632	0.330765
852.907462	0.331008
853.094273	0.331569
853.281066	0.332061
853.467841	0.332657
853.654598	0.332799
853.841336	0.333123
854.028056	0.333492
854.214758	0.333857
854.401442	0.334126
854.588107	0.334146
854.774755	0.334625
854.961384	0.334882
855.147995	0.335741
855.334587	0.336271
855.521162	0.337216
855.707718	0.337718
855.894256	0.338056
856.080775	0.338586
856.267277	0.339396
856.453760	0.339569
856.640225	0.340147
856.826672	0.340436
857.013101	0.341065
857.199511	0.341222
857.385903	0.341891
857.572277	0.342373
857.758633	0.342814
857.944970	0.343474
858.131290	0.343703
858.317591	0.343934
858.503873	0.344205
858.690138	0.344398
858.876384	0.345197
859.062612	0.345642
859.248822	0.345891
859.435014	0.346406
859.621188	0.346771
859.807343	0.347719
859.993480	0.348138
860.179599	0.348528
860.365699	0.349004
860.551781	0.349444
860.737846	0.350015
860.923891	0.350236
861.109919	0.350639
861.295929	0.350955
861.481920	0.350910
861.667893	0.351400
861.853848	0.351667
862.039784	0.352347
862.225702	0.352506
862.411603	0.352434
862.597484	0.353133
862.783348	0.353390
862.969193	0.353328
863.155021	0.353783
863.340830	0.353824
863.526620	0.354376
863.712393	0.354739
863.898147	0.355087
864.083883	0.355588
864.269601	0.355913
864.455301	0.356229
864.640982	0.356992
864.826645	0.357511
865.012290	0.358400
865.197917	0.358751
865.383526	0.358696
865.569116	0.359367
865.754688	0.359613
865.940242	0.360199
866.125777	0.360877
866.311295	0.361211
866.496794	0.361736
866.682275	0.361884
866.867737	0.362122
867.053182	0.362819
867.238608	0.362679
867.424016	0.362940
867.609406	0.363002
867.794778	0.363011
867.980131	0.363047
868.165466	0.362946
868.350783	0.363483
868.536082	0.364027
868.721362	0.364335
868.906625	0.364797
869.091869	0.365359
869.277094	0.365867
869.462302	0.366201
869.647491	0.367057
869.832662	0.367706
870.017815	0.368060
870.202950	0.368329
870.388066	0.368781
870.573165	0.369250
870.758245	0.369698
870.943306	0.370282
871.128350	0.370596
871.313375	0.370404
871.498382	0.370909
871.683371	0.370817
871.868342	0.371237
872.053294	0.371113
872.238229	0.371180
872.423144	0.371155
872.608042	0.370812
872.792922	0.371276
872.977783	0.371713
873.162626	0.371913
873.347451	0.372062
873.532258	0.372151
873.717046	0.372519
873.901816	0.372953
874.086568	0.373105
874.271302	0.373483
874.456017	0.373772
874.640715	0.374392
874.825394	0.374718
875.010055	0.375313
875.194697	0.375806
875.379322	0.376316
875.563928	0.376681
875.748516	0.376843
875.933085	0.377330
876.117637	0.377205
876.302170	0.377098
876.486685	0.377216
876.671182	0.377464
876.855661	0.377217
877.040121	0.377231
877.224563	0.377679
877.408987	0.378011
877.593393	0.378031
877.777780	0.377844
877.962150	0.377917
878.146501	0.377704
878.330833	0.378005
878.515148	0.378422
878.699444	0.378319
878.883722	0.378065
879.067982	0.378388
879.252224	0.378729
879.436447	0.379228
879.620653	0.379720
879.804840	0.380067
879.989008	0.380261
880.173159	0.380769
880.357291	0.381138
880.541405	0.381129
880.725501	0.380983
880.909579	0.381018
881.093638	0.381479
881.277680	0.381796
881.461703	0.382057
881.645707	0.381949
881.829694	0.381979
882.013662	0.382318
882.197612	0.382685
882.381544	0.383200
882.565458	0.383433
882.749353	0.383346
882.933230	0.383477
883.117089	0.383828
883.300930	0.384080
883.484753	0.383891
883.668557	0.384498
883.852343	0.384511
884.036111	0.384474
884.219861	0.384681
884.403592	0.384882
884.587305	0.384836
884.771000	0.384678
884.954677	0.384887
885.138335	0.385101
885.321976	0.384884
885.505598	0.385136
885.689201	0.385710
885.872787	0.385702
886.056354	0.386263
886.239904	0.386639
886.423434	0.387078
886.606947	0.387048
886.790442	0.386863
886.973918	0.386918
887.157376	0.386861
887.340816	0.386306
887.524237	0.386281
887.707641	0.385756
887.891026	0.385451
888.074393	0.385270
888.257741	0.384840
888.441072	0.384821
888.624384	0.384397
888.807678	0.384239
888.990954	0.384558
889.174211	0.384677
889.357451	0.384773
889.540672	0.384238
889.723875	0.383792
889.907059	0.383721
890.090226	0.384010
890.273374	0.384297
890.456504	0.384722
890.639616	0.385389
890.822709	0.385220
891.005785	0.385124
891.188842	0.385609
891.371881	0.386212
891.554901	0.386526
891.737904	0.386801
891.920888	0.386349
892.103854	0.386689
892.286802	0.386122
892.469731	0.386212
892.652643	0.386233
892.835536	0.385528
893.018410	0.384980
893.201267	0.384639
893.384106	0.384081
893.566926	0.384443
893.749728	0.383682
893.932511	0.383408
894.115277	0.383015
894.298024	0.382821
894.480753	0.383635
894.663464	0.384091
894.846157	0.383981
895.028831	0.383904
895.211487	0.383753
895.394125	0.383495
895.576745	0.383388
895.759346	0.383209
895.941930	0.383203
896.124495	0.382439
896.307041	0.381772
896.489570	0.381656
896.672080	0.381132
896.854573	0.380887
897.037046	0.381013
897.219502	0.380503
897.401940	0.380796
897.584359	0.380313
897.766760	0.380759
897.949143	0.381066
898.131507	0.380899
898.313854	0.380753
898.496182	0.380598
898.678492	0.380667
898.860783	0.380558
899.043057	0.380214
899.225312	0.379920
899.407549	0.379467
899.589768	0.379194
899.771968	0.379156
899.954151	0.379619
900.136315	0.378662
900.318461	0.377908
900.500588	0.377882
900.682698	0.377625
900.864789	0.377836
901.046862	0.378026
901.228917	0.377307
901.410953	0.377147
901.592971	0.376721
901.774972	0.376786
901.956953	0.377035
902.138917	0.376759
902.320862	0.376517
902.502790	0.375513
902.684699	0.374729
902.866589	0.374674
903.048462	0.374295
903.230316	0.373861
903.412152	0.373566
903.593970	0.372649
903.775770	0.372104
903.957551	0.371769
904.139314	0.371613
904.321059	0.371246
904.502786	0.371283
904.684494	0.370832
904.866185	0.370244
905.047857	0.369776
905.229510	0.369694
905.411146	0.369220
905.592763	0.368767
905.774363	0.368966
905.955943	0.368600
906.137506	0.367556
906.319051	0.366553
906.500577	0.365978
906.682085	0.366233
906.863575	0.365333
907.045046	0.364706
907.226500	0.364302
907.407935	0.363395
907.589352	0.363033
907.770750	0.362719
907.952131	0.363038
908.133493	0.362773
908.314837	0.361640
908.496163	0.361209
908.677470	0.360977
908.858760	0.360168
909.040031	0.360385
909.221284	0.359850
909.402518	0.359166
909.583735	0.358581
909.764933	0.358427
909.946113	0.358409
910.127275	0.358370
910.308418	0.358001
910.489544	0.357678
910.670651	0.357169
910.851740	0.356557
911.032810	0.356726
911.213863	0.356163
911.394897	0.355058
911.575913	0.354095
911.756911	0.353587
911.937890	0.353398
912.118851	0.352747
912.299794	0.351562
912.480719	0.351013
912.661626	0.349824
912.842514	0.349039
913.023384	0.348970
913.204236	0.348563
913.385070	0.348247
913.565886	0.347458
913.746683	0.346639
913.927462	0.345963
914.108223	0.344878
914.288965	0.344084
914.469690	0.344227
914.650396	0.342983
914.831084	0.342447
915.011754	0.341013
915.192405	0.340549
915.373038	0.340240
915.553653	0.340261
915.734250	0.340471
915.914829	0.340224
916.095389	0.339111
916.275931	0.338857
916.456455	0.337859
916.636961	0.337218
916.817448	0.336556
916.997917	0.336336
917.178368	0.335494
917.358801	0.334419
917.539216	0.333749
917.719612	0.333222
917.899990	0.332844
918.080350	0.332432
918.260692	0.331750
918.441015	0.331609
918.621320	0.330635
918.801607	0.329818
918.981876	0.328955
919.162127	0.328323
919.342359	0.327570
919.522573	0.326638
919.702769	0.325692
919.882947	0.325495
920.063106	0.324201
920.243247	0.323488
920.423370	0.323180
920.603475	0.322148
920.783562	0.321106
920.963630	0.320551
921.143680	0.319362
921.323712	0.319201
921.503725	0.318314
921.683721	0.316897
921.863698	0.316179
922.043657	0.315233
922.223598	0.314877
922.403520	0.314470
922.583424	0.313018
922.763311	0.313037
922.943178	0.312019
923.123028	0.311540
923.302859	0.311402
923.482673	0.310719
923.662467	0.309195
923.842244	0.308677
924.022003	0.308096
924.201743	0.307874
924.381465	0.307394
924.561169	0.306147
924.740854	0.305244
924.920522	0.304284
925.100171	0.303572
925.279802	0.302942
925.459414	0.301711
925.639009	0.300173
925.818585	0.299267
925.998143	0.298401
926.177683	0.297569
926.357205	0.296699
926.536708	0.295662
926.716193	0.294304
926.895660	0.294121
927.075109	0.293291
927.254539	0.292722
927.433951	0.291504
927.613345	0.289525
927.792721	0.288871
927.972079	0.287672
928.151418	0.286911
928.330739	0.286158
928.510042	0.284697
928.689327	0.283864
928.868593	0.283042
929.047841	0.282015
929.227071	0.281954
929.406283	0.281050
929.585476	0.281005
929.764652	0.280169
929.943809	0.279724
930.122948	0.278911
930.302068	0.277870
930.481171	0.276990
930.660255	0.276055
930.839321	0.274623
931.018369	0.273543
931.197398	0.272041
931.376409	0.270681
931.555402	0.268762
931.734377	0.268324
931.913334	0.267038
932.092272	0.265563
932.271192	0.263994
932.450094	0.263467
932.628978	0.263390
932.807844	0.262545
932.986691	0.261669
933.165520	0.261366
933.344331	0.258647
933.523123	0.258343
933.701898	0.257631
933.880654	0.258332
934.059392	0.256010
934.238111	0.254284
934.416813	0.252672
934.595496	0.251248
934.774161	0.249209
934.952808	0.250260
935.131437	0.249272
935.310047	0.248442
935.488639	0.246097
935.667213	0.245731
935.845769	0.244657
936.024306	0.243745
936.202825	0.242545
936.381326	0.241386
936.559809	0.238950
936.738274	0.237591
936.916720	0.236097
937.095148	0.235055
937.273558	0.234097
937.451950	0.233236
937.630323	0.232088
937.808678	0.231182
937.987015	0.231742
938.165334	0.230917
938.343635	0.228750
938.521917	0.227890
938.700181	0.227086
938.878427	0.225828
939.056655	0.223885
939.234864	0.222831
939.413055	0.222394
939.591228	0.221065
939.769383	0.219863
939.947519	0.219701
940.125638	0.218294
940.303738	0.217197
940.481820	0.216239
940.659883	0.214691
940.837929	0.213471
941.015956	0.212408
941.193965	0.210585
941.371955	0.208644
941.549928	0.206461
941.727882	0.204633
941.905818	0.203017
942.083736	0.202073
942.261636	0.202422
942.439517	0.201958
942.617380	0.200377
942.795225	0.199790
942.973052	0.199769
943.150860	0.199234
943.328651	0.199182
943.506423	0.198586
943.684176	0.197477
943.861912	0.195672
944.039629	0.192905
944.217328	0.192052
944.395009	0.190407
944.572672	0.189573
944.750317	0.188883
944.927943	0.186866
945.105551	0.186471
945.283141	0.184735
945.460712	0.183264
945.638265	0.182177
945.815801	0.180567
945.993317	0.178647
946.170816	0.176610
946.348297	0.176140
946.525759	0.175065
946.703203	0.172842
946.880629	0.171506
947.058036	0.170895
947.235425	0.170625
947.412797	0.168106
947.590149	0.167115
947.767484	0.166086
947.944800	0.163668
948.122099	0.163138
948.299379	0.163582
948.476640	0.161959
948.653884	0.160897
948.831109	0.159895
949.008316	0.159055
949.185505	0.158556
949.362676	0.158122
949.539828	0.156716
949.716962	0.155441
949.894078	0.152480
950.071176	0.151402
950.248256	0.149833
950.425317	0.148529
950.602360	0.149388
950.779385	0.147791
950.956391	0.145130
951.133380	0.143989
951.310350	0.143362
951.487302	0.141469
951.664235	0.140093
951.841151	0.138904
952.018048	0.137835
952.194927	0.135714
952.371788	0.135079
952.548631	0.134510
952.725455	0.134771
952.902261	0.132734
953.079049	0.132645
953.255819	0.132757
953.432570	0.132467
953.609303	0.129834
953.786018	0.128801
953.962715	0.127791
954.139394	0.126319
954.316054	0.126048
954.492696	0.124629
954.669320	0.123024
954.845926	0.120747
955.022513	0.119390
955.199083	0.119812
955.375634	0.118088
955.552166	0.118035
955.728681	0.116911
955.905177	0.113902
956.081655	0.112944
956.258115	0.111454
956.434557	0.112726
956.610980	0.111480
956.787385	0.109982
956.963772	0.111280
957.140141	0.108393
957.316492	0.109495
957.492824	0.109418
957.669138	0.108816
957.845434	0.110049
958.021712	0.109158
958.197971	0.108615
958.374212	0.107191
958.550435	0.102812
958.726640	0.101718
958.902826	0.099379
959.078995	0.098231
959.255145	0.096649
959.431277	0.096025
959.607390	0.092446
959.783486	0.090390
959.959563	0.091310
960.135622	0.091011
960.311662	0.091445
960.487685	0.091313
960.663689	0.089508
960.839675	0.089701
961.015643	0.087767
961.191593	0.091120
961.367524	0.090967
961.543437	0.089146
961.719332	0.090326
961.895209	0.088477
962.071067	0.088014
962.246907	0.089860
962.422730	0.087950
962.598533	0.086759
962.774319	0.084284
962.950086	0.085129
963.125835	0.086047
963.301566	0.086314
963.477279	0.086785
963.652973	0.085828
963.828650	0.082517
964.004308	0.083417
964.179947	0.086137
964.355569	0.086722
964.531172	0.084945
964.706757	0.083431
964.882324	0.081819
965.057873	0.081507
965.233403	0.081657
965.408916	0.082411
965.584410	0.081097
965.759885	0.078709
965.935343	0.077540
966.110782	0.077350
966.286203	0.078373
966.461606	0.078557
966.636991	0.076898
966.812357	0.076848
966.987705	0.078175
967.163035	0.079291
967.338347	0.078014
967.513641	0.075483
967.688916	0.076833
967.864173	0.076066
968.039412	0.077022
968.214632	0.079427
968.389835	0.080393
968.565019	0.079668
968.740185	0.079195
968.915333	0.081718
969.090462	0.083551
969.265573	0.082930
969.440667	0.083968
969.615741	0.084014
969.790798	0.082951
969.965836	0.081857
970.140856	0.082414
970.315858	0.081982
970.490842	0.079925
970.665808	0.080274
970.840755	0.079523
971.015684	0.079784
971.190595	0.079074
971.365487	0.080791
971.540362	0.081789
971.715218	0.080530
971.890056	0.082155
972.064875	0.082547
972.239677	0.083039
972.414460	0.083414
972.589225	0.082451
972.763972	0.081442
972.938700	0.080640
973.113411	0.078228
973.288103	0.076955
973.462777	0.078097
973.637432	0.076643
973.812070	0.076439
973.986689	0.075737
974.161290	0.076680
974.335873	0.077389
974.510437	0.075596
974.684984	0.076932
974.859512	0.080102
975.034022	0.078383
975.208513	0.080176
975.382987	0.078566
975.557442	0.079094
975.731879	0.077159
975.906298	0.075672
976.080698	0.076121
976.255080	0.076009
976.429445	0.075136
976.603790	0.074490
976.778118	0.072955
976.952427	0.073707
977.126719	0.074165
977.300992	0.073227
977.475246	0.075125
977.649483	0.075934
977.823701	0.075200
977.997901	0.073616
978.172083	0.072906
978.346247	0.074398
978.520392	0.074941
978.694519	0.073538
978.868628	0.074280
979.042719	0.073946
979.216791	0.073701
979.390845	0.075702
979.564882	0.076744
979.738899	0.077588
979.912899	0.076455
980.086880	0.076667
980.260843	0.077752
980.434788	0.079620
980.608715	0.079819
980.782623	0.080914
980.956514	0.079231
981.130386	0.078891
981.304240	0.079528
981.478075	0.078642
981.651892	0.080731
981.825692	0.081642
981.999472	0.079315
982.173235	0.079383
982.346980	0.079461
982.520706	0.079933
982.694414	0.079295
982.868104	0.078535
983.041775	0.080632
983.215428	0.077089
983.389064	0.075844
983.562680	0.077183
983.736279	0.076836
983.909860	0.077287
984.083422	0.076983
984.256966	0.078511
984.430491	0.076252
984.603999	0.076109
984.777488	0.076801
984.950959	0.076352
985.124412	0.074116
985.297847	0.071891
985.471263	0.070449
985.644661	0.071744
985.818041	0.070650
985.991403	0.073195
986.164747	0.072951
986.338072	0.073898
986.511379	0.072922
986.684668	0.073047
986.857938	0.075037
987.031191	0.075062
987.204425	0.074264
987.377641	0.073991
987.550839	0.073854
987.724018	0.073864
987.897179	0.073214
988.070322	0.076315
988.243447	0.077042
988.416554	0.076190
988.589642	0.076980
988.762712	0.078492
988.935764	0.078131
989.108798	0.079071
989.281813	0.078194
989.454811	0.078537
989.627790	0.076725
989.800751	0.077242
989.973693	0.077421
990.146617	0.076017
990.319524	0.075203
990.492412	0.074858
990.665281	0.074034
990.838133	0.073979
991.010966	0.073566
991.183781	0.074345
991.356578	0.074588
991.529356	0.074573
991.702117	0.074246
991.874859	0.072315
992.047583	0.073426
992.220288	0.074280
992.392976	0.074957
992.565645	0.075795
992.738296	0.074533
992.910929	0.075846
993.083543	0.078679
993.256139	0.078106
993.428718	0.082080
993.601277	0.081196
993.773819	0.079151
993.946342	0.080269
994.118848	0.080814
994.291335	0.082311
994.463803	0.080415
994.636254	0.077934
994.808686	0.079710
994.981100	0.077333
995.153496	0.078188
995.325874	0.080900
995.498233	0.079992
995.670574	0.077833
995.842897	0.077352
996.015202	0.078635
996.187488	0.077526
996.359757	0.077293
996.532007	0.077047
996.704239	0.078300
996.876452	0.077165
997.048648	0.077761
997.220825	0.077198
997.392984	0.075849
997.565124	0.074316
997.737247	0.076251
997.909351	0.075486
998.081437	0.075527
998.253505	0.074547
998.425554	0.074571
998.597586	0.074104
998.769599	0.074977
998.941594	0.075634
999.113571	0.076814
999.285529	0.076132
999.457469	0.076286
999.629391	0.073936
999.801295	0.075001
999.973181	0.075452
1000.145048	0.075629
1000.316897	0.075102
1000.488728	0.074916
1000.660541	0.074673
1000.832335	0.075577
1001.004111	0.076847
1001.175869	0.079461
1001.347609	0.078946
1001.519331	0.077591
1001.691034	0.076297
1001.862719	0.078869
1002.034386	0.079446
1002.206035	0.079140
1002.377665	0.078942
1002.549277	0.078797
1002.720871	0.079121
1002.892447	0.078608
1003.064004	0.079899
1003.235544	0.079306
1003.407065	0.077159
1003.578568	0.076868
1003.750052	0.076166
1003.921519	0.076000
1004.092967	0.074717
1004.264397	0.072081
1004.435809	0.073220
1004.607202	0.072946
1004.778577	0.074494
1004.949934	0.075939
1005.121273	0.076780
1005.292594	0.077721
1005.463896	0.077708
1005.635180	0.077876
1005.806446	0.080325
1005.977694	0.078979
1006.148923	0.079164
1006.320135	0.079396
1006.491328	0.078071
1006.662503	0.077711
1006.833659	0.076572
1007.004798	0.075424
1007.175918	0.077678
1007.347020	0.077004
1007.518103	0.078458
1007.689169	0.077541
1007.860216	0.077529
1008.031245	0.077328
1008.202256	0.077114
1008.373248	0.078601
1008.544223	0.079358
1008.715179	0.077812
1008.886117	0.077631
1009.057036	0.074895
1009.227938	0.075433
1009.398821	0.074982
1009.569686	0.076073
1009.740533	0.076405
1009.911361	0.076477
1010.082172	0.075545
1010.252964	0.074449
1010.423738	0.075147
1010.594493	0.076983
1010.765231	0.075760
1010.935950	0.073860
1011.106651	0.071177
1011.277334	0.070156
1011.447998	0.068261
1011.618645	0.069445
1011.789273	0.069339
1011.959882	0.069009
1012.130474	0.068191
1012.301048	0.069000
1012.471603	0.070292
1012.642140	0.072401
1012.812658	0.072852
1012.983159	0.073138
1013.153641	0.071928
1013.324105	0.072928
1013.494551	0.071559
1013.664979	0.071674
1013.835388	0.072313
1014.005779	0.072802
1014.176152	0.072442
1014.346507	0.073978
1014.516843	0.074655
1014.687162	0.074335
1014.857462	0.073598
1015.027744	0.074930
1015.198007	0.075122
1015.368252	0.074955
1015.538480	0.074667
1015.708689	0.074482
1015.878879	0.074024
1016.049052	0.074605
1016.219206	0.074686
1016.389342	0.075215
1016.559460	0.076670
1016.729559	0.076162
1016.899641	0.076587
1017.069704	0.076709
1017.239749	0.078134
1017.409775	0.077557
1017.579784	0.077704
1017.749774	0.079892
1017.919746	0.079710
1018.089700	0.079333
1018.259635	0.079470
1018.429553	0.078468
1018.599452	0.078549
1018.769333	0.077452
1018.939195	0.075867
1019.109040	0.075621
1019.278866	0.073889
1019.448674	0.073721
1019.618464	0.072318
1019.788235	0.071812
1019.957989	0.072628
1020.127724	0.072228
1020.297441	0.073257
1020.467139	0.074352
1020.636820	0.074034
1020.806482	0.074136
1020.976126	0.075040
1021.145752	0.075586
1021.315359	0.076149
1021.484948	0.075501
1021.654519	0.076067
1021.824072	0.075373
1021.993607	0.076507
1022.163123	0.077949
1022.332621	0.078907
1022.502101	0.076627
1022.671563	0.076261
1022.841007	0.077674
1023.010432	0.077619
1023.179839	0.076459
1023.349228	0.074202
1023.518598	0.074010
1023.687951	0.072699
1023.857285	0.072927
1024.026601	0.075152
1024.195899	0.074766
1024.365178	0.075254
1024.534439	0.075238
1024.703682	0.076294
1024.872907	0.077254
1025.042114	0.075354
1025.211302	0.076940
1025.380472	0.075914
1025.549624	0.075256
1025.718758	0.075018
1025.887873	0.073242
1026.056970	0.073436
1026.226049	0.073079
1026.395110	0.074343
1026.564153	0.074993
1026.733177	0.072779
1026.902183	0.070463
1027.071171	0.070480
1027.240141	0.071689
1027.409092	0.072163
1027.578026	0.072041
1027.746940	0.073014
1027.915837	0.074261
1028.084716	0.074696
1028.253576	0.074464
1028.422418	0.078905
1028.591242	0.077438
1028.760048	0.076479
1028.928835	0.076833
1029.097604	0.077795
1029.266355	0.077843
1029.435088	0.077779
1029.603803	0.078533
1029.772499	0.078739
1029.941177	0.077674
1030.109837	0.077965
1030.278478	0.078396
1030.447102	0.076955
1030.615707	0.076719
1030.784294	0.077171
1030.952863	0.074932
1031.121413	0.074343
1031.289945	0.075788
1031.458460	0.075227
1031.626955	0.076620
1031.795433	0.075092
1031.963892	0.076055
1032.132334	0.074650
1032.300756	0.074527
1032.469161	0.074948
1032.637548	0.075681
1032.805916	0.076671
1032.974266	0.075613
1033.142598	0.075826
1033.310911	0.076875
1033.479207	0.077122
1033.647484	0.075315
1033.815743	0.075031
1033.983983	0.074802
1034.152206	0.074531
1034.320410	0.073097
1034.488596	0.074521
1034.656764	0.074540
1034.824914	0.075418
1034.993045	0.074427
1035.161158	0.078391
1035.329253	0.076850
1035.497330	0.077718
1035.665388	0.076763
1035.833428	0.076744
1036.001450	0.077309
1036.169454	0.078036
1036.337440	0.076650
1036.505407	0.077584
1036.673356	0.075167
1036.841287	0.074866
1037.009200	0.074960
1037.177094	0.075658
1037.344970	0.075441
1037.512828	0.073397
1037.680668	0.072630
1037.848489	0.072395
1038.016293	0.072352
1038.184078	0.072831
1038.351845	0.072460
1038.519593	0.072663
1038.687324	0.072939
1038.855036	0.073594
1039.022730	0.075035
1039.190406	0.075518
1039.358063	0.076552
1039.525702	0.075755
1039.693323	0.075017
1039.860926	0.077536
1040.028511	0.076588
1040.196077	0.075020
1040.363625	0.074992
1040.531155	0.074133
1040.698667	0.073622
1040.866161	0.072514
1041.033636	0.073776
1041.201093	0.076554
1041.368532	0.076056
1041.535952	0.077213
1041.703355	0.076945
1041.870739	0.075510
1042.038105	0.076316
1042.205452	0.076373
1042.372782	0.077697
1042.540093	0.077371
1042.707386	0.076160
1042.874661	0.076290
1043.041918	0.075800
1043.209156	0.077308
1043.376376	0.075955
1043.543578	0.074734
1043.710762	0.074532
1043.877927	0.074898
1044.045074	0.073950
1044.212203	0.073805
1044.379314	0.073116
1044.546407	0.072470
1044.713481	0.072234
1044.880537	0.074857
1045.047575	0.076811
1045.214595	0.076161
1045.381596	0.073401
1045.548579	0.073931
1045.715544	0.072671
1045.882491	0.072717
1046.049420	0.071970
1046.216330	0.070717
1046.383222	0.069668
1046.550096	0.068519
1046.716951	0.070934
1046.883789	0.073740
1047.050608	0.074580
1047.217409	0.074775
1047.384192	0.076185
1047.550956	0.078087
1047.717703	0.079400
1047.884431	0.080292
1048.051140	0.078688
1048.217832	0.076261
1048.384505	0.076355
1048.551161	0.074237
1048.717798	0.075791
1048.884416	0.075522
1049.051017	0.073980
1049.217599	0.073523
1049.384163	0.072667
1049.550709	0.073747
1049.717237	0.073934
1049.883746	0.072235
1050.050237	0.072436
1050.216710	0.070119
1050.383165	0.068374
1050.549601	0.067206
1050.716019	0.067581
1050.882420	0.065775
1051.048801	0.065791
1051.215165	0.064860
1051.381510	0.065053
1051.547837	0.065206
1051.714146	0.067100
1051.880437	0.067804
1052.046709	0.068167
1052.212964	0.068480
1052.379200	0.070156
1052.545417	0.068825
1052.711617	0.070700
1052.877798	0.071053
1053.043961	0.071183
1053.210106	0.071205
1053.376233	0.070445
1053.542341	0.071488
1053.708432	0.070117
1053.874504	0.071698
1054.040557	0.071325
1054.206593	0.070856
1054.372610	0.069515
1054.538609	0.070351
1054.704590	0.068392
1054.870553	0.068590
1055.036497	0.069211
1055.202424	0.069617
1055.368331	0.069861
1055.534221	0.070712
1055.700093	0.070497
1055.865946	0.072553
1056.031781	0.071701
1056.197598	0.073913
1056.363397	0.073943
1056.529177	0.074951
1056.694939	0.075827
1056.860683	0.074733
1057.026409	0.075279
1057.192116	0.072714
1057.357806	0.073128
1057.523477	0.073440
1057.689130	0.071728
1057.854764	0.072449
1058.020381	0.071928
1058.185979	0.070755
1058.351559	0.071278
1058.517120	0.071781
1058.682664	0.074463
1058.848189	0.074039
1059.013696	0.073902
1059.179185	0.075624
1059.344656	0.074881
1059.510108	0.074526
1059.675542	0.076469
1059.840958	0.077146
1060.006356	0.077226
1060.171735	0.075173
1060.337096	0.076047
1060.502439	0.076309
1060.667764	0.075861
1060.833071	0.078323
1060.998359	0.078211
1061.163629	0.078102
1061.328881	0.077980
1061.494115	0.078384
1061.659330	0.079930
1061.824527	0.077398
1061.989706	0.078317
1062.154867	0.078303
1062.320010	0.078013
1062.485134	0.078224
1062.650240	0.078018
1062.815328	0.077067
1062.980398	0.077189
1063.145449	0.077117
1063.310482	0.079166
1063.475497	0.076893
1063.640494	0.077712
1063.805473	0.075787
1063.970433	0.075252
1064.135375	0.075747
1064.300299	0.076997
1064.465204	0.075645
1064.630092	0.074745
1064.794961	0.074395
1064.959812	0.075537
1065.124645	0.075688
1065.289459	0.076569
1065.454256	0.076644
1065.619034	0.074969
1065.783793	0.072638
1065.948535	0.075421
1066.113258	0.076961
1066.277964	0.076323
1066.442651	0.077045
1066.607319	0.074388
1066.771970	0.073600
1066.936602	0.074565
1067.101216	0.074341
1067.265812	0.075915
1067.430389	0.075236
1067.594949	0.073848
1067.759490	0.075103
1067.924013	0.074799
1068.088518	0.077723
1068.253004	0.077232
1068.417472	0.075875
1068.581922	0.079101
1068.746354	0.079964
1068.910768	0.080146
1069.075163	0.081360
1069.239540	0.080392
1069.403899	0.079684
1069.568240	0.079654
1069.732562	0.080020
1069.896866	0.080383
1070.061152	0.076751
1070.225420	0.076103
1070.389670	0.074629
1070.553901	0.073563
1070.718114	0.073731
1070.882309	0.075677
1071.046486	0.075888
1071.210644	0.076703
1071.374784	0.076658
1071.538906	0.079242
1071.703010	0.078017
1071.867096	0.077854
1072.031163	0.079888
1072.195212	0.080167
1072.359243	0.079573
1072.523256	0.078652
1072.687250	0.078081
1072.851226	0.078013
1073.015184	0.075658
1073.179124	0.076640
1073.343045	0.080105
1073.506949	0.081612
1073.670834	0.082293
1073.834701	0.081731
1073.998549	0.081311
1074.162380	0.082960
1074.326192	0.083084
1074.489986	0.082924
1074.653761	0.081150
1074.817519	0.079063
1074.981258	0.079499
1075.144979	0.076368
1075.308682	0.077641
1075.472367	0.077076
1075.636033	0.076174
1075.799681	0.076797
1075.963311	0.077771
1076.126923	0.080749
1076.290516	0.079315
1076.454092	0.075664
1076.617649	0.079090
1076.781187	0.079218
1076.944708	0.081550
1077.108210	0.081028
1077.271695	0.081724
1077.435160	0.081511
1077.598608	0.079039
1077.762038	0.081740
1077.925449	0.083149
1078.088842	0.082571
1078.252217	0.083420
1078.415573	0.080066
1078.578912	0.081994
1078.742232	0.082694
1078.905534	0.085707
1079.068817	0.085357
1079.232083	0.085306
1079.395330	0.084866
1079.558559	0.084082
1079.721770	0.079698
1079.884962	0.081012
1080.048136	0.078309
1080.211293	0.077279
1080.374430	0.076288
1080.537550	0.078083
1080.700651	0.075887
1080.863735	0.076671
1081.026800	0.077625
1081.189846	0.079751
1081.352875	0.079673
1081.515885	0.080866
1081.678877	0.081670
1081.841851	0.081246
1082.004807	0.081204
1082.167744	0.083252
1082.330663	0.083321
1082.493564	0.082337
1082.656447	0.085776
1082.819312	0.086488
1082.982158	0.086648
1083.144986	0.086601
1083.307796	0.087049
1083.470587	0.087205
1083.633361	0.087937
1083.796116	0.087924
1083.958853	0.088668
1084.121571	0.087242
1084.284272	0.088057
1084.446954	0.087052
1084.609618	0.086681
1084.772264	0.088277
1084.934892	0.087590
1085.097501	0.086130
1085.260092	0.085377
1085.422665	0.085974
1085.585220	0.085346
1085.747756	0.084736
1085.910274	0.087044
1086.072774	0.089259
1086.235256	0.087477
1086.397720	0.086181
1086.560165	0.086826
1086.722592	0.090009
1086.885001	0.089107
1087.047392	0.087929
1087.209764	0.087891
1087.372119	0.086422
1087.534455	0.085976
1087.696772	0.085243
1087.859072	0.087438
1088.021353	0.086100
1088.183616	0.082020
1088.345861	0.083887
1088.508088	0.083622
1088.670296	0.083915
1088.832486	0.086477
1088.994658	0.086040
1089.156812	0.085220
1089.318948	0.087762
1089.481065	0.088422
1089.643164	0.093449
1089.805245	0.094049
1089.967308	0.098429
1090.129352	0.100347
1090.291378	0.099164
1090.453386	0.098825
1090.615376	0.097619
1090.777347	0.095738
1090.939301	0.095035
1091.101236	0.091985
1091.263153	0.091263
1091.425051	0.090402
1091.586932	0.087042
1091.748794	0.084484
1091.910638	0.086194
1092.072463	0.087588
1092.234271	0.086583
1092.396060	0.087204
1092.557831	0.086750
1092.719584	0.085828
1092.881319	0.083192
1093.043035	0.085376
1093.204733	0.087520
1093.366413	0.083076
1093.528075	0.084512
1093.689718	0.084538
1093.851343	0.085606
1094.012950	0.082573
1094.174539	0.080098
1094.336110	0.081350
1094.497662	0.081617
1094.659196	0.080439
1094.820712	0.082321
1094.982210	0.082110
1095.143689	0.082053
1095.305151	0.080957
1095.466594	0.082007
1095.628018	0.082552
1095.789425	0.079304
1095.950813	0.078786
1096.112183	0.079857
1096.273535	0.078944
1096.434869	0.079490
1096.596184	0.083329
1096.757482	0.085002
1096.918761	0.087555
1097.080021	0.090632
1097.241264	0.093412
1097.402488	0.093808
1097.563694	0.092451
1097.724882	0.092635
1097.886052	0.091395
1098.047203	0.086268
1098.208336	0.085475
1098.369451	0.085585
1098.530548	0.084430
1098.691627	0.085114
1098.852687	0.083025
1099.013729	0.085908
1099.174753	0.085539
1099.335758	0.085977
1099.496746	0.086831
1099.657715	0.083472
1099.818666	0.085886
1099.979599	0.087187
1100.140513	0.086599
1100.301409	0.086472
1100.462287	0.084821
1100.623147	0.085179
1100.783989	0.082575
1100.944812	0.081905
1101.105617	0.083225
1101.266404	0.081152
1101.427173	0.080759
1101.587923	0.080594
1101.748656	0.083087
1101.909370	0.083601
1102.070066	0.085595
1102.230743	0.088752
1102.391403	0.088023
1102.552044	0.091305
1102.712667	0.091125
1102.873271	0.095423
1103.033858	0.095976
1103.194426	0.094697
1103.354976	0.093026
1103.515508	0.091416
1103.676021	0.091159
1103.836517	0.095553
1103.996994	0.090792
1104.157453	0.091713
1104.317893	0.087835
1104.478316	0.087188
1104.638720	0.087076
1104.799106	0.088697
1104.959474	0.089661
1105.119823	0.091839
1105.280155	0.090819
1105.440468	0.096406
1105.600763	0.094669
1105.761039	0.092745
1105.921298	0.093527
1106.081538	0.095415
1106.241760	0.096120
1106.401964	0.095556
1106.562149	0.093960
1106.722316	0.094005
1106.882465	0.088516
1107.042596	0.088162
1107.202709	0.089811
1107.362803	0.089681
1107.522879	0.088216
1107.682937	0.087179
1107.842977	0.087004
1108.002999	0.085495
1108.163002	0.084688
1108.322987	0.090386
1108.482954	0.090869
1108.642902	0.090796
1108.802833	0.089020
1108.962745	0.090612
1109.122639	0.089382
1109.282515	0.091874
1109.442372	0.094259
1109.602211	0.093764
1109.762032	0.090635
1109.921835	0.090492
1110.081620	0.090377
1110.241386	0.092709
1110.401134	0.088820
1110.560864	0.090322
1110.720576	0.089158
1110.880269	0.085567
1111.039945	0.085684
1111.199602	0.089647
1111.359240	0.088187
1111.518861	0.087927
1111.678463	0.089776
1111.838047	0.091143
1111.997613	0.092861
1112.157161	0.093080
1112.316690	0.093993
1112.476202	0.093506
1112.635695	0.089543
1112.795169	0.089215
1112.954626	0.089303
1113.114064	0.090075
1113.273484	0.089506
1113.432886	0.087113
1113.592270	0.087308
1113.751635	0.090131
1113.910983	0.090405
1114.070312	0.092596
1114.229622	0.095769
1114.388915	0.094170
1114.548189	0.085018
1114.707445	0.086879
1114.866683	0.088662
1115.025903	0.087421
1115.185104	0.088993
1115.344287	0.091462
1115.503452	0.089725
1115.662599	0.089481
1115.821727	0.091405
1115.980838	0.097547
1116.139930	0.098593
1116.299004	0.098397
1116.458059	0.096060
1116.617097	0.093446
1116.776116	0.090175
1116.935117	0.091907
1117.094099	0.092468
1117.253064	0.090592
1117.412010	0.090970
1117.570938	0.092450
1117.729848	0.090324
1117.888740	0.093529
1118.047613	0.095000
1118.206468	0.096557
1118.365305	0.094479
1118.524124	0.091554
1118.682924	0.094544
1118.841707	0.091359
1119.000471	0.089871
1119.159216	0.086949
1119.317944	0.088252
1119.476653	0.087442
1119.635344	0.088503
1119.794017	0.089595
1119.952672	0.092826
1120.111308	0.094636
1120.269927	0.098316
1120.428527	0.093442
1120.587108	0.094547
1120.745672	0.093049
1120.904217	0.092801
1121.062744	0.091649
1121.221253	0.085612
1121.379744	0.089805
1121.538216	0.085532
1121.696671	0.083653
1121.855107	0.090504
1122.013524	0.092883
1122.171924	0.089388
1122.330305	0.088713
1122.488668	0.090600
1122.647013	0.095843
1122.805340	0.090947
1122.963648	0.093535
1123.121938	0.095420
1123.280210	0.090890
1123.438464	0.090244
1123.596700	0.095923
1123.754917	0.093920
1123.913116	0.089665
1124.071297	0.088494
1124.229459	0.090116
1124.387604	0.090098
1124.545730	0.091017
1124.703838	0.094852
1124.861928	0.094687
1125.019999	0.093796
1125.178052	0.096762
1125.336088	0.099976
1125.494104	0.102876
1125.652103	0.100696
1125.810083	0.097793
1125.968045	0.093213
1126.125989	0.091783
1126.283915	0.097453
1126.441823	0.095910
1126.599712	0.096842
1126.757583	0.093639
1126.915436	0.091431
1127.073270	0.089683
1127.231087	0.085913
1127.388885	0.087591
1127.546665	0.091768
1127.704426	0.089136
1127.862170	0.089887
1128.019895	0.086451
1128.177602	0.091287
1128.335291	0.089021
1128.492961	0.094069
1128.650614	0.098763
1128.808248	0.097946
1128.965864	0.093120
1129.123461	0.091719
1129.281041	0.091124
1129.438602	0.092611
1129.596145	0.091363
1129.753670	0.096640
1129.911176	0.092872
1130.068665	0.093463
1130.226135	0.096585
1130.383587	0.097876
1130.541020	0.095490
1130.698436	0.092088
1130.855833	0.096105
1131.013212	0.095051
1131.170573	0.094546
1131.327915	0.098689
1131.485239	0.097755
1131.642545	0.092648
1131.799833	0.088751
1131.957103	0.088915
1132.114354	0.089013
1132.271588	0.084838
1132.428803	0.082181
1132.585999	0.084270
1132.743178	0.079991
1132.900338	0.086391
1133.057480	0.089029
1133.214604	0.093902
1133.371710	0.095713
1133.528797	0.101852
1133.685866	0.102105
1133.842917	0.105965
1133.999950	0.099238
1134.156964	0.100281
1134.313960	0.094132
1134.470938	0.093249
1134.627898	0.090929
1134.784840	0.088920
1134.941763	0.086787
1135.098668	0.086231
1135.255555	0.084660
1135.412424	0.089316
1135.569274	0.086360
1135.726107	0.083823
1135.882921	0.085592
1136.039716	0.087871
1136.196494	0.092233
1136.353253	0.089606
1136.509995	0.090949
1136.666717	0.088922
1136.823422	0.084887
1136.980109	0.082865
1137.136777	0.085780
1137.293427	0.087185
1137.450059	0.086096
1137.606672	0.081575
1137.763267	0.084850
1137.919844	0.085608
1138.076403	0.083812
1138.232944	0.085364
1138.389466	0.089764
1138.545971	0.090543
1138.702457	0.087862
1138.858924	0.082947
1139.015374	0.083694
1139.171805	0.085068
1139.328218	0.085663
1139.484613	0.093468
1139.640990	0.092473
1139.797348	0.091996
1139.953688	0.089580
1140.110010	0.093549
1140.266314	0.095747
1140.422600	0.094767
1140.578867	0.088576
1140.735116	0.085722
1140.891347	0.077950
1141.047559	0.078144
1141.203754	0.078293
1141.359930	0.079695
1141.516088	0.078468
1141.672228	0.081341
1141.828349	0.087969
1141.984452	0.088491
1142.140537	0.090053
1142.296604	0.096710
1142.452653	0.094556
1142.608683	0.092797
1142.764695	0.092269
1142.920689	0.091036
1143.076665	0.086769
1143.232622	0.083566
1143.388562	0.087622
1143.544483	0.092649
1143.700385	0.087869
1143.856270	0.090550
1144.012136	0.095312
1144.167985	0.096810
1144.323814	0.092766
1144.479626	0.095405
1144.635420	0.095258
1144.791195	0.094786
1144.946952	0.085537
1145.102691	0.088026
1145.258411	0.083814
1145.414113	0.077751
1145.569798	0.079453
1145.725463	0.082370
1145.881111	0.083403
1146.036741	0.083147
1146.192352	0.081297
1146.347945	0.080650
1146.503519	0.080414
1146.659076	0.084748
1146.814614	0.084560
1146.970134	0.076259
1147.125636	0.075867
1147.281120	0.073322
1147.436585	0.069167
1147.592032	0.066309
1147.747461	0.073738
1147.902872	0.076200
1148.058265	0.081982
1148.213639	0.082350
1148.368995	0.082748
1148.524333	0.076823
1148.679653	0.079082
1148.834954	0.080705
1148.990237	0.083147
1149.145502	0.082459
1149.300749	0.081382
1149.455977	0.076372
1149.611188	0.078630
1149.766380	0.084946
1149.921553	0.089771
1150.076709	0.088429
1150.231846	0.092845
1150.386966	0.089906
1150.542066	0.087808
1150.697149	0.084385
1150.852214	0.085047
1151.007260	0.087582
1151.162288	0.081930
1151.317298	0.085840
1151.472289	0.086549
1151.627263	0.086590
1151.782218	0.090164
1151.937155	0.085935
1152.092073	0.087340
1152.246974	0.082508
1152.401856	0.078924
1152.556720	0.078516
1152.711566	0.077136
1152.866393	0.076003
1153.021203	0.072790
1153.175994	0.074551
1153.330767	0.076992
1153.485521	0.071389
1153.640258	0.079297
1153.794976	0.081436
1153.949676	0.081632
1154.104358	0.079121
1154.259021	0.078637
1154.413667	0.082756
1154.568294	0.077002
1154.722903	0.081224
1154.877493	0.088353
1155.032066	0.080875
1155.186620	0.079456
1155.341156	0.082265
1155.495674	0.085734
1155.650173	0.085115
1155.804654	0.080380
1155.959118	0.083560
1156.113562	0.075591
1156.267989	0.072143
1156.422397	0.074042
1156.576788	0.076869
1156.731160	0.081302
1156.885513	0.081610
1157.039849	0.079143
1157.194166	0.084097
1157.348465	0.087145
1157.502746	0.089070
1157.657009	0.091491
1157.811253	0.090572
1157.965479	0.089247
1158.119687	0.083783
1158.273877	0.083353
1158.428048	0.085985
1158.582201	0.086877
1158.736337	0.086009
1158.890453	0.081803
1159.044552	0.082464
1159.198632	0.081824
1159.352694	0.080478
1159.506738	0.082287
1159.660764	0.082263
1159.814771	0.076740
1159.968761	0.074732
1160.122732	0.074428
1160.276685	0.084708
1160.430619	0.081456
1160.584535	0.082106
1160.738434	0.085235
1160.892313	0.082962
1161.046175	0.087677
1161.200019	0.090824
1161.353844	0.084805
1161.507651	0.077924
1161.661440	0.077469
1161.815210	0.079666
1161.968962	0.079964
1162.122697	0.077400
1162.276412	0.074819
1162.430110	0.067459
1162.583789	0.073807
1162.737451	0.077590
1162.891094	0.081626
1163.044718	0.074103
1163.198325	0.076227
1163.351913	0.073278
1163.505483	0.075320
1163.659035	0.080140
1163.812569	0.079597
1163.966084	0.077434
1164.119581	0.073292
1164.273060	0.074439
1164.426521	0.078503
1164.579964	0.081469
1164.733388	0.083745
1164.886794	0.083953
1165.040182	0.085512
1165.193551	0.086644
1165.346903	0.084608
1165.500236	0.086468
1165.653551	0.083805
1165.806848	0.083200
1165.960126	0.073556
1166.113386	0.070150
1166.266628	0.065388
1166.419852	0.065297
1166.573058	0.065083
1166.726245	0.067410
1166.879414	0.071387
1167.032565	0.077665
1167.185698	0.075747
1167.338812	0.075821
1167.491909	0.073441
1167.644987	0.078677
1167.798046	0.076798
1167.951088	0.076504
1168.104111	0.071595
1168.257117	0.066144
1168.410103	0.060947
1168.563072	0.060328
1168.716023	0.067521
1168.868955	0.073172
1169.021869	0.068345
1169.174765	0.067479
1169.327642	0.066359
1169.480501	0.068702
1169.633343	0.067845
1169.786165	0.067346
1169.938970	0.067689
1170.091757	0.060757
1170.244525	0.066279
1170.397275	0.069597
1170.550007	0.065432
1170.702720	0.070186
1170.855415	0.062447
1171.008092	0.067823
1171.160751	0.071592
1171.313392	0.076149
1171.466014	0.007436
1171.618619	0.096681
1171.771205	0.096681
1171.923772	0.096681
