sample name	sample
index	994
start time	 04-14-2021  04:23:12 PM


Wavelength (nm)	Absorbance
494.344910	NaN
494.563924	NaN
494.782919	NaN
495.001897	0.138104
495.220856	0.657066
495.439797	0.207572
495.658719	0.218483
495.877624	0.110436
496.096510	0.247901
496.315378	0.070665
496.534227	-0.084722
496.753059	-0.205367
496.971872	-0.235345
497.190667	0.143534
497.409444	0.166253
497.628203	0.168521
497.846943	0.171051
498.065665	0.172225
498.284369	0.176534
498.503055	0.176382
498.721723	0.177479
498.940372	0.178329
499.159003	0.178032
499.377616	0.179529
499.596210	0.179826
499.814787	0.179525
500.033345	0.179526
500.251885	0.178397
500.470406	0.179509
500.688910	0.179216
500.907395	0.179346
501.125862	0.180024
501.344311	0.179127
501.562742	0.178378
501.781154	0.178896
501.999548	0.180128
502.217924	0.181939
502.436282	0.181263
502.654621	0.181642
502.872942	0.179665
503.091245	0.179190
503.309530	0.179516
503.527797	0.181421
503.746045	0.182734
503.964275	0.182398
504.182487	0.181357
504.400681	0.182606
504.618856	0.183028
504.837013	0.185081
505.055152	0.184923
505.273273	0.184323
505.491376	0.183821
505.709460	0.183502
505.927526	0.183025
506.145574	0.183215
506.363604	0.182586
506.581615	0.182274
506.799608	0.181967
507.017583	0.181842
507.235540	0.182793
507.453478	0.182569
507.671399	0.183129
507.889301	0.184429
508.107185	0.185383
508.325050	0.185564
508.542898	0.185272
508.760727	0.186086
508.978538	0.186699
509.196330	0.187831
509.414105	0.187982
509.631861	0.187447
509.849599	0.186862
510.067319	0.186190
510.285021	0.186183
510.502704	0.186355
510.720369	0.186778
510.938016	0.187707
511.155645	0.188663
511.373255	0.189110
511.590848	0.189770
511.808422	0.190030
512.025977	0.190545
512.243515	0.190317
512.461034	0.191189
512.678536	0.191724
512.896018	0.191608
513.113483	0.190244
513.330930	0.190585
513.548358	0.190702
513.765768	0.190486
513.983160	0.191159
514.200533	0.192340
514.417889	0.192767
514.635226	0.191874
514.852545	0.192526
515.069845	0.193690
515.287128	0.194772
515.504392	0.194696
515.721638	0.195742
515.938866	0.195494
516.156075	0.195239
516.373267	0.194805
516.590440	0.195182
516.807594	0.194771
517.024731	0.194990
517.241850	0.193967
517.458950	0.193549
517.676032	0.193728
517.893095	0.194254
518.110141	0.194864
518.327168	0.196246
518.544177	0.197367
518.761168	0.197541
518.978141	0.197190
519.195095	0.197758
519.412031	0.199282
519.628949	0.198604
519.845849	0.198660
520.062731	0.199309
520.279594	0.200086
520.496439	0.199987
520.713266	0.200730
520.930074	0.201117
521.146865	0.201401
521.363637	0.201250
521.580391	0.201940
521.797127	0.201441
522.013844	0.202225
522.230543	0.201624
522.447224	0.201974
522.663887	0.202770
522.880532	0.202191
523.097158	0.202357
523.313766	0.202646
523.530356	0.203543
523.746928	0.203846
523.963481	0.203946
524.180017	0.204953
524.396534	0.204713
524.613032	0.204607
524.829513	0.205785
525.045975	0.205779
525.262420	0.206167
525.478845	0.206310
525.695253	0.207771
525.911643	0.207473
526.128014	0.206703
526.344367	0.207493
526.560702	0.207797
526.777018	0.208614
526.993316	0.209999
527.209597	0.209959
527.425858	0.209890
527.642102	0.209799
527.858328	0.210885
528.074535	0.211357
528.290724	0.211696
528.506894	0.212008
528.723047	0.212191
528.939181	0.212592
529.155297	0.213595
529.371395	0.214124
529.587475	0.215421
529.803536	0.215228
530.019579	0.215320
530.235604	0.215860
530.451611	0.216373
530.667600	0.216423
530.883570	0.215891
531.099522	0.215626
531.315456	0.215722
531.531372	0.215238
531.747269	0.215750
531.963148	0.216664
532.179009	0.217190
532.394852	0.217274
532.610676	0.217655
532.826482	0.218198
533.042271	0.218866
533.258040	0.219721
533.473792	0.220321
533.689525	0.220819
533.905240	0.221019
534.120937	0.220923
534.336616	0.221170
534.552277	0.221994
534.767919	0.222715
534.983543	0.223005
535.199149	0.222924
535.414736	0.223234
535.630306	0.223691
535.845857	0.224385
536.061390	0.224651
536.276904	0.225125
536.492401	0.224805
536.707879	0.224849
536.923339	0.225564
537.138781	0.226064
537.354204	0.226135
537.569610	0.225631
537.784997	0.225766
538.000366	0.226215
538.215716	0.226733
538.431049	0.227672
538.646363	0.228504
538.861659	0.228595
539.076937	0.229018
539.292196	0.229291
539.507438	0.230155
539.722661	0.230160
539.937866	0.230356
540.153052	0.230685
540.368221	0.230239
540.583371	0.230232
540.798503	0.231291
541.013617	0.231712
541.228712	0.232120
541.443789	0.232234
541.658848	0.232275
541.873889	0.233036
542.088912	0.233205
542.303916	0.234325
542.518902	0.235294
542.733870	0.234978
542.948820	0.235233
543.163752	0.235775
543.378665	0.235942
543.593560	0.237128
543.808437	0.237934
544.023295	0.238264
544.238136	0.238855
544.452958	0.238383
544.667762	0.238907
544.882548	0.239132
545.097315	0.239278
545.312064	0.239810
545.526795	0.240611
545.741508	0.240322
545.956203	0.240728
546.170879	0.240511
546.385537	0.241147
546.600177	0.241460
546.814799	0.241805
547.029402	0.241951
547.243988	0.242571
547.458555	0.242270
547.673103	0.242311
547.887634	0.242458
548.102146	0.242744
548.316640	0.242882
548.531116	0.242425
548.745574	0.243305
548.960013	0.243689
549.174435	0.243935
549.388838	0.243821
549.603222	0.244019
549.817589	0.244266
550.031937	0.244758
550.246267	0.245350
550.460579	0.246251
550.674873	0.246233
550.889148	0.246574
551.103405	0.247023
551.317644	0.247353
551.531865	0.248558
551.746068	0.249458
551.960252	0.249435
552.174418	0.249291
552.388566	0.249662
552.602696	0.249616
552.816807	0.250143
553.030900	0.250193
553.244975	0.250428
553.459032	0.250199
553.673070	0.250258
553.887091	0.250560
554.101093	0.251144
554.315077	0.251235
554.529042	0.251366
554.742990	0.252089
554.956919	0.252747
555.170830	0.252519
555.384722	0.253106
555.598597	0.253137
555.812453	0.253586
556.026291	0.253615
556.240111	0.253727
556.453913	0.253890
556.667696	0.253396
556.881461	0.253174
557.095208	0.254358
557.308937	0.254204
557.522647	0.254397
557.736339	0.254406
557.950013	0.254709
558.163669	0.255400
558.377307	0.255727
558.590926	0.256323
558.804527	0.256760
559.018110	0.256492
559.231675	0.256915
559.445221	0.257101
559.658749	0.257755
559.872259	0.257903
560.085751	0.257712
560.299225	0.258737
560.512680	0.258451
560.726117	0.258373
560.939536	0.259111
561.152937	0.258929
561.366319	0.259270
561.579683	0.259104
561.793029	0.259455
562.006357	0.259557
562.219667	0.259033
562.432958	0.259734
562.646231	0.259920
562.859486	0.259714
563.072723	0.260552
563.285941	0.260753
563.499141	0.260945
563.712323	0.261083
563.925487	0.261480
564.138632	0.261559
564.351760	0.261704
564.564869	0.261894
564.777960	0.262558
564.991032	0.262408
565.204087	0.263012
565.417123	0.263101
565.630141	0.263595
565.843140	0.264245
566.056122	0.264543
566.269085	0.264416
566.482030	0.264904
566.694957	0.264864
566.907866	0.264990
567.120756	0.264760
567.333628	0.264857
567.546482	0.264843
567.759318	0.264484
567.972135	0.264774
568.184935	0.265078
568.397716	0.265306
568.610478	0.265740
568.823223	0.266033
569.035949	0.266413
569.248657	0.266810
569.461347	0.267445
569.674019	0.267537
569.886672	0.267776
570.099308	0.267771
570.311925	0.267657
570.524523	0.267911
570.737104	0.268180
570.949666	0.268674
571.162210	0.268422
571.374736	0.267973
571.587244	0.268506
571.799733	0.268503
572.012205	0.268736
572.224658	0.268833
572.437092	0.268414
572.649509	0.268169
572.861907	0.268006
573.074287	0.268806
573.286649	0.269495
573.498993	0.269839
573.711318	0.270186
573.923625	0.270536
574.135914	0.271098
574.348185	0.271735
574.560438	0.272242
574.772672	0.272568
574.984888	0.272590
575.197086	0.272427
575.409266	0.272283
575.621427	0.272527
575.833570	0.272700
576.045695	0.272871
576.257802	0.273009
576.469890	0.273267
576.681961	0.273384
576.894013	0.273554
577.106046	0.273591
577.318062	0.273883
577.530059	0.273920
577.742039	0.273855
577.954000	0.274158
578.165942	0.274392
578.377867	0.274373
578.589773	0.274412
578.801661	0.274702
579.013531	0.274817
579.225382	0.274692
579.437216	0.274526
579.649031	0.275094
579.860828	0.275241
580.072606	0.275234
580.284367	0.275735
580.496109	0.276110
580.707833	0.276311
580.919539	0.276364
581.131227	0.277418
581.342896	0.278255
581.554547	0.278145
581.766180	0.278320
581.977795	0.278473
582.189391	0.278523
582.400969	0.278629
582.612529	0.278792
582.824071	0.279365
583.035595	0.279138
583.247100	0.279263
583.458587	0.280337
583.670056	0.280616
583.881506	0.280842
584.092939	0.280867
584.304353	0.281298
584.515749	0.281499
584.727127	0.281484
584.938486	0.281504
585.149828	0.281662
585.361151	0.281347
585.572456	0.281398
585.783742	0.281580
585.995011	0.281696
586.206261	0.281989
586.417493	0.281987
586.628706	0.282514
586.839902	0.283024
587.051079	0.283604
587.262238	0.283849
587.473379	0.284082
587.684502	0.284459
587.895606	0.284753
588.106692	0.284459
588.317760	0.285038
588.528810	0.284906
588.739841	0.284670
588.950855	0.284317
589.161850	0.284025
589.372827	0.284315
589.583785	0.284662
589.794726	0.284883
590.005648	0.285417
590.216552	0.285289
590.427437	0.285946
590.638305	0.286483
590.849154	0.287148
591.059985	0.287505
591.270798	0.287909
591.481592	0.287854
591.692369	0.288041
591.903127	0.287736
592.113867	0.288144
592.324588	0.288174
592.535292	0.288460
592.745977	0.288210
592.956644	0.288661
593.167293	0.288419
593.377923	0.288504
593.588536	0.288890
593.799130	0.289419
594.009706	0.289582
594.220263	0.289539
594.430803	0.289702
594.641324	0.289891
594.851827	0.290071
595.062312	0.290422
595.272778	0.290610
595.483227	0.290504
595.693657	0.290366
595.904069	0.290880
596.114462	0.291247
596.324838	0.290710
596.535195	0.291173
596.745534	0.291398
596.955855	0.291542
597.166157	0.291642
597.376441	0.292148
597.586707	0.292460
597.796955	0.292351
598.007185	0.292973
598.217396	0.293613
598.427589	0.293864
598.637764	0.294192
598.847921	0.294389
599.058060	0.294584
599.268180	0.294717
599.478282	0.294955
599.688366	0.295229
599.898431	0.294968
600.108479	0.295229
600.318508	0.294939
600.528519	0.294719
600.738511	0.294778
600.948486	0.294981
601.158442	0.295079
601.368380	0.295198
601.578300	0.295180
601.788202	0.295422
601.998085	0.295689
602.207950	0.296005
602.417797	0.296084
602.627626	0.296332
602.837436	0.296930
603.047228	0.296974
603.257002	0.297013
603.466758	0.297144
603.676496	0.297347
603.886215	0.297482
604.095916	0.297791
604.305599	0.298303
604.515264	0.298399
604.724910	0.298417
604.934538	0.298898
605.144148	0.299343
605.353740	0.299824
605.563314	0.299585
605.772869	0.299639
605.982406	0.299664
606.191925	0.299892
606.401425	0.300026
606.610908	0.300047
606.820372	0.300180
607.029818	0.300393
607.239246	0.300315
607.448655	0.300972
607.658047	0.301072
607.867420	0.301067
608.076775	0.301293
608.286111	0.301579
608.495430	0.301880
608.704730	0.301749
608.914012	0.301807
609.123275	0.301903
609.332521	0.301792
609.541748	0.301957
609.750957	0.302473
609.960148	0.302245
610.169321	0.302266
610.378475	0.302399
610.587611	0.303054
610.796729	0.303191
611.005829	0.303301
611.214910	0.303794
611.423974	0.303884
611.633019	0.304004
611.842045	0.304356
612.051054	0.304763
612.260044	0.304641
612.469017	0.304589
612.677970	0.304727
612.886906	0.304781
613.095824	0.304753
613.304723	0.304862
613.513604	0.305304
613.722467	0.305215
613.931311	0.305209
614.140138	0.305461
614.348946	0.305492
614.557736	0.305612
614.766507	0.305912
614.975261	0.305836
615.183996	0.305849
615.392713	0.305796
615.601412	0.306231
615.810092	0.306406
616.018754	0.306782
616.227399	0.306700
616.436024	0.306942
616.644632	0.307317
616.853222	0.307786
617.061793	0.308550
617.270346	0.308527
617.478880	0.308562
617.687397	0.308998
617.895895	0.309304
618.104375	0.309608
618.312837	0.309918
618.521281	0.309875
618.729706	0.310035
618.938113	0.310047
619.146502	0.310292
619.354873	0.310676
619.563226	0.310731
619.771560	0.311077
619.979876	0.311468
620.188174	0.311560
620.396453	0.311836
620.604715	0.312138
620.812958	0.312224
621.021183	0.312511
621.229390	0.312288
621.437578	0.312677
621.645748	0.312585
621.853900	0.312481
622.062034	0.312565
622.270150	0.312737
622.478247	0.312673
622.686326	0.312773
622.894387	0.312924
623.102430	0.313414
623.310454	0.313351
623.518461	0.313114
623.726449	0.313670
623.934418	0.314025
624.142370	0.314055
624.350303	0.314416
624.558218	0.314587
624.766115	0.315015
624.973994	0.315193
625.181855	0.315381
625.389697	0.316176
625.597521	0.316199
625.805327	0.316150
626.013114	0.316388
626.220883	0.316345
626.428634	0.316625
626.636367	0.316578
626.844082	0.316719
627.051778	0.316901
627.259457	0.316658
627.467117	0.316878
627.674758	0.317114
627.882382	0.317264
628.089987	0.317626
628.297574	0.317772
628.505143	0.317824
628.712694	0.318087
628.920226	0.318100
629.127740	0.318328
629.335236	0.318647
629.542714	0.318708
629.750174	0.319417
629.957615	0.319353
630.165038	0.319534
630.372443	0.319772
630.579829	0.319634
630.787198	0.319640
630.994548	0.319963
631.201880	0.319799
631.409194	0.320096
631.616489	0.320190
631.823766	0.320487
632.031025	0.320429
632.238266	0.320668
632.445489	0.321400
632.652693	0.321799
632.859879	0.321639
633.067047	0.322001
633.274197	0.322239
633.481329	0.322113
633.688442	0.322193
633.895537	0.322554
634.102614	0.322503
634.309672	0.322376
634.516713	0.322710
634.723735	0.323101
634.930739	0.323072
635.137724	0.323170
635.344692	0.323380
635.551641	0.323815
635.758572	0.324026
635.965485	0.324202
636.172379	0.324382
636.379256	0.324199
636.586114	0.324513
636.792954	0.324695
636.999775	0.324855
637.206579	0.324883
637.413364	0.324619
637.620131	0.324876
637.826880	0.325172
638.033610	0.325323
638.240323	0.325845
638.447017	0.326080
638.653692	0.326345
638.860350	0.326377
639.066990	0.326723
639.273611	0.327394
639.480214	0.327630
639.686798	0.327810
639.893365	0.328031
640.099913	0.328352
640.306443	0.328279
640.512955	0.328544
640.719449	0.329021
640.925924	0.329226
641.132381	0.329132
641.338820	0.329082
641.545241	0.329449
641.751644	0.329449
641.958028	0.329450
642.164394	0.329689
642.370742	0.329558
642.577071	0.329660
642.783383	0.330010
642.989676	0.330223
643.195951	0.330649
643.402207	0.331077
643.608446	0.331339
643.814666	0.331507
644.020868	0.331764
644.227052	0.332388
644.433218	0.332579
644.639365	0.332736
644.845494	0.332817
645.051605	0.333219
645.257698	0.333145
645.463772	0.333190
645.669828	0.333441
645.875866	0.333545
646.081886	0.333741
646.287888	0.333752
646.493871	0.334030
646.699836	0.334479
646.905783	0.334417
647.111712	0.334595
647.317622	0.335040
647.523514	0.335140
647.729388	0.335733
647.935244	0.335859
648.141082	0.336263
648.346901	0.336427
648.552702	0.336558
648.758485	0.336595
648.964250	0.336793
649.169996	0.337056
649.375724	0.337358
649.581434	0.337257
649.787126	0.337776
649.992800	0.338018
650.198455	0.338236
650.404092	0.338486
650.609711	0.338964
650.815311	0.339215
651.020894	0.339359
651.226458	0.339458
651.432004	0.339697
651.637532	0.339410
651.843041	0.339802
652.048532	0.339661
652.254006	0.340053
652.459460	0.340267
652.664897	0.340540
652.870315	0.340658
653.075716	0.340833
653.281097	0.341056
653.486461	0.341393
653.691807	0.341537
653.897134	0.342009
654.102443	0.342140
654.307734	0.342249
654.513006	0.342386
654.718261	0.342475
654.923497	0.342569
655.128715	0.342837
655.333915	0.343285
655.539096	0.343602
655.744259	0.343883
655.949404	0.343730
656.154531	0.344029
656.359640	0.344093
656.564730	0.344727
656.769802	0.345281
656.974856	0.345532
657.179892	0.345374
657.384909	0.345265
657.589908	0.345254
657.794889	0.345975
657.999852	0.346301
658.204797	0.346810
658.409723	0.346833
658.614631	0.346949
658.819521	0.347517
659.024393	0.348125
659.229246	0.348662
659.434081	0.349005
659.638898	0.348901
659.843697	0.349037
660.048478	0.349307
660.253240	0.349525
660.457984	0.349939
660.662710	0.350004
660.867417	0.350211
661.072107	0.350449
661.276778	0.350670
661.481431	0.351121
661.686066	0.351383
661.890682	0.351619
662.095281	0.352001
662.299861	0.352244
662.504422	0.352406
662.708966	0.352518
662.913491	0.352633
663.117999	0.352898
663.322488	0.352897
663.526958	0.352997
663.731411	0.353013
663.935845	0.353001
664.140261	0.353147
664.344659	0.353229
664.549038	0.353634
664.753400	0.353907
664.957743	0.354317
665.162068	0.354623
665.366375	0.355209
665.570663	0.355358
665.774933	0.355965
665.979185	0.356188
666.183419	0.356515
666.387635	0.356960
666.591832	0.357166
666.796011	0.357200
667.000172	0.357555
667.204315	0.357555
667.408439	0.357935
667.612545	0.358310
667.816634	0.358617
668.020703	0.358940
668.224755	0.358919
668.428788	0.359279
668.632803	0.359528
668.836800	0.359921
669.040779	0.360337
669.244739	0.360764
669.448681	0.360776
669.652605	0.360861
669.856511	0.360870
670.060399	0.361021
670.264268	0.361093
670.468119	0.361349
670.671952	0.361442
670.875767	0.361344
671.079563	0.361026
671.283341	0.361283
671.487101	0.361590
671.690843	0.362031
671.894567	0.362084
672.098272	0.362529
672.301959	0.362796
672.505628	0.363212
672.709278	0.363571
672.912911	0.364362
673.116525	0.364540
673.320121	0.364967
673.523699	0.365011
673.727258	0.365679
673.930799	0.365931
674.134322	0.366233
674.337827	0.366426
674.541314	0.366659
674.744782	0.366772
674.948232	0.366972
675.151664	0.367235
675.355078	0.367639
675.558474	0.367897
675.761851	0.368324
675.965210	0.368362
676.168551	0.368391
676.371873	0.368730
676.575178	0.369031
676.778464	0.369187
676.981732	0.369196
677.184981	0.369578
677.388213	0.369443
677.591426	0.369335
677.794621	0.369846
677.997798	0.370215
678.200956	0.370422
678.404097	0.370929
678.607219	0.371407
678.810323	0.371887
679.013408	0.371737
679.216476	0.372209
679.419525	0.372259
679.622556	0.372406
679.825569	0.372697
680.028563	0.372914
680.231540	0.372940
680.434498	0.373200
680.637438	0.373437
680.840359	0.373611
681.043263	0.373850
681.246148	0.374359
681.449015	0.374574
681.651864	0.374467
681.854694	0.374789
682.057506	0.375168
682.260301	0.375283
682.463076	0.375371
682.665834	0.375694
682.868573	0.376024
683.071295	0.376223
683.273998	0.376504
683.476682	0.377226
683.679349	0.377450
683.881997	0.377809
684.084627	0.378021
684.287239	0.378184
684.489833	0.378629
684.692408	0.378648
684.894965	0.379003
685.097504	0.379311
685.300025	0.379490
685.502527	0.379664
685.705012	0.379537
685.907478	0.379909
686.109925	0.380104
686.312355	0.380325
686.514766	0.380821
686.717159	0.380738
686.919534	0.381174
687.121891	0.381290
687.324230	0.381298
687.526550	0.381582
687.728852	0.381780
687.931136	0.381937
688.133401	0.382162
688.335649	0.382268
688.537878	0.382647
688.740089	0.382662
688.942281	0.382785
689.144456	0.383252
689.346612	0.383279
689.548750	0.383188
689.750870	0.383313
689.952971	0.383472
690.155055	0.383393
690.357120	0.383354
690.559167	0.383291
690.761195	0.383601
690.963206	0.383710
691.165198	0.384212
691.367172	0.384642
691.569128	0.385233
691.771065	0.385584
691.972984	0.386168
692.174885	0.386563
692.376768	0.387025
692.578633	0.387212
692.780479	0.387458
692.982308	0.387338
693.184118	0.387720
693.385909	0.387837
693.587683	0.387872
693.789438	0.387886
693.991175	0.388146
694.192894	0.388272
694.394595	0.388213
694.596277	0.388488
694.797941	0.388807
694.999587	0.388732
695.201215	0.388793
695.402824	0.388612
695.604416	0.388707
695.805989	0.388913
696.007543	0.388988
696.209080	0.389017
696.410598	0.389037
696.612099	0.388936
696.813580	0.389121
697.015044	0.389039
697.216490	0.389270
697.417917	0.389324
697.619326	0.389299
697.820717	0.389269
698.022089	0.389662
698.223444	0.389967
698.424780	0.390361
698.626098	0.390746
698.827397	0.390975
699.028679	0.391394
699.229942	0.391811
699.431187	0.392202
699.632414	0.392315
699.833622	0.392669
700.034813	0.392715
700.235985	0.392612
700.437139	0.392558
700.638274	0.392763
700.839392	0.392983
701.040491	0.393179
701.241572	0.393078
701.442635	0.393283
701.643679	0.393237
701.844706	0.393194
702.045714	0.393460
702.246704	0.393436
702.447675	0.393561
702.648629	0.393520
702.849564	0.393476
703.050481	0.393677
703.251380	0.393803
703.452260	0.394150
703.653122	0.394428
703.853966	0.394660
704.054792	0.395068
704.255600	0.395176
704.456389	0.395400
704.657160	0.395464
704.857913	0.395268
705.058648	0.395650
705.259365	0.395551
705.460063	0.395706
705.660743	0.395645
705.861405	0.395227
706.062048	0.395198
706.262674	0.394996
706.463281	0.394834
706.663870	0.395258
706.864441	0.394896
707.064993	0.394634
707.265527	0.394586
707.466043	0.394758
707.666541	0.395204
707.867021	0.395301
708.067482	0.395280
708.267925	0.395457
708.468350	0.395564
708.668757	0.395780
708.869145	0.396381
709.069516	0.396399
709.269868	0.396529
709.470201	0.396265
709.670517	0.396443
709.870814	0.396763
710.071093	0.396725
710.271354	0.396404
710.471597	0.396566
710.671821	0.396407
710.872028	0.396115
711.072216	0.395655
711.272385	0.395949
711.472537	0.396166
711.672670	0.395993
711.872785	0.396098
712.072882	0.396303
712.272961	0.396007
712.473021	0.395710
712.673063	0.395718
712.873087	0.395860
713.073093	0.395705
713.273081	0.395222
713.473050	0.395427
713.673001	0.395165
713.872934	0.395084
714.072849	0.395105
714.272745	0.395338
714.472623	0.395512
714.672483	0.395538
714.872325	0.395632
715.072148	0.395720
715.271954	0.395695
715.471741	0.395808
715.671509	0.395795
715.871260	0.395604
716.070992	0.395209
716.270707	0.395211
716.470403	0.395202
716.670080	0.394840
716.869740	0.394670
717.069381	0.394360
717.269004	0.394203
717.468609	0.393982
717.668195	0.394195
717.867764	0.393856
718.067314	0.393545
718.266846	0.393342
718.466360	0.393380
718.665855	0.393121
718.865332	0.392910
719.064791	0.392842
719.264232	0.392676
719.463655	0.392437
719.663059	0.392810
719.862445	0.392500
720.061813	0.392598
720.261163	0.392222
720.460494	0.392448
720.659807	0.392505
720.859102	0.392351
721.058379	0.392478
721.257638	0.392313
721.456878	0.392351
721.656100	0.392552
721.855304	0.392322
722.054490	0.392629
722.253657	0.392628
722.452806	0.392683
722.651937	0.392580
722.851050	0.392069
723.050145	0.391913
723.249221	0.391484
723.448279	0.391747
723.647319	0.391445
723.846340	0.391124
724.045344	0.390805
724.244329	0.390508
724.443296	0.390448
724.642245	0.390548
724.841175	0.390662
725.040088	0.390986
725.238982	0.390343
725.437857	0.390205
725.636715	0.390164
725.835554	0.389952
726.034376	0.389820
726.233179	0.389871
726.431963	0.389869
726.630730	0.389310
726.829478	0.388981
727.028208	0.388982
727.226920	0.388958
727.425614	0.388607
727.624289	0.388672
727.822946	0.388482
728.021585	0.388136
728.220206	0.387675
728.418808	0.387721
728.617392	0.387632
728.815958	0.387355
729.014506	0.387301
729.213036	0.387116
729.411547	0.386777
729.610040	0.386682
729.808515	0.386441
730.006972	0.386298
730.205410	0.386282
730.403831	0.385832
730.602233	0.385640
730.800616	0.385222
730.998982	0.384737
731.197329	0.384242
731.395658	0.383711
731.593969	0.383536
731.792262	0.383473
731.990536	0.383151
732.188793	0.382894
732.387031	0.382677
732.585250	0.382641
732.783452	0.382978
732.981635	0.383077
733.179800	0.383274
733.377947	0.382889
733.576076	0.382420
733.774186	0.382316
733.972278	0.382085
734.170352	0.382034
734.368408	0.381604
734.566446	0.381146
734.764465	0.380873
734.962466	0.380245
735.160449	0.380015
735.358413	0.380052
735.556360	0.379654
735.754288	0.379353
735.952198	0.378843
736.150090	0.378849
736.347963	0.378677
736.545818	0.378571
736.743655	0.378573
736.941474	0.378595
737.139275	0.378429
737.337057	0.378194
737.534821	0.378047
737.732567	0.378160
737.930295	0.378004
738.128005	0.377791
738.325696	0.377325
738.523369	0.377001
738.721024	0.376899
738.918660	0.376528
739.116279	0.376089
739.313879	0.375824
739.511461	0.375582
739.709024	0.375043
739.906570	0.374622
740.104097	0.374744
740.301606	0.374469
740.499097	0.374156
740.696569	0.373830
740.894024	0.373956
741.091460	0.373652
741.288878	0.373169
741.486277	0.372867
741.683659	0.372526
741.881022	0.371798
742.078367	0.371619
742.275694	0.371063
742.473002	0.370976
742.670293	0.370560
742.867565	0.370372
743.064819	0.369990
743.262054	0.369770
743.459272	0.369799
743.656471	0.369828
743.853652	0.369568
744.050815	0.369480
744.247959	0.369227
744.445085	0.368928
744.642194	0.369013
744.839283	0.368960
745.036355	0.368657
745.233408	0.368550
745.430444	0.368428
745.627461	0.368217
745.824459	0.367881
746.021440	0.367706
746.218402	0.367722
746.415346	0.366893
746.612272	0.366520
746.809180	0.366286
747.006069	0.365909
747.202940	0.365553
747.399793	0.365282
747.596628	0.365216
747.793444	0.364836
747.990243	0.364233
748.187023	0.364145
748.383784	0.364283
748.580528	0.364179
748.777253	0.364140
748.973960	0.363917
749.170649	0.363684
749.367320	0.363343
749.563973	0.363161
749.760607	0.363033
749.957223	0.362886
750.153821	0.362114
750.350400	0.361969
750.546962	0.361657
750.743505	0.361559
750.940030	0.361226
751.136536	0.361264
751.333025	0.360796
751.529495	0.360988
751.725947	0.360881
751.922381	0.361087
752.118796	0.360950
752.315194	0.360557
752.511573	0.360173
752.707934	0.360315
752.904276	0.359813
753.100601	0.359698
753.296907	0.359065
753.493195	0.358897
753.689465	0.358669
753.885716	0.358148
754.081949	0.357941
754.278164	0.357584
754.474361	0.357123
754.670540	0.357021
754.866700	0.356786
755.062843	0.356499
755.258967	0.356183
755.455072	0.355816
755.651160	0.356039
755.847229	0.355958
756.043280	0.355708
756.239313	0.355611
756.435328	0.355070
756.631324	0.355193
756.827302	0.354960
757.023262	0.354562
757.219204	0.354402
757.415127	0.354016
757.611033	0.353649
757.806920	0.353537
758.002788	0.353299
758.198639	0.353435
758.394471	0.353137
758.590286	0.353169
758.786081	0.353175
758.981859	0.352812
759.177619	0.352673
759.373360	0.352313
759.569083	0.352070
759.764788	0.352142
759.960474	0.351683
760.156143	0.351478
760.351793	0.351328
760.547425	0.351223
760.743038	0.351027
760.938634	0.350626
761.134211	0.350710
761.329770	0.350848
761.525311	0.350231
761.720833	0.350187
761.916338	0.350054
762.111824	0.349659
762.307292	0.349199
762.502741	0.349489
762.698173	0.349513
762.893586	0.349111
763.088981	0.348600
763.284358	0.348585
763.479716	0.348387
763.675057	0.348074
763.870379	0.348165
764.065683	0.348448
764.260968	0.347960
764.456236	0.347836
764.651485	0.347968
764.846716	0.347967
765.041929	0.347914
765.237123	0.348168
765.432299	0.348004
765.627457	0.347737
765.822597	0.347425
766.017719	0.347261
766.212822	0.346880
766.407907	0.346878
766.602974	0.346746
766.798023	0.346680
766.993054	0.346267
767.188066	0.346180
767.383060	0.345734
767.578036	0.345459
767.772993	0.345391
767.967933	0.345355
768.162854	0.344991
768.357757	0.344849
768.552642	0.344525
768.747508	0.344583
768.942356	0.344498
769.137186	0.344774
769.331998	0.344746
769.526792	0.344624
769.721567	0.344637
769.916324	0.344577
770.111063	0.344303
770.305784	0.344052
770.500486	0.343738
770.695171	0.343701
770.889837	0.343602
771.084484	0.343447
771.279114	0.343483
771.473725	0.343319
771.668318	0.343336
771.862893	0.343703
772.057450	0.343881
772.251988	0.343915
772.446509	0.343727
772.641011	0.343558
772.835494	0.343464
773.029960	0.343114
773.224407	0.343364
773.418836	0.343274
773.613247	0.343074
773.807640	0.342731
774.002014	0.342435
774.196370	0.342466
774.390708	0.342691
774.585028	0.342920
774.779330	0.343124
774.973613	0.342787
775.167878	0.342786
775.362125	0.342749
775.556354	0.342757
775.750564	0.343132
775.944756	0.343173
776.138930	0.342947
776.333086	0.342769
776.527223	0.342815
776.721343	0.343089
776.915444	0.342874
777.109526	0.342508
777.303591	0.342697
777.497637	0.342652
777.691666	0.342717
777.885676	0.342515
778.079667	0.342458
778.273641	0.342226
778.467596	0.342040
778.661533	0.342278
778.855452	0.342576
779.049352	0.342539
779.243235	0.342302
779.437099	0.342050
779.630945	0.342349
779.824773	0.342672
780.018582	0.342687
780.212373	0.342636
780.406146	0.342248
780.599901	0.342401
780.793638	0.342346
780.987356	0.342404
781.181056	0.342472
781.374738	0.342411
781.568402	0.341881
781.762047	0.342164
781.955674	0.341998
782.149283	0.342199
782.342874	0.341971
782.536447	0.342148
782.730001	0.342098
782.923537	0.342455
783.117055	0.342453
783.310555	0.342616
783.504036	0.342525
783.697499	0.342466
783.890944	0.342916
784.084371	0.342837
784.277780	0.342771
784.471170	0.343171
784.664542	0.343011
784.857896	0.343008
785.051231	0.342998
785.244549	0.343230
785.437848	0.343564
785.631129	0.343264
785.824392	0.343782
786.017636	0.343943
786.210863	0.343597
786.404071	0.343387
786.597260	0.343657
786.790432	0.343791
786.983585	0.343717
787.176721	0.343996
787.369838	0.344362
787.562936	0.344176
787.756017	0.344310
787.949079	0.344701
788.142123	0.344898
788.335149	0.345191
788.528156	0.345706
788.721146	0.346092
788.914117	0.346233
789.107070	0.346053
789.300005	0.346331
789.492921	0.346509
789.685819	0.346595
789.878699	0.347034
790.071561	0.346743
790.264405	0.346502
790.457230	0.346543
790.650037	0.346415
790.842826	0.346720
791.035597	0.346777
791.228349	0.346822
791.421084	0.346905
791.613800	0.347071
791.806497	0.347373
791.999177	0.347627
792.191838	0.347628
792.384481	0.348022
792.577106	0.348289
792.769713	0.348344
792.962301	0.348626
793.154871	0.349027
793.347423	0.348560
793.539957	0.348898
793.732473	0.349311
793.924970	0.349603
794.117449	0.349648
794.309910	0.349663
794.502353	0.349770
794.694777	0.350071
794.887183	0.350071
795.079571	0.350539
795.271941	0.350452
795.464293	0.350515
795.656626	0.350636
795.848941	0.350887
796.041238	0.351322
796.233516	0.351863
796.425777	0.351880
796.618019	0.352090
796.810243	0.352768
797.002449	0.353339
797.194636	0.353468
797.386805	0.353802
797.578956	0.354121
797.771089	0.354170
797.963204	0.354196
798.155300	0.354395
798.347378	0.354313
798.539438	0.354360
798.731480	0.354516
798.923503	0.354890
799.115509	0.354886
799.307496	0.355193
799.499465	0.355325
799.691415	0.355627
799.883348	0.356221
800.075262	0.356415
800.267158	0.356764
800.459035	0.356789
800.650895	0.357044
800.842736	0.357572
801.034559	0.357750
801.226364	0.358263
801.418150	0.358501
801.609919	0.358220
801.801669	0.359268
801.993401	0.359311
802.185114	0.359854
802.376810	0.360292
802.568487	0.360491
802.760146	0.360841
802.951787	0.360874
803.143409	0.361092
803.335014	0.361612
803.526600	0.361344
803.718168	0.361498
803.909717	0.361783
804.101249	0.361680
804.292762	0.362135
804.484257	0.362279
804.675734	0.362912
804.867192	0.363189
805.058632	0.363329
805.250054	0.363766
805.441458	0.364441
805.632844	0.364589
805.824211	0.365266
806.015561	0.365676
806.206891	0.366034
806.398204	0.366409
806.589499	0.366912
806.780775	0.367236
806.972033	0.367562
807.163273	0.367869
807.354495	0.368359
807.545698	0.368338
807.736883	0.368475
807.928050	0.368799
808.119199	0.369082
808.310329	0.369528
808.501441	0.370179
808.692535	0.370376
808.883611	0.370525
809.074669	0.370835
809.265708	0.371361
809.456729	0.371800
809.647732	0.372086
809.838717	0.372315
810.029683	0.372677
810.220632	0.373058
810.411562	0.373569
810.602474	0.374292
810.793367	0.374580
810.984242	0.374888
811.175100	0.375212
811.365938	0.375351
811.556759	0.375559
811.747562	0.375757
811.938346	0.375938
812.129112	0.376371
812.319860	0.376626
812.510589	0.376869
812.701300	0.377393
812.891994	0.377482
813.082668	0.378458
813.273325	0.379005
813.463964	0.379601
813.654584	0.379970
813.845186	0.380390
814.035769	0.380787
814.226335	0.381335
814.416882	0.382127
814.607411	0.382804
814.797922	0.382926
814.988415	0.383360
815.178889	0.383793
815.369345	0.384541
815.559783	0.384807
815.750203	0.385407
815.940605	0.386124
816.130988	0.386267
816.321353	0.386727
816.511700	0.387183
816.702028	0.387702
816.892339	0.388202
817.082631	0.388761
817.272905	0.389410
817.463161	0.389595
817.653398	0.389915
817.843617	0.390241
818.033819	0.390608
818.224001	0.391041
818.414166	0.391409
818.604312	0.391841
818.794440	0.392320
818.984550	0.392903
819.174642	0.393536
819.364716	0.394001
819.554771	0.394316
819.744808	0.394514
819.934827	0.395154
820.124827	0.395521
820.314810	0.396020
820.504774	0.396536
820.694720	0.396951
820.884647	0.397238
821.074557	0.397821
821.264448	0.398503
821.454321	0.399345
821.644176	0.399770
821.834012	0.400500
822.023831	0.400732
822.213631	0.401278
822.403413	0.401733
822.593176	0.402125
822.782922	0.402293
822.972649	0.402963
823.162358	0.403270
823.352049	0.403613
823.541721	0.403950
823.731376	0.404467
823.921012	0.404351
824.110629	0.404672
824.300229	0.405152
824.489811	0.406206
824.679374	0.406406
824.868919	0.407198
825.058445	0.407793
825.247954	0.408503
825.437444	0.409156
825.626916	0.410230
825.816370	0.410957
826.005806	0.411961
826.195223	0.412144
826.384622	0.413015
826.574003	0.413344
826.763366	0.413914
826.952711	0.414247
827.142037	0.414839
827.331345	0.415317
827.520635	0.415602
827.709906	0.416317
827.899160	0.416562
828.088395	0.416588
828.277612	0.417385
828.466810	0.417467
828.655991	0.418192
828.845153	0.418543
829.034297	0.418829
829.223423	0.419590
829.412531	0.419717
829.601620	0.420455
829.790691	0.421262
829.979744	0.421499
830.168779	0.422536
830.357795	0.422868
830.546793	0.423307
830.735773	0.423822
830.924735	0.424178
831.113679	0.424595
831.302604	0.425292
831.491511	0.425821
831.680400	0.426448
831.869271	0.426868
832.058123	0.427556
832.246957	0.428768
832.435773	0.429507
832.624571	0.430108
832.813351	0.430909
833.002112	0.431719
833.190855	0.432413
833.379580	0.433001
833.568287	0.433631
833.756975	0.433915
833.945645	0.433661
834.134297	0.434241
834.322931	0.434646
834.511547	0.435321
834.700144	0.435557
834.888723	0.435914
835.077284	0.436729
835.265826	0.437216
835.454351	0.437859
835.642857	0.438680
835.831345	0.439112
836.019815	0.440074
836.208266	0.440694
836.396699	0.441356
836.585114	0.442231
836.773511	0.442660
836.961890	0.443432
837.150250	0.444289
837.338592	0.445071
837.526916	0.445660
837.715222	0.446186
837.903510	0.446213
838.091779	0.446574
838.280030	0.446919
838.468263	0.447723
838.656477	0.448399
838.844674	0.448707
839.032852	0.449288
839.221012	0.449966
839.409153	0.450627
839.597277	0.451717
839.785382	0.452361
839.973469	0.452939
840.161538	0.453751
840.349589	0.454115
840.537621	0.455381
840.725635	0.456121
840.913631	0.456704
841.101609	0.457253
841.289568	0.457439
841.477509	0.458290
841.665432	0.459677
841.853337	0.460135
842.041224	0.461183
842.229092	0.461613
842.416942	0.462118
842.604774	0.462762
842.792588	0.463332
842.980383	0.463836
843.168160	0.464603
843.355919	0.464700
843.543660	0.465143
843.731382	0.465219
843.919087	0.465660
844.106773	0.466359
844.294441	0.467307
844.482090	0.467980
844.669722	0.468984
844.857335	0.469098
845.044930	0.469729
845.232507	0.470361
845.420065	0.471403
845.607605	0.471801
845.795127	0.472222
845.982631	0.472407
846.170117	0.473118
846.357584	0.473745
846.545033	0.474482
846.732464	0.474943
846.919877	0.475056
847.107272	0.475751
847.294648	0.476500
847.482006	0.477183
847.669346	0.477637
847.856667	0.478729
848.043971	0.479079
848.231256	0.479594
848.418523	0.479921
848.605771	0.480924
848.793002	0.481028
848.980214	0.481365
849.167408	0.482143
849.354584	0.482740
849.541742	0.482830
849.728881	0.483633
849.916002	0.484442
850.103105	0.485065
850.290190	0.485533
850.477256	0.486439
850.664304	0.486855
850.851334	0.487694
851.038346	0.488117
851.225340	0.488304
851.412315	0.488923
851.599272	0.489412
851.786211	0.490153
851.973132	0.491371
852.160034	0.491631
852.346918	0.492800
852.533784	0.492825
852.720632	0.493579
852.907462	0.494284
853.094273	0.494798
853.281066	0.495017
853.467841	0.495571
853.654598	0.495548
853.841336	0.496395
854.028056	0.496483
854.214758	0.497159
854.401442	0.498098
854.588107	0.499394
854.774755	0.499532
854.961384	0.500241
855.147995	0.500890
855.334587	0.501567
855.521162	0.501975
855.707718	0.502516
855.894256	0.502919
856.080775	0.503048
856.267277	0.502749
856.453760	0.504167
856.640225	0.504665
856.826672	0.505407
857.013101	0.506337
857.199511	0.507252
857.385903	0.508047
857.572277	0.509020
857.758633	0.509717
857.944970	0.510686
858.131290	0.510908
858.317591	0.512117
858.503873	0.512683
858.690138	0.512751
858.876384	0.512683
859.062612	0.513399
859.248822	0.513344
859.435014	0.514019
859.621188	0.514914
859.807343	0.515192
859.993480	0.515224
860.179599	0.515663
860.365699	0.516531
860.551781	0.517246
860.737846	0.517859
860.923891	0.518953
861.109919	0.519469
861.295929	0.519686
861.481920	0.520393
861.667893	0.521150
861.853848	0.521578
862.039784	0.521757
862.225702	0.522253
862.411603	0.522617
862.597484	0.523232
862.783348	0.523929
862.969193	0.524196
863.155021	0.524823
863.340830	0.525203
863.526620	0.525685
863.712393	0.526236
863.898147	0.526344
864.083883	0.526801
864.269601	0.526340
864.455301	0.526860
864.640982	0.527628
864.826645	0.527804
865.012290	0.528174
865.197917	0.528436
865.383526	0.528905
865.569116	0.529777
865.754688	0.530228
865.940242	0.531198
866.125777	0.531156
866.311295	0.531525
866.496794	0.532267
866.682275	0.532612
866.867737	0.533295
867.053182	0.533323
867.238608	0.534282
867.424016	0.534550
867.609406	0.534992
867.794778	0.535592
867.980131	0.536009
868.165466	0.536168
868.350783	0.536811
868.536082	0.538103
868.721362	0.538975
868.906625	0.539024
869.091869	0.539887
869.277094	0.540219
869.462302	0.540487
869.647491	0.541021
869.832662	0.541845
870.017815	0.542073
870.202950	0.541981
870.388066	0.542235
870.573165	0.542368
870.758245	0.542278
870.943306	0.542622
871.128350	0.543284
871.313375	0.543434
871.498382	0.543480
871.683371	0.544072
871.868342	0.544017
872.053294	0.544739
872.238229	0.545855
872.423144	0.546767
872.608042	0.547318
872.792922	0.547317
872.977783	0.547794
873.162626	0.548252
873.347451	0.548539
873.532258	0.549117
873.717046	0.549088
873.901816	0.548947
874.086568	0.548595
874.271302	0.549386
874.456017	0.549610
874.640715	0.549929
874.825394	0.550528
875.010055	0.551219
875.194697	0.551378
875.379322	0.551599
875.563928	0.551455
875.748516	0.552468
875.933085	0.552182
876.117637	0.553076
876.302170	0.553154
876.486685	0.553052
876.671182	0.553423
876.855661	0.553556
877.040121	0.553631
877.224563	0.554087
877.408987	0.554225
877.593393	0.554793
877.777780	0.555134
877.962150	0.555208
878.146501	0.555146
878.330833	0.555086
878.515148	0.555313
878.699444	0.555897
878.883722	0.556096
879.067982	0.556272
879.252224	0.556510
879.436447	0.556588
879.620653	0.557474
879.804840	0.557727
879.989008	0.557640
880.173159	0.557811
880.357291	0.558163
880.541405	0.558940
880.725501	0.559332
880.909579	0.559838
881.093638	0.560057
881.277680	0.559884
881.461703	0.560470
881.645707	0.560813
881.829694	0.560944
882.013662	0.561187
882.197612	0.561114
882.381544	0.560887
882.565458	0.559937
882.749353	0.560151
882.933230	0.559900
883.117089	0.559379
883.300930	0.559768
883.484753	0.560285
883.668557	0.560343
883.852343	0.560513
884.036111	0.560941
884.219861	0.561083
884.403592	0.560161
884.587305	0.560623
884.771000	0.561317
884.954677	0.560820
885.138335	0.560734
885.321976	0.560583
885.505598	0.560075
885.689201	0.559332
885.872787	0.559873
886.056354	0.561138
886.239904	0.561247
886.423434	0.560808
886.606947	0.560924
886.790442	0.561380
886.973918	0.561511
887.157376	0.562003
887.340816	0.562739
887.524237	0.562713
887.707641	0.562295
887.891026	0.562071
888.074393	0.562417
888.257741	0.562863
888.441072	0.562783
888.624384	0.563208
888.807678	0.563419
888.990954	0.562739
889.174211	0.563030
889.357451	0.563135
889.540672	0.563032
889.723875	0.562915
889.907059	0.563027
890.090226	0.562702
890.273374	0.562162
890.456504	0.562698
890.639616	0.562831
890.822709	0.562895
891.005785	0.562953
891.188842	0.563383
891.371881	0.564020
891.554901	0.563509
891.737904	0.563209
891.920888	0.563682
892.103854	0.562577
892.286802	0.562939
892.469731	0.562825
892.652643	0.562158
892.835536	0.562356
893.018410	0.561603
893.201267	0.562128
893.384106	0.562045
893.566926	0.561218
893.749728	0.561775
893.932511	0.561247
894.115277	0.560837
894.298024	0.560571
894.480753	0.559289
894.663464	0.559248
894.846157	0.558520
895.028831	0.558716
895.211487	0.558561
895.394125	0.558312
895.576745	0.558602
895.759346	0.558426
895.941930	0.559108
896.124495	0.558874
896.307041	0.558923
896.489570	0.558624
896.672080	0.558059
896.854573	0.557672
897.037046	0.557403
897.219502	0.557311
897.401940	0.556600
897.584359	0.555871
897.766760	0.556645
897.949143	0.556423
898.131507	0.556481
898.313854	0.555265
898.496182	0.555454
898.678492	0.554571
898.860783	0.553788
899.043057	0.553973
899.225312	0.553291
899.407549	0.552801
899.589768	0.552342
899.771968	0.551843
899.954151	0.552658
900.136315	0.552992
900.318461	0.552892
900.500588	0.552747
900.682698	0.552683
900.864789	0.552255
901.046862	0.551143
901.228917	0.551100
901.410953	0.550537
901.592971	0.550227
901.774972	0.549239
901.956953	0.548391
902.138917	0.547708
902.320862	0.546215
902.502790	0.546456
902.684699	0.546542
902.866589	0.545346
903.048462	0.545226
903.230316	0.544384
903.412152	0.542654
903.593970	0.543043
903.775770	0.542270
903.957551	0.542465
904.139314	0.541368
904.321059	0.540897
904.502786	0.540874
904.684494	0.540561
904.866185	0.540379
905.047857	0.541588
905.229510	0.540455
905.411146	0.540484
905.592763	0.539712
905.774363	0.539692
905.955943	0.539653
906.137506	0.538981
906.319051	0.538150
906.500577	0.537256
906.682085	0.536118
906.863575	0.536357
907.045046	0.535842
907.226500	0.536358
907.407935	0.536118
907.589352	0.535514
907.770750	0.535015
907.952131	0.535366
908.133493	0.534852
908.314837	0.535167
908.496163	0.534589
908.677470	0.534623
908.858760	0.533438
909.040031	0.532693
909.221284	0.532042
909.402518	0.531485
909.583735	0.530176
909.764933	0.530452
909.946113	0.528288
910.127275	0.526677
910.308418	0.525387
910.489544	0.525126
910.670651	0.524544
910.851740	0.524301
911.032810	0.523805
911.213863	0.523503
911.394897	0.522147
911.575913	0.521987
911.756911	0.521791
911.937890	0.521933
912.118851	0.520929
912.299794	0.519646
912.480719	0.518077
912.661626	0.516789
912.842514	0.515733
913.023384	0.514801
913.204236	0.514337
913.385070	0.513246
913.565886	0.511597
913.746683	0.510656
913.927462	0.510604
914.108223	0.509987
914.288965	0.509598
914.469690	0.509004
914.650396	0.509147
914.831084	0.508097
915.011754	0.507481
915.192405	0.507474
915.373038	0.506665
915.553653	0.505790
915.734250	0.504922
915.914829	0.503933
916.095389	0.503230
916.275931	0.502628
916.456455	0.502000
916.636961	0.501389
916.817448	0.499902
916.997917	0.499209
917.178368	0.498940
917.358801	0.498385
917.539216	0.498539
917.719612	0.497642
917.899990	0.496000
918.080350	0.495473
918.260692	0.495248
918.441015	0.494779
918.621320	0.494011
918.801607	0.492181
918.981876	0.492215
919.162127	0.490982
919.342359	0.490239
919.522573	0.489381
919.702769	0.487867
919.882947	0.486434
920.063106	0.485836
920.243247	0.485445
920.423370	0.484870
920.603475	0.483114
920.783562	0.481814
920.963630	0.480149
921.143680	0.479676
921.323712	0.479409
921.503725	0.478875
921.683721	0.477663
921.863698	0.476218
922.043657	0.475369
922.223598	0.474817
922.403520	0.474227
922.583424	0.473552
922.763311	0.473145
922.943178	0.471999
923.123028	0.470884
923.302859	0.470312
923.482673	0.470160
923.662467	0.468534
923.842244	0.467413
924.022003	0.466406
924.201743	0.465720
924.381465	0.462644
924.561169	0.462238
924.740854	0.460581
924.920522	0.458578
925.100171	0.456814
925.279802	0.455870
925.459414	0.453890
925.639009	0.451873
925.818585	0.450623
925.998143	0.450899
926.177683	0.448494
926.357205	0.447879
926.536708	0.446761
926.716193	0.445700
926.895660	0.444901
927.075109	0.444885
927.254539	0.445138
927.433951	0.443820
927.613345	0.442029
927.792721	0.441501
927.972079	0.440561
928.151418	0.438995
928.330739	0.437011
928.510042	0.437029
928.689327	0.435586
928.868593	0.433076
929.047841	0.432814
929.227071	0.432664
929.406283	0.431499
929.585476	0.430142
929.764652	0.429188
929.943809	0.429122
930.122948	0.427299
930.302068	0.425566
930.481171	0.424222
930.660255	0.422520
930.839321	0.420861
931.018369	0.420972
931.197398	0.419876
931.376409	0.419651
931.555402	0.418783
931.734377	0.417725
931.913334	0.416262
932.092272	0.416904
932.271192	0.415443
932.450094	0.414576
932.628978	0.411863
932.807844	0.410819
932.986691	0.409884
933.165520	0.407732
933.344331	0.405520
933.523123	0.404093
933.701898	0.401817
933.880654	0.400200
934.059392	0.399301
934.238111	0.399509
934.416813	0.397908
934.595496	0.396553
934.774161	0.395577
934.952808	0.394562
935.131437	0.394599
935.310047	0.394137
935.488639	0.393151
935.667213	0.391292
935.845769	0.388140
936.024306	0.386077
936.202825	0.384044
936.381326	0.382385
936.559809	0.381828
936.738274	0.378891
936.916720	0.376352
937.095148	0.374613
937.273558	0.372662
937.451950	0.372832
937.630323	0.373198
937.808678	0.371084
937.987015	0.370627
938.165334	0.368019
938.343635	0.367370
938.521917	0.366023
938.700181	0.365568
938.878427	0.365597
939.056655	0.365339
939.234864	0.362529
939.413055	0.360721
939.591228	0.358571
939.769383	0.357652
939.947519	0.356723
940.125638	0.357986
940.303738	0.357931
940.481820	0.356164
940.659883	0.352310
940.837929	0.349871
941.015956	0.350543
941.193965	0.348000
941.371955	0.347808
941.549928	0.346039
941.727882	0.342374
941.905818	0.338448
942.083736	0.336719
942.261636	0.336006
942.439517	0.337124
942.617380	0.335761
942.795225	0.335509
942.973052	0.333763
943.150860	0.333034
943.328651	0.331746
943.506423	0.332365
943.684176	0.331696
943.861912	0.329850
944.039629	0.326739
944.217328	0.325691
944.395009	0.322589
944.572672	0.321207
944.750317	0.319450
944.927943	0.317663
945.105551	0.315218
945.283141	0.312254
945.460712	0.310237
945.638265	0.311279
945.815801	0.309515
945.993317	0.309528
946.170816	0.306678
946.348297	0.304108
946.525759	0.303750
946.703203	0.302413
946.880629	0.300108
947.058036	0.297941
947.235425	0.295607
947.412797	0.292776
947.590149	0.291099
947.767484	0.290438
947.944800	0.288468
948.122099	0.285458
948.299379	0.283851
948.476640	0.282661
948.653884	0.282013
948.831109	0.277362
949.008316	0.274829
949.185505	0.274344
949.362676	0.272231
949.539828	0.272605
949.716962	0.271244
949.894078	0.269539
950.071176	0.267395
950.248256	0.266163
950.425317	0.265091
950.602360	0.264128
950.779385	0.262045
950.956391	0.258898
951.133380	0.256819
951.310350	0.254137
951.487302	0.253184
951.664235	0.251006
951.841151	0.248337
952.018048	0.250510
952.194927	0.248552
952.371788	0.247021
952.548631	0.247169
952.725455	0.245571
952.902261	0.245015
953.079049	0.242641
953.255819	0.244299
953.432570	0.243417
953.609303	0.239089
953.786018	0.238542
953.962715	0.237421
954.139394	0.235141
954.316054	0.234752
954.492696	0.233464
954.669320	0.232206
954.845926	0.229468
955.022513	0.227604
955.199083	0.227170
955.375634	0.227257
955.552166	0.227127
955.728681	0.225374
955.905177	0.222804
956.081655	0.223378
956.258115	0.222012
956.434557	0.220514
956.610980	0.219503
956.787385	0.218631
956.963772	0.217273
957.140141	0.215585
957.316492	0.214516
957.492824	0.212948
957.669138	0.210193
957.845434	0.208918
958.021712	0.207940
958.197971	0.208857
958.374212	0.207583
958.550435	0.204693
958.726640	0.201984
958.902826	0.202640
959.078995	0.202411
959.255145	0.199844
959.431277	0.201141
959.607390	0.201948
959.783486	0.197450
959.959563	0.194161
960.135622	0.193865
960.311662	0.192572
960.487685	0.193778
960.663689	0.192928
960.839675	0.193152
961.015643	0.186926
961.191593	0.184285
961.367524	0.189265
961.543437	0.192105
961.719332	0.191662
961.895209	0.189736
962.071067	0.186115
962.246907	0.182632
962.422730	0.180993
962.598533	0.182945
962.774319	0.181756
962.950086	0.178657
963.125835	0.178739
963.301566	0.175758
963.477279	0.177738
963.652973	0.173893
963.828650	0.174412
964.004308	0.173427
964.179947	0.172921
964.355569	0.172874
964.531172	0.172392
964.706757	0.171034
964.882324	0.173634
965.057873	0.172506
965.233403	0.176108
965.408916	0.177620
965.584410	0.180254
965.759885	0.179082
965.935343	0.178783
966.110782	0.178340
966.286203	0.176286
966.461606	0.175857
966.636991	0.173091
966.812357	0.171607
966.987705	0.169353
967.163035	0.169726
967.338347	0.171583
967.513641	0.174223
967.688916	0.173747
967.864173	0.174263
968.039412	0.174236
968.214632	0.177147
968.389835	0.178234
968.565019	0.178730
968.740185	0.174990
968.915333	0.173080
969.090462	0.170847
969.265573	0.170719
969.440667	0.170026
969.615741	0.169835
969.790798	0.167960
969.965836	0.166090
970.140856	0.166348
970.315858	0.167794
970.490842	0.170099
970.665808	0.170748
970.840755	0.166918
971.015684	0.168179
971.190595	0.166714
971.365487	0.168292
971.540362	0.171514
971.715218	0.173270
971.890056	0.173135
972.064875	0.172317
972.239677	0.173529
972.414460	0.177755
972.589225	0.177720
972.763972	0.178470
972.938700	0.175971
973.113411	0.174191
973.288103	0.175061
973.462777	0.175311
973.637432	0.174795
973.812070	0.171272
973.986689	0.169485
974.161290	0.169461
974.335873	0.170078
974.510437	0.173814
974.684984	0.173665
974.859512	0.169039
975.034022	0.172537
975.208513	0.173258
975.382987	0.173610
975.557442	0.174302
975.731879	0.171848
975.906298	0.169253
976.080698	0.167427
976.255080	0.167355
976.429445	0.169953
976.603790	0.165933
976.778118	0.165246
976.952427	0.164983
977.126719	0.163695
977.300992	0.166044
977.475246	0.169855
977.649483	0.170084
977.823701	0.170462
977.997901	0.169686
978.172083	0.170551
978.346247	0.168083
978.520392	0.168724
978.694519	0.171403
978.868628	0.171367
979.042719	0.168947
979.216791	0.167108
979.390845	0.167243
979.564882	0.166828
979.738899	0.168414
979.912899	0.171157
980.086880	0.173186
980.260843	0.172259
980.434788	0.172568
980.608715	0.173292
980.782623	0.176119
980.956514	0.175589
981.130386	0.176724
981.304240	0.174893
981.478075	0.174573
981.651892	0.174383
981.825692	0.172675
981.999472	0.172329
982.173235	0.171178
982.346980	0.169662
982.520706	0.171651
982.694414	0.170681
982.868104	0.172702
983.041775	0.175104
983.215428	0.173092
983.389064	0.174078
983.562680	0.172920
983.736279	0.175490
983.909860	0.177411
984.083422	0.175313
984.256966	0.176272
984.430491	0.176881
984.603999	0.172929
984.777488	0.173118
984.950959	0.173821
985.124412	0.176072
985.297847	0.175477
985.471263	0.172348
985.644661	0.173483
985.818041	0.172620
985.991403	0.169633
986.164747	0.170137
986.338072	0.169631
986.511379	0.169170
986.684668	0.168176
986.857938	0.167170
987.031191	0.168939
987.204425	0.166405
987.377641	0.169157
987.550839	0.168502
987.724018	0.169321
987.897179	0.169996
988.070322	0.168763
988.243447	0.167654
988.416554	0.170374
988.589642	0.171227
988.762712	0.172995
988.935764	0.170548
989.108798	0.173024
989.281813	0.174090
989.454811	0.175102
989.627790	0.174839
989.800751	0.176235
989.973693	0.174224
990.146617	0.173062
990.319524	0.174227
990.492412	0.174478
990.665281	0.174186
990.838133	0.171773
991.010966	0.171665
991.183781	0.172390
991.356578	0.170441
991.529356	0.168840
991.702117	0.171161
991.874859	0.169712
992.047583	0.170742
992.220288	0.169397
992.392976	0.171453
992.565645	0.170953
992.738296	0.172943
992.910929	0.173520
993.083543	0.174275
993.256139	0.172768
993.428718	0.172811
993.601277	0.172365
993.773819	0.172141
993.946342	0.171117
994.118848	0.172110
994.291335	0.169192
994.463803	0.169302
994.636254	0.170067
994.808686	0.170178
994.981100	0.170664
995.153496	0.170796
995.325874	0.171090
995.498233	0.171643
995.670574	0.171692
995.842897	0.173325
996.015202	0.172912
996.187488	0.171442
996.359757	0.171427
996.532007	0.170542
996.704239	0.171403
996.876452	0.173051
997.048648	0.171952
997.220825	0.169512
997.392984	0.170197
997.565124	0.171142
997.737247	0.171869
997.909351	0.170469
998.081437	0.171907
998.253505	0.172199
998.425554	0.172154
998.597586	0.173387
998.769599	0.176327
998.941594	0.175445
999.113571	0.174133
999.285529	0.176307
999.457469	0.176070
999.629391	0.175036
999.801295	0.173754
999.973181	0.175075
1000.145048	0.174862
1000.316897	0.172275
1000.488728	0.170694
1000.660541	0.169618
1000.832335	0.167817
1001.004111	0.169987
1001.175869	0.169746
1001.347609	0.170418
1001.519331	0.167411
1001.691034	0.166477
1001.862719	0.166977
1002.034386	0.171041
1002.206035	0.173671
1002.377665	0.172406
1002.549277	0.171321
1002.720871	0.171734
1002.892447	0.172530
1003.064004	0.174321
1003.235544	0.175583
1003.407065	0.177670
1003.578568	0.174487
1003.750052	0.173534
1003.921519	0.175053
1004.092967	0.173419
1004.264397	0.175120
1004.435809	0.172973
1004.607202	0.171820
1004.778577	0.170466
1004.949934	0.169964
1005.121273	0.171367
1005.292594	0.171993
1005.463896	0.172326
1005.635180	0.173596
1005.806446	0.172606
1005.977694	0.173839
1006.148923	0.175434
1006.320135	0.175663
1006.491328	0.172988
1006.662503	0.172447
1006.833659	0.172949
1007.004798	0.172773
1007.175918	0.173382
1007.347020	0.173134
1007.518103	0.173102
1007.689169	0.171655
1007.860216	0.170464
1008.031245	0.172969
1008.202256	0.172017
1008.373248	0.171282
1008.544223	0.171487
1008.715179	0.170809
1008.886117	0.169976
1009.057036	0.170844
1009.227938	0.170145
1009.398821	0.172012
1009.569686	0.172021
1009.740533	0.171675
1009.911361	0.171776
1010.082172	0.172771
1010.252964	0.173423
1010.423738	0.176011
1010.594493	0.177059
1010.765231	0.179975
1010.935950	0.180219
1011.106651	0.179826
1011.277334	0.181793
1011.447998	0.182104
1011.618645	0.179602
1011.789273	0.179234
1011.959882	0.176670
1012.130474	0.174373
1012.301048	0.171779
1012.471603	0.173040
1012.642140	0.171799
1012.812658	0.171730
1012.983159	0.169853
1013.153641	0.171167
1013.324105	0.171978
1013.494551	0.173115
1013.664979	0.174579
1013.835388	0.177342
1014.005779	0.175812
1014.176152	0.176362
1014.346507	0.173991
1014.516843	0.175799
1014.687162	0.174694
1014.857462	0.172187
1015.027744	0.173100
1015.198007	0.170961
1015.368252	0.168234
1015.538480	0.170103
1015.708689	0.169750
1015.878879	0.172414
1016.049052	0.172187
1016.219206	0.173463
1016.389342	0.173362
1016.559460	0.170360
1016.729559	0.170880
1016.899641	0.171114
1017.069704	0.171456
1017.239749	0.172029
1017.409775	0.170910
1017.579784	0.170927
1017.749774	0.168745
1017.919746	0.173140
1018.089700	0.173461
1018.259635	0.170326
1018.429553	0.170953
1018.599452	0.169653
1018.769333	0.170945
1018.939195	0.169486
1019.109040	0.170804
1019.278866	0.172976
1019.448674	0.169336
1019.618464	0.169457
1019.788235	0.172012
1019.957989	0.171441
1020.127724	0.170268
1020.297441	0.169854
1020.467139	0.172057
1020.636820	0.169503
1020.806482	0.166534
1020.976126	0.167391
1021.145752	0.169092
1021.315359	0.167862
1021.484948	0.168606
1021.654519	0.169149
1021.824072	0.168396
1021.993607	0.168833
1022.163123	0.169812
1022.332621	0.171596
1022.502101	0.172297
1022.671563	0.170926
1022.841007	0.172055
1023.010432	0.170173
1023.179839	0.170291
1023.349228	0.170234
1023.518598	0.169462
1023.687951	0.169774
1023.857285	0.171894
1024.026601	0.172732
1024.195899	0.172579
1024.365178	0.173547
1024.534439	0.174237
1024.703682	0.173048
1024.872907	0.172104
1025.042114	0.171380
1025.211302	0.170773
1025.380472	0.169267
1025.549624	0.169136
1025.718758	0.168595
1025.887873	0.169598
1026.056970	0.167966
1026.226049	0.168930
1026.395110	0.169068
1026.564153	0.170528
1026.733177	0.171278
1026.902183	0.171760
1027.071171	0.171207
1027.240141	0.173196
1027.409092	0.171964
1027.578026	0.174460
1027.746940	0.175316
1027.915837	0.176300
1028.084716	0.174690
1028.253576	0.172151
1028.422418	0.170471
1028.591242	0.167980
1028.760048	0.166992
1028.928835	0.166940
1029.097604	0.166631
1029.266355	0.165755
1029.435088	0.165204
1029.603803	0.164968
1029.772499	0.167005
1029.941177	0.168262
1030.109837	0.170324
1030.278478	0.170537
1030.447102	0.171751
1030.615707	0.171112
1030.784294	0.169968
1030.952863	0.169898
1031.121413	0.169808
1031.289945	0.170610
1031.458460	0.169433
1031.626955	0.169293
1031.795433	0.168747
1031.963892	0.166686
1032.132334	0.166293
1032.300756	0.165365
1032.469161	0.167217
1032.637548	0.165705
1032.805916	0.163094
1032.974266	0.162679
1033.142598	0.161309
1033.310911	0.162750
1033.479207	0.163695
1033.647484	0.164444
1033.815743	0.166158
1033.983983	0.164569
1034.152206	0.167705
1034.320410	0.168712
1034.488596	0.169648
1034.656764	0.168798
1034.824914	0.168019
1034.993045	0.167297
1035.161158	0.166895
1035.329253	0.166128
1035.497330	0.168420
1035.665388	0.167941
1035.833428	0.168699
1036.001450	0.169566
1036.169454	0.171011
1036.337440	0.169905
1036.505407	0.171281
1036.673356	0.170742
1036.841287	0.170625
1037.009200	0.166515
1037.177094	0.165856
1037.344970	0.164893
1037.512828	0.165047
1037.680668	0.164936
1037.848489	0.165224
1038.016293	0.163604
1038.184078	0.163766
1038.351845	0.166516
1038.519593	0.169336
1038.687324	0.168603
1038.855036	0.169302
1039.022730	0.169919
1039.190406	0.170700
1039.358063	0.172483
1039.525702	0.174073
1039.693323	0.176753
1039.860926	0.175643
1040.028511	0.174678
1040.196077	0.176337
1040.363625	0.176928
1040.531155	0.178030
1040.698667	0.178947
1040.866161	0.177511
1041.033636	0.176953
1041.201093	0.175454
1041.368532	0.174105
1041.535952	0.172306
1041.703355	0.170605
1041.870739	0.169300
1042.038105	0.168875
1042.205452	0.168431
1042.372782	0.167611
1042.540093	0.168440
1042.707386	0.169792
1042.874661	0.171463
1043.041918	0.172821
1043.209156	0.173943
1043.376376	0.174935
1043.543578	0.172822
1043.710762	0.173101
1043.877927	0.173613
1044.045074	0.172718
1044.212203	0.172516
1044.379314	0.170721
1044.546407	0.170042
1044.713481	0.169994
1044.880537	0.170109
1045.047575	0.172158
1045.214595	0.173558
1045.381596	0.174599
1045.548579	0.175024
1045.715544	0.173331
1045.882491	0.173898
1046.049420	0.175131
1046.216330	0.175204
1046.383222	0.175871
1046.550096	0.172663
1046.716951	0.169186
1046.883789	0.169643
1047.050608	0.170028
1047.217409	0.170290
1047.384192	0.170363
1047.550956	0.171888
1047.717703	0.171909
1047.884431	0.172291
1048.051140	0.175863
1048.217832	0.177102
1048.384505	0.176315
1048.551161	0.174081
1048.717798	0.174121
1048.884416	0.174793
1049.051017	0.174006
1049.217599	0.174712
1049.384163	0.172981
1049.550709	0.170502
1049.717237	0.168842
1049.883746	0.169454
1050.050237	0.172045
1050.216710	0.172639
1050.383165	0.174017
1050.549601	0.174098
1050.716019	0.172095
1050.882420	0.170930
1051.048801	0.170437
1051.215165	0.173513
1051.381510	0.172220
1051.547837	0.170127
1051.714146	0.168284
1051.880437	0.166230
1052.046709	0.165109
1052.212964	0.167507
1052.379200	0.170766
1052.545417	0.171781
1052.711617	0.171380
1052.877798	0.173144
1053.043961	0.172670
1053.210106	0.175262
1053.376233	0.174654
1053.542341	0.177310
1053.708432	0.176387
1053.874504	0.176745
1054.040557	0.177466
1054.206593	0.174749
1054.372610	0.174797
1054.538609	0.176820
1054.704590	0.176581
1054.870553	0.174813
1055.036497	0.173122
1055.202424	0.173719
1055.368331	0.173785
1055.534221	0.172736
1055.700093	0.174688
1055.865946	0.173405
1056.031781	0.172504
1056.197598	0.171244
1056.363397	0.174811
1056.529177	0.173826
1056.694939	0.172978
1056.860683	0.172573
1057.026409	0.174430
1057.192116	0.173695
1057.357806	0.173689
1057.523477	0.175437
1057.689130	0.175387
1057.854764	0.174860
1058.020381	0.175184
1058.185979	0.174068
1058.351559	0.172431
1058.517120	0.171508
1058.682664	0.171370
1058.848189	0.174361
1059.013696	0.173059
1059.179185	0.174755
1059.344656	0.174229
1059.510108	0.175089
1059.675542	0.177927
1059.840958	0.179615
1060.006356	0.178263
1060.171735	0.179883
1060.337096	0.178136
1060.502439	0.178939
1060.667764	0.179337
1060.833071	0.177885
1060.998359	0.180342
1061.163629	0.181919
1061.328881	0.181806
1061.494115	0.182714
1061.659330	0.180700
1061.824527	0.180137
1061.989706	0.179884
1062.154867	0.180533
1062.320010	0.185064
1062.485134	0.183561
1062.650240	0.179899
1062.815328	0.179283
1062.980398	0.178287
1063.145449	0.180766
1063.310482	0.179750
1063.475497	0.176993
1063.640494	0.176240
1063.805473	0.174255
1063.970433	0.171518
1064.135375	0.170712
1064.300299	0.170239
1064.465204	0.174210
1064.630092	0.173189
1064.794961	0.173190
1064.959812	0.176214
1065.124645	0.175097
1065.289459	0.173945
1065.454256	0.175557
1065.619034	0.175947
1065.783793	0.175139
1065.948535	0.171856
1066.113258	0.169858
1066.277964	0.170540
1066.442651	0.169707
1066.607319	0.171372
1066.771970	0.174197
1066.936602	0.175136
1067.101216	0.176808
1067.265812	0.176089
1067.430389	0.177996
1067.594949	0.180999
1067.759490	0.180033
1067.924013	0.181502
1068.088518	0.179547
1068.253004	0.179075
1068.417472	0.176632
1068.581922	0.172434
1068.746354	0.177421
1068.910768	0.176329
1069.075163	0.175666
1069.239540	0.177749
1069.403899	0.176927
1069.568240	0.178159
1069.732562	0.178642
1069.896866	0.180191
1070.061152	0.186827
1070.225420	0.184235
1070.389670	0.183616
1070.553901	0.185466
1070.718114	0.185044
1070.882309	0.184896
1071.046486	0.185358
1071.210644	0.182973
1071.374784	0.184056
1071.538906	0.183193
1071.703010	0.184142
1071.867096	0.187628
1072.031163	0.184901
1072.195212	0.183937
1072.359243	0.184841
1072.523256	0.184192
1072.687250	0.187328
1072.851226	0.186886
1073.015184	0.186426
1073.179124	0.186524
1073.343045	0.182516
1073.506949	0.185137
1073.670834	0.187379
1073.834701	0.190229
1073.998549	0.188201
1074.162380	0.186131
1074.326192	0.184376
1074.489986	0.183982
1074.653761	0.183493
1074.817519	0.187524
1074.981258	0.186375
1075.144979	0.184957
1075.308682	0.180194
1075.472367	0.184790
1075.636033	0.186200
1075.799681	0.188201
1075.963311	0.187022
1076.126923	0.190296
1076.290516	0.187678
1076.454092	0.185550
1076.617649	0.186542
1076.781187	0.188254
1076.944708	0.185528
1077.108210	0.186062
1077.271695	0.184560
1077.435160	0.187511
1077.598608	0.183104
1077.762038	0.183537
1077.925449	0.185545
1078.088842	0.185552
1078.252217	0.186430
1078.415573	0.187131
1078.578912	0.187132
1078.742232	0.187281
1078.905534	0.184617
1079.068817	0.185790
1079.232083	0.187124
1079.395330	0.185683
1079.558559	0.185552
1079.721770	0.184598
1079.884962	0.185492
1080.048136	0.185748
1080.211293	0.185878
1080.374430	0.189080
1080.537550	0.187452
1080.700651	0.184257
1080.863735	0.188330
1081.026800	0.190029
1081.189846	0.193548
1081.352875	0.194870
1081.515885	0.193919
1081.678877	0.199528
1081.841851	0.198855
1082.004807	0.200116
1082.167744	0.201355
1082.330663	0.196909
1082.493564	0.197765
1082.656447	0.193607
1082.819312	0.190027
1082.982158	0.191281
1083.144986	0.189967
1083.307796	0.190232
1083.470587	0.191654
1083.633361	0.192588
1083.796116	0.198674
1083.958853	0.191092
1084.121571	0.192770
1084.284272	0.196017
1084.446954	0.196869
1084.609618	0.194856
1084.772264	0.197595
1084.934892	0.198022
1085.097501	0.200177
1085.260092	0.198165
1085.422665	0.205545
1085.585220	0.207134
1085.747756	0.206737
1085.910274	0.203745
1086.072774	0.204106
1086.235256	0.198568
1086.397720	0.196277
1086.560165	0.194583
1086.722592	0.192911
1086.885001	0.189799
1087.047392	0.186369
1087.209764	0.182785
1087.372119	0.183662
1087.534455	0.181675
1087.696772	0.184975
1087.859072	0.187866
1088.021353	0.187069
1088.183616	0.188502
1088.345861	0.191035
1088.508088	0.192807
1088.670296	0.195640
1088.832486	0.195988
1088.994658	0.195334
1089.156812	0.193567
1089.318948	0.194116
1089.481065	0.196028
1089.643164	0.193449
1089.805245	0.191830
1089.967308	0.192426
1090.129352	0.193636
1090.291378	0.192332
1090.453386	0.197603
1090.615376	0.192463
1090.777347	0.189480
1090.939301	0.187943
1091.101236	0.191013
1091.263153	0.189716
1091.425051	0.189236
1091.586932	0.188225
1091.748794	0.194615
1091.910638	0.189760
1092.072463	0.195921
1092.234271	0.199541
1092.396060	0.196096
1092.557831	0.199158
1092.719584	0.205330
1092.881319	0.206559
1093.043035	0.207007
1093.204733	0.198210
1093.366413	0.202423
1093.528075	0.203389
1093.689718	0.202477
1093.851343	0.203311
1094.012950	0.201121
1094.174539	0.199333
1094.336110	0.197912
1094.497662	0.200386
1094.659196	0.202208
1094.820712	0.199884
1094.982210	0.198319
1095.143689	0.196556
1095.305151	0.203855
1095.466594	0.199857
1095.628018	0.200786
1095.789425	0.200521
1095.950813	0.196578
1096.112183	0.199403
1096.273535	0.198556
1096.434869	0.201551
1096.596184	0.206620
1096.757482	0.207406
1096.918761	0.212505
1097.080021	0.212849
1097.241264	0.214700
1097.402488	0.216371
1097.563694	0.215547
1097.724882	0.221736
1097.886052	0.218174
1098.047203	0.218262
1098.208336	0.215701
1098.369451	0.213960
1098.530548	0.214518
1098.691627	0.216891
1098.852687	0.218270
1099.013729	0.220836
1099.174753	0.217799
1099.335758	0.219554
1099.496746	0.212579
1099.657715	0.213140
1099.818666	0.217381
1099.979599	0.208987
1100.140513	0.206963
1100.301409	0.206338
1100.462287	0.199888
1100.623147	0.196194
1100.783989	0.201632
1100.944812	0.204441
1101.105617	0.205986
1101.266404	0.204674
1101.427173	0.210238
1101.587923	0.209213
1101.748656	0.208859
1101.909370	0.212816
1102.070066	0.217833
1102.230743	0.220552
1102.391403	0.225707
1102.552044	0.223075
1102.712667	0.223676
1102.873271	0.226520
1103.033858	0.230149
1103.194426	0.230497
1103.354976	0.229644
1103.515508	0.231941
1103.676021	0.221738
1103.836517	0.221476
1103.996994	0.219162
1104.157453	0.216004
1104.317893	0.218177
1104.478316	0.218382
1104.638720	0.214909
1104.799106	0.215691
1104.959474	0.217583
1105.119823	0.219176
1105.280155	0.215010
1105.440468	0.219529
1105.600763	0.219285
1105.761039	0.213606
1105.921298	0.211925
1106.081538	0.221685
1106.241760	0.222811
1106.401964	0.213121
1106.562149	0.209944
1106.722316	0.214157
1106.882465	0.209365
1107.042596	0.209996
1107.202709	0.209963
1107.362803	0.208713
1107.522879	0.202543
1107.682937	0.200369
1107.842977	0.206776
1108.002999	0.211143
1108.163002	0.210339
1108.322987	0.216188
1108.482954	0.217359
1108.642902	0.215607
1108.802833	0.221232
1108.962745	0.221514
1109.122639	0.226161
1109.282515	0.221236
1109.442372	0.219607
1109.602211	0.207495
1109.762032	0.209253
1109.921835	0.205260
1110.081620	0.207960
1110.241386	0.201501
1110.401134	0.199531
1110.560864	0.192775
1110.720576	0.199666
1110.880269	0.197657
1111.039945	0.207524
1111.199602	0.201010
1111.359240	0.208105
1111.518861	0.206134
1111.678463	0.205558
1111.838047	0.205585
1111.997613	0.212232
1112.157161	0.214670
1112.316690	0.216868
1112.476202	0.214467
1112.635695	0.222282
1112.795169	0.223722
1112.954626	0.224692
1113.114064	0.229159
1113.273484	0.231904
1113.432886	0.234172
1113.592270	0.226799
1113.751635	0.226057
1113.910983	0.221353
1114.070312	0.220119
1114.229622	0.213820
1114.388915	0.219114
1114.548189	0.219395
1114.707445	0.224531
1114.866683	0.219925
1115.025903	0.224228
1115.185104	0.228894
1115.344287	0.230957
1115.503452	0.231303
1115.662599	0.230456
1115.821727	0.223671
1115.980838	0.224693
1116.139930	0.219996
1116.299004	0.221306
1116.458059	0.213857
1116.617097	0.209793
1116.776116	0.214640
1116.935117	0.208639
1117.094099	0.208870
1117.253064	0.209414
1117.412010	0.212261
1117.570938	0.220290
1117.729848	0.224101
1117.888740	0.232604
1118.047613	0.234177
1118.206468	0.238546
1118.365305	0.243304
1118.524124	0.247971
1118.682924	0.246507
1118.841707	0.240696
1119.000471	0.230210
1119.159216	0.230075
1119.317944	0.226238
1119.476653	0.232688
1119.635344	0.234058
1119.794017	0.236749
1119.952672	0.229085
1120.111308	0.233668
1120.269927	0.239183
1120.428527	0.242425
1120.587108	0.243873
1120.745672	0.251093
1120.904217	0.246496
1121.062744	0.244280
1121.221253	0.236924
1121.379744	0.245609
1121.538216	0.248654
1121.696671	0.243407
1121.855107	0.245071
1122.013524	0.236744
1122.171924	0.231399
1122.330305	0.236081
1122.488668	0.231400
1122.647013	0.229496
1122.805340	0.227230
1122.963648	0.217778
1123.121938	0.217784
1123.280210	0.211231
1123.438464	0.216706
1123.596700	0.224006
1123.754917	0.217534
1123.913116	0.219688
1124.071297	0.223553
1124.229459	0.223908
1124.387604	0.236918
1124.545730	0.233531
1124.703838	0.242839
1124.861928	0.236996
1125.019999	0.236171
1125.178052	0.230862
1125.336088	0.235840
1125.494104	0.238916
1125.652103	0.237110
1125.810083	0.230816
1125.968045	0.230082
1126.125989	0.225968
1126.283915	0.231144
1126.441823	0.224972
1126.599712	0.237233
1126.757583	0.229887
1126.915436	0.236547
1127.073270	0.242139
1127.231087	0.250447
1127.388885	0.255931
1127.546665	0.259323
1127.704426	0.258260
1127.862170	0.251978
1128.019895	0.243947
1128.177602	0.252277
1128.335291	0.234532
1128.492961	0.230843
1128.650614	0.229484
1128.808248	0.228694
1128.965864	0.228965
1129.123461	0.235081
1129.281041	0.231916
1129.438602	0.242246
1129.596145	0.236732
1129.753670	0.250338
1129.911176	0.249562
1130.068665	0.240550
1130.226135	0.237629
1130.383587	0.229482
1130.541020	0.221681
1130.698436	0.232246
1130.855833	0.226802
1131.013212	0.224390
1131.170573	0.223048
1131.327915	0.228472
1131.485239	0.235868
1131.642545	0.239934
1131.799833	0.249040
1131.957103	0.244926
1132.114354	0.242562
1132.271588	0.241249
1132.428803	0.242872
1132.585999	0.239081
1132.743178	0.237113
1132.900338	0.233033
1133.057480	0.228949
1133.214604	0.225754
1133.371710	0.240534
1133.528797	0.249096
1133.685866	0.247103
1133.842917	0.259178
1133.999950	0.260770
1134.156964	0.260002
1134.313960	0.260647
1134.470938	0.263410
1134.627898	0.267935
1134.784840	0.254306
1134.941763	0.238743
1135.098668	0.239653
1135.255555	0.230687
1135.412424	0.233157
1135.569274	0.225622
1135.726107	0.224758
1135.882921	0.225177
1136.039716	0.221454
1136.196494	0.234995
1136.353253	0.238916
1136.509995	0.243497
1136.666717	0.238653
1136.823422	0.241948
1136.980109	0.251401
1137.136777	0.251759
1137.293427	0.252179
1137.450059	0.255329
1137.606672	0.250155
1137.763267	0.242113
1137.919844	0.245568
1138.076403	0.249819
1138.232944	0.242553
1138.389466	0.236919
1138.545971	0.245295
1138.702457	0.247439
1138.858924	0.235719
1139.015374	0.227625
1139.171805	0.239332
1139.328218	0.236911
1139.484613	0.232764
1139.640990	0.238237
1139.797348	0.235667
1139.953688	0.232119
1140.110010	0.239399
1140.266314	0.253970
1140.422600	0.264144
1140.578867	0.260598
1140.735116	0.255527
1140.891347	0.257566
1141.047559	0.252736
1141.203754	0.266571
1141.359930	0.267641
1141.516088	0.266583
1141.672228	0.257982
1141.828349	0.248154
1141.984452	0.246564
1142.140537	0.252227
1142.296604	0.253411
1142.452653	0.246407
1142.608683	0.243289
1142.764695	0.247544
1142.920689	0.248178
1143.076665	0.254007
1143.232622	0.253990
1143.388562	0.257302
1143.544483	0.249036
1143.700385	0.257352
1143.856270	0.265572
1144.012136	0.257657
1144.167985	0.253773
1144.323814	0.243523
1144.479626	0.235662
1144.635420	0.236604
1144.791195	0.234519
1144.946952	0.232873
1145.102691	0.213624
1145.258411	0.204311
1145.414113	0.205244
1145.569798	0.208536
1145.725463	0.210101
1145.881111	0.204049
1146.036741	0.217988
1146.192352	0.220608
1146.347945	0.223649
1146.503519	0.235884
1146.659076	0.242488
1146.814614	0.239846
1146.970134	0.228929
1147.125636	0.227913
1147.281120	0.241322
1147.436585	0.232030
1147.592032	0.234869
1147.747461	0.238809
1147.902872	0.239458
1148.058265	0.238275
1148.213639	0.236805
1148.368995	0.262245
1148.524333	0.255798
1148.679653	0.250563
1148.834954	0.246452
1148.990237	0.251077
1149.145502	0.255969
1149.300749	0.253063
1149.455977	0.257646
1149.611188	0.266417
1149.766380	0.253653
1149.921553	0.262138
1150.076709	0.269248
1150.231846	0.277360
1150.386966	0.270837
1150.542066	0.262079
1150.697149	0.267064
1150.852214	0.272257
1151.007260	0.274563
1151.162288	0.265816
1151.317298	0.277473
1151.472289	0.277701
1151.627263	0.280017
1151.782218	0.285106
1151.937155	0.293183
1152.092073	0.298740
1152.246974	0.297653
1152.401856	0.292763
1152.556720	0.290648
1152.711566	0.286652
1152.866393	0.284004
1153.021203	0.271584
1153.175994	0.267792
1153.330767	0.268164
1153.485521	0.265493
1153.640258	0.271733
1153.794976	0.274395
1153.949676	0.273267
1154.104358	0.265431
1154.259021	0.256469
1154.413667	0.263099
1154.568294	0.258224
1154.722903	0.246247
1154.877493	0.250933
1155.032066	0.242094
1155.186620	0.240530
1155.341156	0.239634
1155.495674	0.248848
1155.650173	0.258765
1155.804654	0.268430
1155.959118	0.269133
1156.113562	0.269421
1156.267989	0.266130
1156.422397	0.287004
1156.576788	0.294909
1156.731160	0.289167
1156.885513	0.299376
1157.039849	0.296454
1157.194166	0.276535
1157.348465	0.278853
1157.502746	0.282282
1157.657009	0.282380
1157.811253	0.247253
1157.965479	0.231465
1158.119687	0.233738
1158.273877	0.207542
1158.428048	0.212109
1158.582201	0.232826
1158.736337	0.237379
1158.890453	0.231378
1159.044552	0.231715
1159.198632	0.241007
1159.352694	0.253584
1159.506738	0.259230
1159.660764	0.278700
1159.814771	0.285108
1159.968761	0.268707
1160.122732	0.260930
1160.276685	0.276756
1160.430619	0.269744
1160.584535	0.284192
1160.738434	0.267266
1160.892313	0.264298
1161.046175	0.259226
1161.200019	0.251116
1161.353844	0.237459
1161.507651	0.256937
1161.661440	0.246962
1161.815210	0.245194
1161.968962	0.239168
1162.122697	0.259885
1162.276412	0.265428
1162.430110	0.251918
1162.583789	0.253081
1162.737451	0.281040
1162.891094	0.264394
1163.044718	0.278503
1163.198325	0.291592
1163.351913	0.294695
1163.505483	0.272440
1163.659035	0.253981
1163.812569	0.267281
1163.966084	0.262727
1164.119581	0.238804
1164.273060	0.249415
1164.426521	0.244002
1164.579964	0.237319
1164.733388	0.231319
1164.886794	0.245744
1165.040182	0.281603
1165.193551	0.293893
1165.346903	0.301214
1165.500236	0.329029
1165.653551	0.353813
1165.806848	0.377563
1165.960126	0.388619
1166.113386	0.355553
1166.266628	0.366608
1166.419852	0.356255
1166.573058	0.338077
1166.726245	0.336844
1166.879414	0.349720
1167.032565	0.338490
1167.185698	0.319596
1167.338812	0.295472
1167.491909	0.315162
1167.644987	0.307023
1167.798046	0.307133
1167.951088	0.324233
1168.104111	0.310891
1168.257117	0.288059
1168.410103	0.267957
1168.563072	0.239948
1168.716023	0.237776
1168.868955	0.253834
1169.021869	0.245674
1169.174765	0.245342
1169.327642	0.232832
1169.480501	0.236011
1169.633343	0.229069
1169.786165	0.210818
1169.938970	0.231626
1170.091757	0.263125
1170.244525	0.258772
1170.397275	0.275796
1170.550007	0.252764
1170.702720	0.268965
1170.855415	0.274651
1171.008092	0.300722
1171.160751	0.338488
1171.313392	0.365899
1171.466014	0.252467
1171.618619	0.511449
1171.771205	0.511449
1171.923772	0.511449
