sample name	sample
index	973
start time	 04-14-2021  02:37:17 PM
880	0.563316
Peak Time (s)	102.535
Peak Height 	0.5633
calc peak height	100,103
Baseline Time (s)	9.039
Baseline Value 	-0.003373
subtract baseline	10,4
Abs	0.383766
Peak Time (s)	102.535
Peak Height 	0.3838
calc peak height	100,103
Baseline Time (s)	8.537
Baseline Value 	0.001087
subtract baseline	10,3
PK_550	0.216970
Peak Time (s)	102.535
Peak Height 	0.217
calc peak height	100,103
Baseline Time (s)	11.037
Baseline Value 	1.0537E-4
subtract baseline	10,2
PK_880	0.365171
Peak Time (s)	102.535
Peak Height 	0.3652
calc peak height	100,103
Baseline Time (s)	11.037
Baseline Value 	4.7564E-4
subtract baseline	10,1


Time (s)	A880-A510	A880-A775	A880-A975	A880	I510	I775	I975	I880	
0.036500	-0.006536	-0.000864	-0.002546	0.007523	6213.255089	41497.496176	3928.237754	21864.150628
0.536500	-0.002845	-0.001094	-0.002153	0.003833	6270.020706	41806.059324	3938.124293	22025.953992
1.037500	-0.002470	0.000084	-0.001625	0.003857	6272.745929	41909.465016	3939.351446	22024.895394
1.537000	0.000766	0.001076	0.002305	0.002245	6310.593247	42143.856898	3952.937964	22096.004466
2.035000	-0.004612	0.000274	0.000344	0.007102	6231.182748	41636.209361	3936.247562	21882.516353
2.535500	-0.002372	0.000089	-0.000019	0.001047	6295.397085	42163.009410	3950.164671	22149.041878
3.036000	0.000021	0.000579	0.001744	-0.000915	6329.607547	42385.183363	3959.372093	22236.237493
3.536000	0.000713	0.000240	-0.000544	0.000504	6323.871917	42225.694553	3950.207723	22173.127075
4.036500	-0.002292	-0.000526	-0.003082	0.001797	6290.163099	42039.798851	3940.822311	22115.819538
4.536500	0.000127	0.000405	0.000755	0.000965	6315.631625	42198.967499	3952.271533	22152.683586
5.036500	-0.000088	-0.000390	-0.003971	0.000074	6320.947530	42207.652364	3942.857426	22192.228425
5.537500	0.001058	0.000278	0.001109	0.000730	6324.810134	42208.756937	3953.726407	22163.112421
6.037500	0.000344	0.001379	0.000538	0.001281	6314.848056	42258.484400	3950.958742	22138.662405
6.535500	-0.000981	0.000207	0.001895	0.000875	6307.637041	42189.249381	3955.309901	22156.699261
7.035500	0.000142	0.000765	-0.000245	0.001183	6314.033262	42211.858033	3949.274495	22143.035950
7.536000	-0.000114	0.000048	0.000232	0.000529	6317.163336	42206.124264	3952.057566	22172.023926
8.035500	-0.000041	0.000581	0.002585	0.001219	6312.318838	42191.920177	3956.167456	22141.443871
8.536500	0.000323	0.000402	0.000000	0.000283	6322.541545	42260.453896	3952.093095	22182.953934
9.039000	-0.001573	-0.000426	-0.000036	0.000000	6309.855135	42211.068697	3952.701378	22195.518373
9.536500	-0.002220	-0.000009	-0.000441	-0.000375	6307.721035	42282.876970	3952.629700	22212.200696
10.036500	0.001449	0.000140	0.004176	0.000117	6332.734064	42251.754805	3962.850806	22190.324379
10.534500	0.000447	-0.000112	-0.001502	-0.000331	6328.352918	42269.497101	3949.905690	22210.221182
11.037000	0.000000	0.000000	0.004120	0.000187	6320.754540	42232.755205	3962.537808	22187.227457
11.535000	-0.001402	0.000397	0.004307	-0.000334	6313.821645	42315.939464	3964.300859	22210.373331
12.035500	-0.002312	0.000319	-0.000169	-0.000283	6306.279297	42304.264740	3953.071698	22208.112500
12.535500	0.000571	0.000135	0.005709	0.000342	6324.031556	42230.902274	3966.114416	22180.344889
13.036000	0.000624	0.000503	-0.000377	0.000153	6325.934819	42281.368079	3951.483469	22188.726465
13.536500	-0.001398	0.000166	0.001720	-0.000470	6314.926122	42307.342911	3958.206858	22216.434578
14.036500	-0.001095	0.000137	-0.000046	0.001468	6302.092770	42129.325727	3949.062026	22130.394714
14.537000	-0.000426	0.000078	0.000981	0.002163	6301.888911	42061.269256	3949.877958	22099.645936
15.037000	0.000738	0.000909	-0.000257	0.000846	6321.373529	42255.316304	3950.073455	22157.951367
15.537500	-0.002888	0.000453	0.004947	-0.000002	6299.572001	42290.892653	3965.070453	22195.622452
16.035000	0.001530	0.001531	0.001137	0.000745	6328.417149	42320.932328	3953.757736	22162.451429
16.535500	-0.000744	-0.000003	-0.004283	-0.000387	6319.415967	42284.430613	3943.223322	22212.732642
17.035500	0.000907	0.000180	0.000799	-0.000788	6335.596049	42337.315514	3956.710672	22230.541820
17.536000	-0.000079	0.000141	0.004045	0.000378	6318.629285	42228.183065	3961.873408	22178.724748
18.035500	0.000944	0.000648	0.002008	0.001066	6321.259149	42211.800190	3955.115678	22148.204160
18.539500	-0.000686	0.000375	0.000921	0.000468	6313.144650	42241.237883	3953.910181	22174.742464
19.036000	0.000245	0.000148	0.003834	0.000575	6319.632030	42211.078218	3960.860464	22170.002420
19.537500	-0.002329	0.000305	-0.000705	0.000839	6297.362800	42201.397857	3948.990795	22158.293143
20.037000	-0.001320	0.000255	-0.000060	0.000575	6307.326706	42220.700627	3951.224488	22169.987740
20.535000	-0.000522	0.000589	-0.003690	0.000925	6310.847800	42219.278619	3941.466794	22154.484333
21.035000	0.000725	0.001464	-0.001181	0.001603	6315.315312	42237.066857	3945.944474	22124.415800
21.535500	-0.000890	-0.000010	-0.000264	0.000290	6312.938667	42222.449095	3951.425011	22182.621033
22.036000	-0.002078	-0.000012	0.002235	0.000190	6304.404444	42231.356361	3957.845248	22187.062858
22.536000	-0.001115	0.000169	0.000974	0.000811	6307.087668	42191.616238	3953.193864	22159.534090
23.039500	0.000291	-0.000563	0.000174	0.000225	6322.740859	42178.293718	3952.663800	22185.510066
23.536500	-0.001200	0.000867	0.000491	0.000938	6305.425321	42243.266249	3951.689639	22153.902635
24.036500	-0.001351	-0.000205	0.003256	0.000698	6306.123067	42167.936942	3959.118740	22164.516194
24.536500	0.000057	0.000192	-0.000307	0.000813	6316.274528	42193.499308	3950.032280	22159.435184
25.037500	-0.002276	0.000238	0.004344	0.000858	6297.627630	42193.528403	3961.422906	22157.421407
25.535000	-0.000772	0.000885	-0.001266	0.001193	6306.778915	42221.743621	3946.741248	22142.575233
26.035000	0.001078	0.000757	0.001606	0.001841	6316.217906	42151.651259	3952.209856	22113.887760
26.535500	-0.000072	0.000505	0.001571	0.000880	6314.733873	42215.676268	3954.496293	22156.443217
27.035500	0.000007	0.000660	0.004441	0.001380	6311.425730	42184.462274	3960.367444	22134.295360
27.536500	-0.000891	-0.000157	0.004112	-0.000660	6320.403345	42295.218441	3964.626561	22224.857305
28.036500	0.000217	-0.000081	-0.004893	-0.000599	6328.657225	42296.540032	3942.250503	22222.149445
28.536500	-0.001014	-0.000553	-0.000462	-0.000729	6319.975270	42265.532803	3953.448714	22227.918125
29.037500	-0.000754	0.000445	-0.003202	0.000544	6312.012802	42240.695576	3943.588839	22171.368051
29.537000	-0.000722	0.000785	0.001528	0.000216	6314.840694	42301.129347	3956.032070	22185.902679
30.037500	-0.000264	0.000029	0.005371	0.000237	6318.284859	42230.825040	3965.530783	22184.996351
30.536500	0.000602	-0.000028	-0.000638	-0.000463	6330.624817	42289.045545	3952.358170	22216.093283
31.035500	-0.003890	-0.000119	-0.003914	0.001297	6281.602097	42121.576208	3940.012231	22137.953977
31.535500	-0.001935	0.001112	0.001199	0.000623	6302.132001	42293.878777	3954.211456	22167.840947
32.035000	0.000077	0.000755	-0.002400	0.000636	6317.823927	42260.422970	3945.328084	22167.276572
32.539000	-0.000391	-0.000148	-0.000435	-0.000250	6321.118384	42258.950114	3952.334949	22206.644533
33.036500	-0.002184	0.000079	-0.000065	0.000171	6303.721026	42241.327789	3952.207446	22187.907106
33.536500	0.001052	-0.000162	-0.002287	-0.000570	6335.031458	42286.700478	3948.565701	22220.882148
34.037000	-0.002674	-0.000736	0.003315	0.000855	6294.541034	42105.860208	3958.876147	22157.569883
34.534500	-0.001029	0.000773	0.006459	0.001443	6302.810230	42189.020461	3965.236789	22131.515911
35.037000	-0.002205	0.000457	0.000407	0.001363	6294.238556	42167.730910	3950.436356	22135.070267
35.535500	-0.001117	-0.000426	-0.003006	0.001097	6304.828417	42111.993223	3942.717151	22146.831975
36.035500	0.000725	0.000539	-0.003618	0.001854	6313.342531	42130.746635	3939.376233	22113.299265
36.536000	-0.001648	-0.000079	-0.001589	0.001043	6301.095609	42148.182906	3946.319459	22149.249584
37.036000	-0.001373	0.000780	-0.003526	0.002098	6294.993220	42130.472158	3939.007635	22102.537345
37.536500	-0.001375	0.000293	0.004308	0.000937	6304.067527	42191.446846	3961.140188	22153.949683
38.036500	-0.002008	0.000227	0.003397	0.001142	6297.502429	42166.830226	3958.367876	22144.835850
38.536500	-0.000004	0.000558	-0.000613	0.001488	6310.495468	42165.542124	3947.619701	22129.516059
39.037000	-0.000204	0.000574	0.000360	0.001279	6310.563701	42185.843668	3950.525231	22138.764467
39.535000	-0.000935	0.000670	-0.002336	0.001413	6303.778537	42182.385751	3943.582900	22132.831876
40.035000	-0.001944	-0.000599	0.002646	0.000514	6302.920164	42149.029262	3958.063054	22172.709227
40.535500	0.002007	0.000944	-0.000101	0.001732	6324.385963	42178.300822	3948.278541	22118.695817
41.035500	-0.001285	-0.000144	0.001758	0.001237	6302.414963	42124.772685	3954.077051	22140.632478
41.536000	-0.000951	-0.000312	0.000615	0.000721	6309.082782	42156.268078	3952.529085	22163.512915
42.039000	0.000939	0.000336	0.001562	0.000915	6322.416641	42197.248438	3954.389291	22154.919723
42.536500	0.000816	0.000885	0.000706	0.001434	6317.357067	42199.986616	3950.997439	22131.914030
43.036500	-0.000984	-0.000080	0.002152	0.001101	6305.834966	42142.776330	3955.385332	22146.641263
43.537000	0.001067	-0.000085	0.000164	0.000958	6323.080443	42155.333793	3950.832152	22152.987762
44.034500	-0.001000	0.000437	0.001085	-0.001016	6322.348803	42381.461626	3957.987021	22240.723479
44.535000	0.000147	0.000790	0.000658	0.000026	6323.173776	42318.849085	3954.350302	22194.345677
45.035000	-0.002262	-0.000187	-0.002364	0.003457	6277.468438	41921.075598	3938.526630	22042.530013
45.535500	0.001114	0.000866	-0.001997	0.000048	6330.630005	42323.814520	3947.758995	22193.392095
46.035500	0.000620	-0.000014	-0.000714	-0.000502	6331.070136	42293.867003	3952.268762	22217.833205
46.536000	0.000856	0.000829	0.002186	-0.000064	6329.480468	42330.614886	3958.357272	22198.381569
47.036500	-0.002564	-0.000228	0.000360	0.004059	6270.451153	41863.399909	3943.704171	22016.022634
47.536500	-0.002713	0.001256	0.003397	0.002100	6284.519716	42173.332696	3955.996386	22102.442623
48.037000	-0.003195	-0.000154	0.001614	0.001151	6288.166257	42131.700054	3953.933850	22144.461109
48.537000	0.000175	0.001246	0.003850	0.000462	6319.962770	42320.728402	3961.181208	22175.010094
49.034500	-0.004409	0.000585	-0.000497	0.004369	6253.769822	41908.493232	3940.853037	22002.366327
49.535000	0.000190	0.000813	0.001174	0.000646	6318.636993	42264.798233	3954.095229	22166.851683
50.035000	0.003669	0.000968	0.005133	-0.002107	6368.033636	42529.107255	3970.802311	22289.382290
50.535500	0.001523	0.000346	0.001986	0.000093	6333.502217	42272.494651	3957.469282	22191.368207
51.036000	0.004881	-0.003693	-0.000612	-0.010163	6442.803101	42839.890866	3976.612389	22652.409418
51.539000	0.016168	-0.008604	0.018641	0.340817	4521.165562	20513.450285	3391.662451	11702.523742
52.036500	-0.001988	-0.013158	-0.031691	-0.056885	6783.181336	46415.376848	4016.778637	24896.059826
52.536500	-0.004291	-0.029486	-0.035222	-0.183218	8066.358312	58952.402809	4387.792919	32322.786563
53.036500	0.004253	-0.029557	-0.019572	-0.191841	8274.625215	60066.820983	4474.382536	32912.881094
53.534500	0.016429	-0.026871	-0.007830	-0.192761	8439.120428	60543.159861	4521.506143	32976.478074
54.034500	0.030361	-0.013497	0.009864	-0.154489	8137.282465	57332.695146	4445.609617	30439.349120
54.535000	0.035472	-0.002620	0.019586	-0.069592	7258.528739	48806.636514	4196.995840	25549.191774
55.035500	0.043605	0.006661	0.024731	-0.042374	7071.190318	46950.156398	4131.803835	24173.198970
55.536000	0.053453	0.015113	0.045601	-0.001293	6781.831695	43763.666808	4074.950489	22253.074736
56.038500	0.070150	0.022762	0.051775	0.022167	6721.870734	42303.603083	4028.376931	21235.313750
56.536000	0.084674	0.032726	0.068950	0.047728	6625.999463	40914.420252	4006.443628	20187.240843
57.036000	0.097463	0.043880	0.090046	0.064541	6591.642752	40422.613521	4017.593227	19530.733611
57.536500	0.113441	0.050470	0.106165	0.080855	6588.786351	39592.296581	4017.082701	18917.545966
58.037000	0.131136	0.062637	0.125882	0.142759	6231.882273	35624.445756	3911.955628	16789.506241
58.534500	0.140592	0.068522	0.138448	0.177420	6044.083069	33527.901734	3860.840819	15723.978420
59.034500	0.157327	0.078525	0.159016	0.205272	5964.648804	32295.598148	3844.549897	14927.287906
59.534500	0.170905	0.086496	0.172243	0.236048	5845.712136	30793.082123	3806.408177	14104.400627
60.035500	0.183992	0.094384	0.188280	0.266774	5728.508568	29365.404826	3775.646947	13339.003416
60.535500	0.200123	0.101453	0.205742	0.308483	5566.807403	27338.296782	3727.092446	12382.991822
61.036000	0.212774	0.109333	0.218758	0.331452	5504.224286	26504.615970	3707.932057	11894.430206
61.536500	0.225707	0.118108	0.233225	0.361886	5401.412462	25357.456490	3678.097736	11285.618421
62.036500	0.235751	0.125193	0.246409	0.381398	5347.493660	24724.588613	3666.573152	10917.146164
62.537000	0.252664	0.133502	0.261176	0.403507	5318.397023	24042.734087	3653.412106	10519.164779
63.037000	0.265434	0.142914	0.283426	0.410264	5352.101295	24172.251906	3681.448723	10401.522662
63.537500	0.275368	0.150820	0.290025	0.412407	5396.464106	24456.109115	3689.699782	10364.593245
64.035000	0.289542	0.151206	0.296170	0.429312	5380.826331	23652.497732	3669.921505	10079.576768
64.535500	0.301508	0.160347	0.305103	0.464229	5253.186167	22458.002054	3624.128506	9524.839668
65.036000	0.308696	0.164491	0.316825	0.488923	5160.266507	21555.229065	3602.274541	9158.593584
65.537500	0.315628	0.167824	0.324701	0.487547	5203.896394	21758.337647	3617.795130	9178.457056
66.036500	0.322764	0.167544	0.330870	0.502564	5162.490085	21106.471233	3602.945843	8965.036177
66.536500	0.328559	0.170601	0.344938	0.533507	5035.261345	19975.652293	3575.447105	8547.850234
67.036500	0.331642	0.172849	0.344026	0.586334	4804.302969	18101.011720	3494.673573	7900.852869
67.533500	0.331366	0.171764	0.345783	0.630367	4619.716945	16603.407865	3437.793322	7418.559756
68.034500	0.332954	0.170226	0.362624	0.666108	4489.745838	15478.153376	3414.099894	7061.488805
68.535000	0.329349	0.168394	0.352505	0.686739	4403.527150	14845.315657	3377.690499	6868.367415
69.035000	0.333530	0.172361	0.359206	0.691982	4399.859314	14810.364234	3379.359408	6820.737538
69.535500	0.333671	0.177091	0.364582	0.689944	4407.396622	14997.047954	3387.933087	6839.183610
70.035000	0.332550	0.177852	0.355104	0.670880	4470.929123	15560.929123	3399.235511	7016.001963
70.535500	0.335286	0.182266	0.357175	0.662269	4512.485979	15945.694393	3412.130363	7098.457204
71.036000	0.336721	0.185591	0.362509	0.657007	4537.521242	16205.705661	3425.236497	7149.643094
71.539000	0.337142	0.184332	0.355060	0.652764	4555.188864	16297.282802	3421.237187	7191.377048
72.036500	0.343401	0.190973	0.366624	0.645022	4609.383859	16747.647304	3445.774882	7268.594019
72.537000	0.339148	0.189634	0.368530	0.637273	4623.188877	16953.184029	3458.461104	7347.260666
73.037000	0.342269	0.191721	0.354736	0.633000	4652.756278	17160.147448	3445.948070	7391.241550
73.537500	0.345022	0.192507	0.373245	0.632556	4665.698328	17200.531924	3471.128751	7395.840550
74.035000	0.345229	0.193374	0.365771	0.623528	4703.621785	17529.547148	3473.243049	7490.304700
74.535500	0.347870	0.195697	0.371216	0.622311	4719.700876	17649.076326	3482.390894	7503.183390
75.038500	0.348897	0.197470	0.378937	0.619243	4736.930641	17814.136838	3497.507717	7535.827790
75.536000	0.351539	0.196760	0.366652	0.615568	4763.828059	17916.127281	3485.414080	7575.231127
76.036500	0.349742	0.197361	0.369360	0.612754	4768.194333	18034.511676	3493.142219	7605.633226
76.536500	0.349735	0.197207	0.364711	0.609893	4780.504993	18128.994026	3490.628665	7636.742340
77.037000	0.353670	0.198502	0.374586	0.607382	4808.606297	18262.796543	3508.251984	7664.210434
77.537000	0.353866	0.198384	0.370348	0.610282	4796.767538	18156.590654	3498.034631	7632.501423
78.037500	0.351243	0.197897	0.371445	0.599365	4833.315315	18526.831235	3515.329701	7752.998884
78.535000	0.357902	0.199219	0.375006	0.596969	4874.023137	18660.991341	3524.083987	7779.850927
79.035000	0.356452	0.200759	0.378502	0.594037	4880.766550	18823.879804	3533.666704	7812.921629
79.536000	0.352985	0.201620	0.370564	0.596326	4854.704629	18771.693858	3518.488341	7787.089798
80.036500	0.357868	0.201446	0.378300	0.584558	4931.059266	19200.465804	3547.749254	7921.358682
80.536000	0.358035	0.200814	0.371277	0.579490	4955.672876	19367.568048	3544.756571	7980.312081
81.037000	0.359185	0.201854	0.368850	0.575953	4977.961523	19541.766523	3546.452162	8021.858271
81.537000	0.350925	0.199414	0.369803	0.575779	4939.654903	19455.304396	3548.181871	8023.914734
82.037000	0.357438	0.202486	0.371868	0.569241	5001.846755	19825.205900	3561.521957	8101.659588
82.537500	0.357520	0.202731	0.371008	0.566286	5016.583814	19950.188274	3564.809305	8137.175455
83.034500	0.355704	0.202287	0.373695	0.564655	5015.683839	19996.773056	3571.637129	8156.886419
83.535000	0.360214	0.201802	0.374621	0.562325	5049.251595	20069.499647	3576.831040	8185.174994
84.036000	0.357150	0.202391	0.376533	0.562038	5035.562490	20104.111993	3580.361601	8188.671777
84.535500	0.355503	0.201721	0.375280	0.560614	5034.460138	20133.936060	3580.636884	8206.037262
85.036500	0.353672	0.202066	0.379624	0.559564	5030.630439	20189.304146	3589.375781	8218.889632
85.536000	0.354909	0.204753	0.372558	0.566200	5004.322859	20033.022084	3567.387480	8138.211584
86.036500	0.355148	0.203565	0.370958	0.559082	5040.254365	20268.275923	3576.159359	8224.799334
86.536500	0.356725	0.205558	0.374710	0.560017	5043.417248	20310.526037	3580.680159	8213.336387
87.034500	0.357315	0.207072	0.379976	0.561033	5041.317734	20330.494564	3587.556148	8200.924005
87.535000	0.352087	0.204947	0.370700	0.564803	4997.431319	20095.847047	3566.661248	8155.098305
88.035000	0.357897	0.206488	0.375638	0.559946	5049.558076	20350.653046	3582.290025	8214.209116
88.535500	0.355132	0.206555	0.374020	0.559311	5039.048799	20378.865243	3580.706152	8221.992779
89.038500	0.356304	0.207895	0.372354	0.559951	5041.665915	20407.026388	3577.003023	8214.148144
89.536000	0.356131	0.208470	0.371291	0.559964	5040.750871	20429.663862	3575.282111	8213.993559
90.036500	0.357667	0.209504	0.378133	0.560800	5044.203583	20437.666819	3584.944010	8203.773185
90.536000	0.357982	0.209384	0.382241	0.559316	5053.095425	20492.717434	3594.059768	8221.922421
91.036500	0.358583	0.210742	0.377389	0.560089	5052.247872	20516.425478	3584.890596	8212.463657
91.537000	0.354188	0.209936	0.376489	0.557328	5044.165044	20595.810380	3587.910700	8246.349845
92.034500	0.360592	0.210299	0.374107	0.557194	5076.673336	20616.024381	3584.263980	8247.997091
92.535000	0.356139	0.212149	0.373314	0.557214	5054.377277	20690.735061	3582.948865	8247.749288
93.035500	0.356922	0.211460	0.373579	0.555521	5066.691840	20731.864598	3586.118781	8268.643894
93.538500	0.361314	0.212963	0.375709	0.556539	5083.577277	20751.737672	3587.925057	8256.068747
94.035500	0.356912	0.212104	0.369616	0.554442	5072.027953	20802.632569	3581.454624	8282.001646
94.536000	0.361521	0.213466	0.376045	0.554428	5095.257979	20859.363629	3591.917446	8282.174670
95.036500	0.361179	0.211920	0.380963	0.552565	5102.958830	20872.475484	3603.098065	8305.319818
95.536500	0.357176	0.212635	0.376181	0.558829	5051.516330	20644.615827	3584.973979	8227.899113
96.037000	0.356787	0.212299	0.373468	0.552294	5082.166024	20899.358838	3591.193917	8308.696851
96.537000	0.360112	0.213375	0.374952	0.554190	5089.353965	20865.485438	3590.520428	8285.130334
97.035000	0.358930	0.215211	0.374975	0.556107	5073.796825	20862.136140	3587.435479	8261.408238
97.535000	0.361059	0.215426	0.386859	0.555885	5085.590326	20880.174282	3607.391213	8264.151531
98.035500	0.361578	0.214421	0.381301	0.556404	5085.589239	20817.289645	3597.303393	8257.743244
98.538000	0.364229	0.217437	0.394594	0.558363	5089.066705	20860.877098	3616.231397	8233.617378
99.036000	0.360948	0.214627	0.380767	0.556891	5079.975105	20805.673973	3595.621625	8251.732053
99.536500	0.357877	0.214195	0.378845	0.555633	5070.897784	20839.734801	3594.530703	8267.257778
100.036500	0.361704	0.216750	0.376447	0.558504	5075.676817	20826.699649	3585.932081	8231.884071
100.536500	0.358832	0.215037	0.376263	0.557826	5064.721233	20784.097786	3586.734569	8240.220256
101.037000	0.359079	0.214846	0.381062	0.559357	5058.337958	20713.399598	3592.061766	8221.423684
101.534500	0.357930	0.215008	0.375782	0.559251	5053.162669	20724.394410	3583.645800	8222.725274
102.035000	0.362290	0.215906	0.380455	0.561433	5063.984356	20671.847065	3587.685080	8196.044719
102.535500	0.365171	0.216970	0.383766	0.563316	5068.957563	20638.423211	3590.011623	8173.127821
103.035500	0.363011	0.217763	0.382299	0.564976	5049.968364	20603.073329	3584.926727	8152.995550
103.536000	0.358028	0.217023	0.375449	0.570541	4998.412917	20348.245540	3565.100820	8086.101197
104.035500	0.365451	0.218042	0.381200	0.567794	5048.101169	20500.023102	3578.610702	8119.014969
104.536000	0.360827	0.215733	0.382477	0.567387	5027.357277	20423.216251	3581.320219	8123.915915
105.036500	0.363331	0.216196	0.378652	0.568514	5034.108794	20396.484217	3573.384637	8110.367420
105.536500	0.360381	0.214798	0.379920	0.573381	4996.063397	20146.228531	3567.674640	8052.297068
106.037000	0.362297	0.216288	0.382841	0.569916	5022.176752	20343.836054	3577.838493	8093.571932
106.534000	0.362315	0.215104	0.385162	0.570635	5018.757934	20267.695859	3580.412313	8084.980573
107.038000	0.365950	0.215871	0.384777	0.572316	5028.310119	20231.246787	3577.095960	8064.949432
107.534500	0.363782	0.215862	0.387037	0.573034	5014.220509	20202.266568	3579.569475	8056.411346
108.041000	0.365772	0.215824	0.384058	0.573957	5019.419760	20164.113541	3573.325886	8045.467895
108.535500	0.365787	0.216915	0.384602	0.574856	5015.108922	20171.735452	3572.760810	8034.822449
109.036000	0.362911	0.215090	0.385770	0.573398	5008.221087	20157.140340	3576.952982	8052.093365
109.536500	0.361753	0.217574	0.376733	0.581901	4961.862174	19919.925135	3549.422226	7952.175503
110.039500	0.365560	0.216068	0.384421	0.576497	5006.035356	20073.149570	3569.866108	8015.444661
110.537000	0.358064	0.215404	0.384568	0.576061	4972.096345	20064.200940	3570.790986	8020.590524
111.034000	0.366528	0.215893	0.385946	0.577515	5005.793354	20026.105519	3570.668820	8003.464959
111.535000	0.361970	0.216768	0.387574	0.582046	4962.206403	19882.778097	3566.079491	7950.495171
112.035500	0.367187	0.216410	0.386078	0.578657	5003.453073	20001.539546	3569.068869	7990.061182
112.536000	0.362928	0.215578	0.391320	0.578483	4983.772896	19975.684593	3577.698373	7992.101553
