sample name	sample
index	524
start time	 03-11-2021  04:03:38 PM
880	0.025584
Peak Time (s)	91.535
Peak Height 	0.02558
calc peak height	90,93
Baseline Time (s)	8.537
Baseline Value 	-0.002379
subtract baseline	10,4
Abs	0.032904
Peak Time (s)	92.035
Peak Height 	0.0329
calc peak height	90,93
Baseline Time (s)	9.534
Baseline Value 	0.00163
subtract baseline	10,3
PK_550	0.026810
Peak Time (s)	92.035
Peak Height 	0.02681
calc peak height	90,93
Baseline Time (s)	9.04
Baseline Value 	2.253E-4
subtract baseline	10,2
PK_880	0.038941
Peak Time (s)	92.035
Peak Height 	0.03894
calc peak height	90,93
Baseline Time (s)	11.036
Baseline Value 	0.001315
subtract baseline	10,1


Time (s)	A880-A510	A880-A775	A880-A975	A880	I510	I775	I975	I880	
0.034500	-0.003884	-0.000837	-0.000081	0.006665	6952.885238	44589.364384	3969.786440	23764.888795
0.535000	-0.003626	-0.001091	0.000180	0.004088	6979.339314	44812.714817	3976.892939	23889.050081
1.035500	-0.002374	-0.000238	0.000230	0.003776	6994.012389	44925.162798	3977.800087	23904.116113
1.535500	-0.002214	-0.000512	0.002726	0.000949	7022.176195	45172.721889	3991.264147	24041.250086
2.036000	-0.005487	-0.000611	-0.000787	0.006634	6938.282718	44613.922702	3968.101075	23766.356702
2.539000	-0.001701	-0.001168	0.001564	0.000236	7033.788811	45178.232194	3990.121824	24075.991588
3.036500	0.000586	0.000112	0.002907	-0.001213	7069.402621	45444.572731	3997.244692	24146.785648
3.537000	-0.000743	0.000216	-0.002641	0.001051	7035.151694	45233.704651	3977.434707	24036.311868
4.037000	0.000890	-0.000021	-0.003686	0.002003	7041.614023	45118.008044	3972.427652	23990.031950
4.534500	0.000112	-0.001271	-0.000729	-0.000703	7059.987989	45259.610984	3986.685938	24121.832809
5.035000	0.000325	0.000066	-0.003582	-0.000079	7056.057003	45329.180960	3977.907002	24091.350393
5.535500	-0.001377	-0.000770	0.000863	-0.000321	7042.157022	45271.252052	3989.755412	24103.178427
6.035000	-0.000430	0.000255	-0.002032	0.000333	7044.947216	45307.421117	3980.773611	24071.269196
6.535000	0.000395	-0.000166	0.002524	-0.000115	7057.074422	45310.039141	3993.458765	24093.103222
7.039000	-0.000979	-0.000308	0.001670	-0.000008	7042.974584	45285.817922	3991.013429	24087.914192
7.536000	0.000369	-0.000007	-0.001582	0.000275	7053.106824	45287.470241	3982.053644	24074.080562
8.037000	-0.000776	0.000681	0.000910	0.000446	7040.584549	45337.943351	3987.927585	24065.764983
8.537000	-0.002128	-0.000068	0.003259	0.000000	7031.981994	45308.446588	3995.043086	24087.512857
9.040000	0.000020	0.000000	0.001575	-0.000313	7055.386827	45345.636675	3991.547692	24102.803114
9.534500	-0.001177	0.000255	0.000000	0.001530	7026.490343	45190.814157	3982.880628	24013.012317
10.035500	0.001873	0.000553	-0.003928	0.000537	7064.962877	45316.665794	3975.493063	24061.345238
10.535000	0.001318	-0.000096	-0.002090	-0.000532	7069.881933	45357.583092	3982.810379	24113.468014
11.035500	0.000000	0.000046	0.002351	-0.000569	7057.637678	45375.092623	3994.178231	24115.279683
11.539000	-0.001557	-0.000871	-0.001824	0.001683	7021.449594	45066.581221	3977.898206	24005.570369
12.036000	-0.000453	0.000091	-0.001195	0.000024	7047.665867	45321.580398	3983.665455	24086.339198
12.536000	0.002253	0.000709	0.005563	0.000065	7073.118038	45377.916899	4000.773446	24084.322565
13.037000	0.001657	-0.000286	0.003715	-0.001756	7084.867121	45458.691033	4000.704781	24173.340075
13.536500	-0.003578	-0.000364	-0.003834	0.003022	6989.781395	44985.971957	3969.510555	23940.612667
14.035000	-0.001444	-0.000444	-0.006861	0.000193	7036.647140	45253.011174	3969.017312	24078.118135
14.534500	-0.002778	-0.000165	-0.000658	0.002154	7005.468133	45089.349964	3979.647365	23982.685900
15.035500	0.000066	0.000260	0.001590	0.000458	7048.478586	45295.717773	3989.623244	24065.180910
15.557000	-0.002287	-0.000014	-0.001200	0.002209	7009.577978	45098.632086	3978.145464	23980.017930
16.038500	0.000359	0.000320	0.001993	0.000182	7053.900818	45328.524540	3991.350164	24078.620271
16.538500	-0.001488	-0.000157	-0.001824	0.000057	7037.515592	45294.174385	3981.992931	24084.722006
17.038500	-0.000187	0.000000	-0.001855	-0.000001	7050.446970	45315.201855	3982.063112	24087.584988
17.536500	0.000669	0.000385	0.002089	-0.000053	7059.100267	45357.815290	3992.194654	24090.113929
18.037000	0.000183	0.000236	0.004514	0.001541	7039.287429	45187.872456	3994.310847	24012.451792
18.537000	-0.002601	0.000991	0.000870	0.001168	7016.444864	45297.817843	3985.996080	24030.609872
19.034000	-0.000783	-0.000068	-0.000219	0.000875	7036.435276	45223.097568	3983.982068	24044.849320
19.535000	0.001309	0.000626	0.000500	0.001648	7048.991841	45215.487009	3983.846974	24007.296665
20.035500	0.000388	0.000712	-0.000653	0.001707	7039.667330	45218.111460	3980.786073	24004.429291
20.538000	-0.001281	-0.000058	-0.000911	0.001077	7029.805947	45204.506718	3981.725309	24035.060122
21.036000	0.001262	0.000527	0.000398	0.001978	7045.399303	45173.750674	3982.755828	23991.251627
21.536500	-0.001510	-0.000127	0.004336	0.001219	7026.285594	45183.913174	3994.679135	24028.131834
22.036500	-0.000906	0.000838	-0.000244	0.001796	7026.547360	45221.684057	3981.595482	24000.106796
22.537000	0.000474	0.001023	0.008328	0.002105	7036.699265	45209.565739	4002.638386	23985.078541
23.037000	0.000220	0.000527	-0.003519	0.001698	7038.151429	45200.918521	3973.606331	24004.835919
23.534500	0.000151	0.000797	0.000555	0.001957	7035.034497	45201.970725	3983.203988	23992.258579
24.035000	0.001275	0.000726	-0.000544	0.001964	7045.647186	45194.444506	3980.411691	23991.913855
24.535000	-0.001072	-0.000325	0.000464	0.001260	7030.050123	45160.740900	3984.737150	24026.152679
25.038500	0.000319	-0.000375	-0.000217	0.001040	7045.346140	45177.241477	3983.571244	24036.847785
25.536000	0.000784	0.000434	-0.004889	0.001881	7041.771883	45174.169586	3969.725969	23995.976273
26.036000	0.000989	0.000638	-0.002540	0.001604	7046.357333	45220.910083	3976.297962	24009.406583
26.536500	-0.001182	0.000441	0.002611	0.001117	7030.351811	45249.088514	3990.544594	24033.079645
27.036500	-0.000748	0.000914	0.001000	0.002164	7024.553087	45193.232815	3983.806109	23982.206173
27.536500	-0.000642	-0.000420	0.000897	-0.000496	7050.823808	45322.466470	3990.288178	24111.729329
28.037000	0.002664	0.000688	0.003952	-0.001387	7091.002317	45518.066264	4000.367356	24155.288479
28.535000	-0.000612	-0.000374	0.000157	-0.000267	7048.920446	45304.589902	3987.826454	24100.519332
29.043000	0.000186	-0.000251	0.002939	0.000200	7052.075225	45271.015625	3993.714062	24077.747121
29.538500	0.001894	0.000607	0.004988	0.000731	7063.307891	45302.976584	3997.595337	24051.886711
30.035500	0.001189	0.000571	-0.001455	0.001339	7050.782404	45240.193827	3979.692293	24022.305818
30.535500	0.000520	-0.000505	0.000937	-0.000167	7058.768786	45282.112134	3989.554200	24095.671445
31.044500	-0.000935	0.000076	0.006744	-0.000222	7045.419166	45344.133423	4004.549011	24098.321909
31.536500	-0.001730	0.001042	0.002834	0.003482	7002.829870	45077.548896	3985.108606	23918.322383
32.037000	-0.001814	-0.000283	0.001347	0.001698	7018.877785	45122.192070	3985.862036	24004.845244
32.548500	-0.000215	-0.000747	0.001632	-0.000562	7055.520180	45297.052860	3992.326891	24114.957130
33.053500	0.000137	0.000707	0.000430	0.000385	7049.844285	45346.437767	3986.864376	24068.731026
33.534500	-0.003784	-0.000245	0.000015	0.003133	6986.809130	44986.770101	3978.878908	23935.245802
34.038000	0.000233	-0.000141	0.002486	0.000600	7048.711597	45242.832250	3991.542201	24058.263988
34.541000	0.000561	0.000959	0.001430	0.000762	7050.298991	45334.286288	3988.446150	24050.362858
35.036000	0.000418	0.000636	0.004856	-0.001407	7069.643290	45514.849829	4002.739517	24156.237554
35.536000	-0.000052	0.000220	0.003043	0.002037	7032.352458	45138.087918	3989.303705	23988.381427
36.036000	-0.001050	-0.000192	-0.004073	0.002173	7021.614470	45084.923376	3971.035368	23981.799423
36.537000	-0.002255	-0.000493	0.000096	0.001542	7016.174402	45116.873843	3983.091066	24012.407004
37.036500	0.000489	-0.000275	0.005867	0.002156	7036.352122	45078.481734	3996.198319	23982.610096
37.537000	-0.001474	-0.000064	0.002790	0.001869	7020.480052	45126.876601	3989.089652	23996.557642
38.035000	0.000480	0.000925	-0.002372	0.002680	7031.296204	45144.182389	3974.022043	23957.189383
38.537000	-0.003150	0.000884	0.003941	0.002573	6998.028456	45150.599037	3990.225657	23962.385624
39.035000	-0.000588	0.001007	0.002785	0.002856	7019.518267	45135.051275	3986.571364	23948.658271
39.535500	0.000133	0.000640	-0.004268	0.002622	7028.557741	45122.097422	3969.426483	23959.996985
40.035500	-0.001402	0.000142	0.003509	0.002116	7018.814641	45122.822946	3990.288092	23984.528730
40.536000	-0.000188	-0.000055	0.001732	0.001784	7033.459949	45136.063673	3986.620044	24000.688646
41.036500	0.001066	-0.000019	-0.000705	0.002289	7040.570764	45090.472500	3979.188980	23976.146552
41.536500	-0.000662	0.000192	-0.000712	0.002263	7024.434556	45113.435867	3979.237368	23977.427352
42.037000	0.000081	0.001016	0.004711	0.002782	7026.550424	45143.037569	3991.652128	23952.238892
42.537000	-0.000266	-0.000095	0.003890	0.002209	7028.694306	45090.865887	3991.020039	23980.040728
43.037500	-0.000975	0.000142	-0.001102	0.002310	7021.021025	45104.009805	3978.137580	23975.137407
43.535000	-0.001809	0.000551	0.001883	0.002268	7013.536040	45147.761742	3985.774882	23977.147303
44.035000	-0.003274	0.000045	-0.003535	0.001975	7002.484703	45127.165616	3972.875297	23991.387568
44.535500	0.000321	-0.000236	-0.001032	0.001724	7038.865629	45124.270387	3979.788019	24003.596117
45.036000	-0.000829	0.000549	0.000642	0.002004	7025.295103	45173.332825	3983.303243	23989.970917
45.536500	-0.002102	0.000106	-0.002135	0.003380	7000.292450	44996.691559	3972.861921	23923.253108
46.036500	0.001441	0.000833	0.003029	0.000836	7057.983883	45314.793490	3992.324859	24046.793433
46.538000	0.000241	0.000672	0.003399	0.000426	7050.452207	45338.994677	3994.312344	24066.731625
47.037000	-0.000792	0.000363	-0.000227	-0.000128	7045.889534	45363.038649	3986.502164	24093.767521
47.540000	-0.001469	-0.000049	0.001654	0.005046	6990.576130	44820.765436	3978.188223	23842.775907
48.037500	-0.000222	0.001215	0.001591	0.000884	7041.681910	45347.340758	3988.545318	24044.428884
48.534000	0.000289	0.000730	0.002311	0.000136	7053.667857	45373.055121	3992.278658	24080.880109
49.035500	-0.001171	-0.000145	-0.000793	0.001557	7026.295723	45149.285008	3980.810500	24011.691656
49.535500	-0.002386	-0.000332	0.002704	0.003152	6999.763780	44976.391480	3985.616877	23934.297812
50.035500	-0.000279	-0.000243	0.001525	-0.000184	7051.310481	45309.318396	3991.091562	24096.495354
50.536500	0.000356	0.001045	0.003676	0.000494	7050.897426	45368.829346	3994.844508	24063.406452
51.039500	0.000709	0.000653	0.002238	-0.000073	7059.669848	45385.936134	3992.623742	24091.079456
51.537000	-0.000707	-0.000106	0.000738	0.002795	7018.975416	45032.974553	3981.551002	23951.619442
52.040000	0.001067	0.000342	0.004077	-0.001368	7075.487618	45482.257444	4000.639781	24154.366150
52.534500	-0.001412	0.000516	0.004269	0.002634	7013.831354	45108.913074	3990.903054	23959.419076
53.035000	0.012474	0.002878	0.003922	-0.003202	7204.351284	45912.529804	4004.956599	24244.298083
53.535500	-0.039315	-0.011836	-0.009696	0.104449	5885.718259	35360.001053	3732.339099	19558.801390
54.035500	-0.061696	-0.028229	-0.010229	-0.065016	7083.977917	49061.119971	4134.751435	27508.718804
54.536000	-0.041474	-0.017904	-0.012840	-0.102289	7674.372653	54403.816897	4238.502164	29713.828078
55.036500	-0.023422	-0.027539	0.002666	-0.154564	8511.348174	59713.446075	4466.949751	33143.316005
55.536000	-0.024322	-0.044053	0.002868	-0.192239	9006.053709	62548.437969	4611.025715	35883.887585
56.036500	-0.033812	-0.029482	-0.002622	-0.148393	8301.877237	58662.425860	4425.783106	32716.647987
56.540000	-0.031509	-0.021234	-0.002848	-0.119923	7986.787088	56127.258471	4327.331705	30824.914542
57.034500	-0.019719	-0.020917	-0.011562	-0.147706	8470.825832	59682.639897	4392.025957	32669.560344
57.537500	-0.009336	-0.022420	-0.005470	-0.162028	8796.144074	61382.543369	4464.507117	33667.552312
58.035000	-0.000119	-0.018116	-0.004488	-0.156979	8852.878565	61282.346549	4449.792098	33311.933266
58.535500	-0.002781	-0.012567	-0.001216	-0.136562	8545.472121	59318.660414	4389.262958	31915.430550
59.035500	0.004987	-0.005319	0.003857	-0.121527	8452.002200	58316.682916	4355.172688	30928.182239
59.536000	0.014245	-0.002691	0.006743	-0.119120	8540.075928	58344.829395	4356.791643	30773.283012
60.036500	0.017781	-0.000622	0.003835	-0.115334	8536.826433	58126.283117	4334.295450	30531.375774
60.536500	0.022799	0.003749	0.008327	-0.104150	8457.552004	57267.252379	4312.151243	29828.976753
61.039500	0.015061	0.008517	0.011523	-0.047815	7697.029442	51184.432777	4147.907747	26553.222856
61.537500	0.013584	0.009989	0.011176	-0.024569	7432.291001	48825.024683	4081.182734	25320.555120
62.037500	0.012646	0.008552	0.012093	-0.041732	7604.324314	50517.101622	4131.988367	26224.240320
62.535000	0.017644	0.010809	0.010272	-0.052722	7780.252248	51990.832857	4158.574242	26821.943720
63.035000	0.014714	0.011864	0.013456	-0.036253	7567.628607	50280.351380	4120.234770	25931.861914
63.535000	0.012754	0.012848	0.014968	-0.018841	7364.559869	48522.934818	4075.866502	25026.809968
64.036000	0.025187	0.022180	0.016573	0.021608	7086.458221	45370.848611	3974.063735	23059.244796
64.555000	0.034185	0.020454	0.018534	-0.023125	7636.103336	49788.253472	4097.568849	25246.148583
65.036500	0.035387	0.022332	0.018558	-0.019336	7608.057468	49582.530143	4087.111226	25052.060369
65.541500	0.038154	0.024401	0.017117	-0.011107	7549.376878	48925.547488	4060.663955	24636.328019
66.042500	0.041005	0.024981	0.020666	-0.009347	7561.037816	48800.697738	4065.510079	24548.383116
66.537000	0.040426	0.024874	0.018611	-0.005514	7514.065003	48386.602057	4049.627725	24358.213510
67.035000	0.041683	0.025470	0.022093	-0.001024	7479.932706	47980.828323	4046.928744	24137.511401
67.535000	0.036669	0.026007	0.018428	0.008450	7330.100982	47063.382346	4012.335901	23679.312901
68.035500	0.040563	0.026367	0.024860	0.006749	7387.365526	47273.310136	4033.624790	23760.835794
68.535500	0.040404	0.026814	0.019213	0.010534	7346.927031	46933.864033	4008.972589	23579.860660
69.036500	0.040520	0.027549	0.020198	0.014379	7309.008415	46619.787668	4001.598330	23397.561436
69.536000	0.039248	0.027544	0.021691	0.022314	7216.792876	45828.460187	3985.173072	23026.492018
70.039500	0.038663	0.027274	0.025223	0.020563	7228.369276	45975.043064	3998.625030	23107.809489
70.537000	0.038502	0.026648	0.025452	0.022269	7209.852372	45744.446510	3994.846918	23028.583614
71.037000	0.038437	0.027153	0.020866	0.024933	7182.937661	45532.296243	3976.493304	22905.529692
71.535000	0.034215	0.027334	0.022021	0.032955	7064.235979	44770.035188	3959.384486	22539.415059
72.035000	0.036971	0.027651	0.024132	0.029253	7126.431981	45159.033887	3973.847737	22707.520920
72.535500	0.038611	0.027975	0.026133	0.031176	7123.690158	45003.829007	3974.043750	22620.041790
73.035500	0.036312	0.028135	0.028089	0.032558	7088.152437	44885.680050	3975.483975	22557.394824
73.535500	0.034171	0.027502	0.020877	0.039007	7006.381350	44207.137816	3941.745158	22267.678309
74.036000	0.037332	0.027739	0.024963	0.034724	7077.146803	44638.840496	3962.288140	22459.592173
74.539000	0.036926	0.028340	0.023761	0.035490	7065.920116	44623.070973	3957.422323	22425.135295
75.036500	0.038357	0.028063	0.026868	0.035993	7074.807362	44548.299080	3963.866229	22402.557408
75.539500	0.034751	0.027497	0.024671	0.041745	6986.094586	43947.276165	3944.316791	22145.985504
76.037000	0.037198	0.028269	0.029177	0.036765	7056.337841	44494.000906	3967.686033	22367.887591
76.534500	0.035417	0.027970	0.025563	0.035940	7047.234185	44544.430839	3960.762724	22404.931344
77.035000	0.036686	0.028160	0.028823	0.036308	7055.812085	44527.305228	3967.943138	22388.389012
77.535500	0.035842	0.027889	0.020578	0.041961	6994.305529	43963.917349	3933.866984	22136.404163
78.036000	0.038226	0.028437	0.031527	0.035324	7079.966049	44648.275861	3977.170166	22432.602058
78.536000	0.039572	0.028058	0.026574	0.034580	7100.064518	44683.378529	3966.643722	22466.063265
79.039000	0.037850	0.028798	0.033039	0.034037	7088.710160	44806.889182	3984.224524	22490.557142
79.536500	0.034695	0.027910	0.025038	0.037800	7022.722553	44360.917100	3954.875185	22321.572778
80.037000	0.039760	0.028595	0.025696	0.032623	7120.803419	44923.829176	3969.334820	22554.463073
80.537000	0.038953	0.028276	0.031194	0.030976	7128.938818	45052.360746	3987.302932	22629.104062
81.037500	0.039821	0.028271	0.031441	0.030318	7143.778794	45115.759199	3989.601383	22659.025684
81.535000	0.035730	0.027163	0.021568	0.033689	7071.710243	44682.920158	3956.454324	22506.246205
82.035500	0.040719	0.028182	0.028524	0.027688	7178.291685	45363.279178	3988.872449	22779.033192
82.535500	0.041586	0.028426	0.026431	0.026541	7198.109811	45499.324186	3986.472488	22831.579115
83.035500	0.039261	0.027883	0.030753	0.025490	7185.563473	45549.195369	4000.170965	22879.861742
83.538500	0.040060	0.028383	0.032004	0.024500	7203.206441	45695.676695	4005.936941	22925.476545
84.036500	0.040706	0.027800	0.028507	0.022617	7228.262257	45823.816324	4001.782483	23012.474687
84.539500	0.039971	0.028211	0.028612	0.022374	7223.374180	45888.423759	4002.674673	23023.725232
85.037000	0.040524	0.026781	0.029442	0.020673	7245.798601	45915.265474	4009.204148	23102.703091
85.537000	0.041345	0.027037	0.029478	0.019790	7262.834784	46028.134107	4011.583814	23143.821840
86.037500	0.040846	0.027004	0.033279	0.019870	7257.044459	46016.928466	4021.269314	23140.092049
86.535000	0.040591	0.027359	0.026622	0.019953	7253.660573	46043.970592	4003.786338	23136.230325
87.035000	0.037346	0.026167	0.030603	0.017913	7241.636730	46128.263397	4019.390104	23231.496128
87.538500	0.039750	0.026827	0.031540	0.018237	7262.408191	46161.578797	4020.989298	23216.305290
88.038500	0.038399	0.026123	0.033120	0.017234	7258.934925	46191.421687	4027.762572	23263.295836
88.536000	0.039364	0.027236	0.030153	0.018498	7255.933263	46176.362986	4016.690813	23204.103234
89.036500	0.037201	0.026812	0.033536	0.017363	7245.672956	46247.219689	4028.515777	23257.253629
89.537000	0.035284	0.026350	0.025821	0.019668	7203.755615	45972.164808	4002.458519	23149.518116
90.037000	0.038724	0.026498	0.030634	0.018327	7251.249589	46119.907502	4018.391361	23212.103660
90.537500	0.037979	0.025694	0.028100	0.018189	7245.199030	46053.774861	4012.161439	23218.578784
91.035000	0.038768	0.026504	0.030811	0.018947	7245.500520	46058.919850	4017.235439	23183.121093
91.535500	0.036568	0.025919	0.028478	0.025584	7158.240303	45347.778841	3994.112492	22875.577657
92.035500	0.038941	0.026810	0.032904	0.020618	7230.581342	45923.599506	4018.335605	23105.266264
92.538500	0.037328	0.026460	0.028049	0.020754	7213.223560	45875.532748	4005.397633	23098.913656
93.036000	0.036934	0.025634	0.027641	0.021704	7199.950028	45700.313105	4001.902618	23054.809586
93.536500	0.032409	0.025081	0.029181	0.028141	7093.100298	45017.532059	3989.392063	22758.327793
94.037000	0.040712	0.026521	0.028224	0.024027	7214.331544	45559.108551	3997.441084	22947.299260
94.536500	0.038272	0.026097	0.031123	0.024536	7185.216675	45467.624062	4003.573714	22923.810891
95.037000	0.038810	0.026218	0.032271	0.025394	7182.069604	45395.475576	4004.319931	22884.286902
95.535000	0.034769	0.025658	0.028147	0.031857	7080.055429	44714.407091	3977.387232	22589.113130
96.062500	0.036991	0.026036	0.028228	0.027386	7144.784108	45183.588068	3988.888147	22792.871963
96.562500	0.037635	0.026261	0.029312	0.028141	7143.694652	45131.970192	3989.723015	22758.306255
97.038500	0.037285	0.025946	0.030211	0.029009	7131.846900	45017.207264	3989.800787	22718.639320
97.536500	0.033877	0.025550	0.024593	0.035285	7038.821704	44375.702533	3959.982700	22434.368665
98.036500	0.035868	0.026571	0.033113	0.031438	7094.652020	44842.773260	3991.005079	22608.139908
98.536500	0.036334	0.025633	0.030664	0.031643	7097.171357	44732.635207	3984.274255	22598.851731
99.037000	0.035303	0.026097	0.030024	0.033078	7073.477731	44639.296908	3979.037516	22533.862959
