sample name	sample
index	480
start time	 03-11-2021  01:07:30 PM
880	0.480145
Peak Time (s)	92.537
Peak Height 	0.4801
calc peak height	90,93
Baseline Time (s)	10.036
Baseline Value 	-0.006092
subtract baseline	10,4
Abs	0.307324
Peak Time (s)	92.537
Peak Height 	0.3073
calc peak height	90,93
Baseline Time (s)	10.036
Baseline Value 	0.003106
subtract baseline	10,3
PK_550	0.137346
Peak Time (s)	90.535
Peak Height 	0.1373
calc peak height	90,93
Baseline Time (s)	11.537
Baseline Value 	4.7221E-4
subtract baseline	10,2
PK_880	0.294524
Peak Time (s)	92.537
Peak Height 	0.2945
calc peak height	90,93
Baseline Time (s)	8.536
Baseline Value 	0.002963
subtract baseline	10,1


Time (s)	A880-A510	A880-A775	A880-A975	A880	I510	I775	I975	I880	
0.035500	-0.000684	-0.000458	-0.002485	0.001643	7067.822292	45566.865614	3977.783028	24211.678437
0.536000	-0.002249	-0.000126	-0.004248	0.004520	7025.062290	45317.712359	3965.614855	24070.706508
1.036500	-0.004242	-0.000965	-0.004531	0.006676	6985.504846	45026.328564	3959.269085	23965.665888
1.537500	-0.000858	0.000005	0.003262	0.000701	7075.255052	45704.967991	3995.554128	24258.012078
2.037000	-0.000885	0.000344	-0.001782	0.000554	7076.426576	45753.022005	3982.518640	24265.298150
2.537000	-0.000904	-0.000595	0.000926	0.000007	7081.549936	45714.290635	3991.166992	24292.250574
3.035000	-0.003518	-0.000690	-0.000318	0.001678	7040.150989	45540.628151	3983.418799	24209.938966
3.537500	-0.001214	0.000339	-0.002714	0.001099	7067.957177	45698.721853	3978.614075	24238.417680
4.035500	-0.000741	-0.000621	0.001402	0.000824	7075.199418	45631.337952	3990.258036	24251.970658
4.535500	-0.000942	-0.000149	0.001668	0.001039	7071.180930	45656.651604	3990.396056	24241.412984
5.035000	-0.000655	-0.000603	-0.000465	0.000725	7077.001740	45642.914512	3985.557214	24256.864295
5.536000	-0.001965	-0.000577	-0.001563	-0.000270	7073.949879	45743.460791	3985.284273	24305.954166
6.036500	-0.000019	0.000198	0.000280	0.000365	7086.668158	45757.147803	3988.491594	24274.593515
6.536500	-0.001298	-0.000367	-0.000272	-0.000146	7079.207679	45751.838475	3988.385281	24299.813747
7.037000	0.000717	0.000189	0.001792	0.000449	7093.006966	45747.967342	3992.300072	24270.444104
7.537000	0.000354	-0.000221	0.002615	0.000373	7090.218007	45715.080100	3994.700927	24274.194166
8.037500	-0.001182	-0.001172	0.001027	-0.000731	7086.013002	45730.182857	3993.407072	24328.708718
8.535500	0.000000	0.000604	-0.000906	0.000556	7085.000771	45778.438343	3984.835579	24265.200388
9.035500	-0.001085	-0.000203	0.003447	0.000233	7077.599385	45730.691089	3997.305629	24281.098814
9.535500	-0.000603	0.000600	0.002582	0.000181	7082.776452	45815.006617	3995.127605	24283.653289
10.035500	-0.000078	0.000270	0.000000	0.000000	7089.644720	45800.318121	3988.719109	24292.601164
10.536000	0.001011	-0.000569	-0.003999	-0.000401	7104.161714	45757.148353	3979.181320	24312.403269
11.036500	0.000392	-0.000303	0.004920	-0.000223	7096.388974	45765.798757	4002.490004	24303.615668
11.536500	0.001287	0.000000	-0.001004	-0.000321	7106.073426	45805.353942	3986.902315	24308.447907
12.036500	0.000007	-0.000068	0.004873	-0.000248	7092.884976	45791.400418	4002.431632	24304.847618
12.537000	-0.000142	0.000106	0.004462	-0.000536	7094.240793	45837.079445	4002.099768	24319.087487
13.035000	-0.001233	0.000155	0.003271	-0.002112	7098.964044	45997.944889	4003.138395	24397.097985
13.535500	-0.004574	-0.000561	-0.003253	0.004427	7003.730982	45284.363486	3968.456298	24075.242757
14.035500	-0.001333	0.000689	0.001846	0.001846	7059.586792	45659.679531	3988.718798	24201.700634
14.536000	-0.002574	-0.000577	0.000474	0.001351	7052.392872	45583.950923	3986.388484	24226.052979
15.036000	0.000264	-0.000098	-0.000635	-0.000873	7101.481157	45850.216935	3989.351646	24335.716208
15.538500	-0.001294	0.000292	-0.000440	0.003267	7046.263210	45481.129469	3978.892283	24131.969497
16.037000	-0.000156	0.000782	0.002227	-0.000250	7091.319618	45875.644498	3995.332949	24304.953682
16.537000	-0.000193	0.000092	0.000981	-0.001165	7099.869701	45897.946447	3994.447283	24350.190254
17.037000	0.000867	0.000343	0.002492	-0.001198	7110.541877	45926.040795	3998.583407	24351.824173
17.537500	-0.000954	0.000067	-0.000301	0.002466	7057.268004	45537.673302	3981.378795	24171.272905
18.035000	-0.000514	-0.000113	0.002663	0.000340	7082.105435	45729.061328	3994.920920	24275.843093
18.535500	-0.000923	0.000587	-0.000799	0.001011	7071.622987	45731.858248	3983.911664	24242.758016
19.035500	-0.000652	-0.000115	-0.003094	0.000712	7077.158513	45692.181956	3978.634352	24257.513463
19.536000	-0.002887	-0.000594	-0.004933	0.000568	7056.922985	45659.147112	3974.167947	24264.571284
20.036500	-0.000737	-0.000741	0.002025	0.000086	7082.402034	45692.147349	3993.893034	24288.369962
20.536000	0.002586	0.000448	-0.000524	0.001089	7104.984266	45710.391962	3984.431434	24238.903181
21.037000	-0.000864	0.000080	0.004080	0.000904	7073.242053	45692.494776	3997.203517	24248.047993
21.537000	-0.000742	-0.000574	-0.002514	0.001014	7073.357422	45617.276706	3979.367349	24242.636578
22.037000	0.001114	0.000155	0.004015	0.001200	7089.568681	45670.725576	3996.235587	24233.464606
22.534500	-0.000839	-0.000846	-0.001540	0.000305	7079.286782	45660.255146	3983.816403	24277.530680
23.035000	0.000070	0.000303	0.001938	0.001000	7081.358972	45704.978666	3991.219133	24243.295675
23.535000	-0.002281	-0.000292	0.000394	0.001070	7057.918862	45639.453080	3986.918995	24239.840945
24.035000	-0.001086	-0.000103	-0.001671	0.000519	7074.825890	45712.362429	3982.904900	24267.027485
24.536000	-0.001169	0.000126	0.001379	0.001159	7067.810384	45671.786186	3989.304084	24235.461206
25.036500	-0.000709	-0.000181	0.003910	0.000982	7073.984415	45659.069877	3996.537843	24244.187384
25.537000	-0.001011	0.000747	0.001127	0.001758	7063.554686	45674.125118	3987.041454	24206.042109
26.036500	0.001102	0.000294	0.000400	0.001113	7090.297999	45692.901382	3986.823735	24237.743544
26.539500	-0.000370	0.000746	0.001248	0.001349	7073.708074	45714.193168	3988.448026	24226.110071
27.034000	-0.001220	0.000530	0.002834	0.000694	7071.825414	45757.538828	3994.428571	24258.381831
27.535000	0.001529	-0.000309	-0.000266	-0.002001	7124.884014	45940.928237	3993.345016	24391.564201
28.035000	0.002731	0.000254	0.003530	-0.000623	7123.154323	45860.268362	3999.825725	24323.361674
28.536000	0.000238	0.000079	0.003616	-0.000197	7094.633690	45800.911771	3998.912638	24302.309985
29.035500	0.000797	0.000269	0.001989	-0.000024	7098.402714	45802.604594	3994.090252	24293.801502
29.536500	0.000664	0.000783	0.001143	-0.000037	7097.232870	45854.707464	3991.866474	24294.450969
30.036500	0.001241	0.000048	0.003930	-0.001126	7113.497787	45889.667310	4002.257463	24348.257093
30.536500	-0.001008	0.000306	0.001845	0.000864	7072.223597	45718.582768	3991.331607	24249.985125
31.053000	0.000478	-0.000049	-0.002406	-0.000458	7099.518407	45814.066053	3983.547352	24315.231995
31.537500	-0.002448	-0.001653	-0.000441	0.001507	7052.095878	45463.063110	3983.546147	24218.360250
32.037500	-0.000220	-0.000620	0.003085	-0.000912	7097.141465	45802.508316	3999.407086	24337.652470
32.554000	-0.000280	-0.000538	0.001205	0.002086	7067.447479	45515.556529	3986.374885	24189.894467
33.036000	0.001734	0.000784	0.006809	0.000209	7105.260163	45830.369844	4006.419511	24282.276889
33.535500	-0.000856	0.000647	0.000278	0.004919	7034.592637	45354.279370	3976.433193	24051.240911
34.039000	0.001518	-0.000772	0.001862	-0.000819	7113.204548	45778.265033	3995.878108	24333.056899
34.536000	0.000136	-0.000285	-0.001639	0.002131	7071.040709	45535.912785	3978.728494	24187.693439
35.036000	-0.000199	-0.000095	-0.003523	0.001927	7069.767898	45574.627291	3974.304246	24197.728936
35.537000	-0.000977	-0.000171	0.005279	0.001376	7067.571000	45621.357900	3999.154715	24224.818020
36.037000	0.000125	0.000921	-0.000692	0.002374	7068.575919	45630.508844	3980.584345	24175.744211
36.534500	0.000918	-0.000257	0.000095	0.001786	7081.965214	45572.583672	3984.227072	24204.658132
37.035000	0.000099	0.000185	0.000373	0.001849	7073.412512	45609.786778	3984.798913	24201.562416
37.535000	-0.000330	-0.000083	-0.000112	0.001134	7076.177212	45653.745059	3985.406508	24236.703237
38.035500	0.000203	0.000774	0.000791	0.002462	7068.486687	45607.510449	3984.279970	24171.460455
38.535500	-0.001422	0.000262	-0.003449	0.002742	7050.089302	45529.670785	3972.356198	24157.723240
39.036000	-0.001437	-0.000122	-0.003171	0.001394	7062.949779	45624.365136	3976.632374	24223.933437
39.536000	-0.000577	-0.000406	-0.003379	0.001885	7066.519737	45548.206465	3974.790948	24199.781970
40.036500	-0.001631	-0.000256	0.005627	0.001362	7061.380961	45614.277838	4000.125503	24225.477263
40.537000	0.000979	0.000305	0.002670	0.002027	7080.218675	45604.126746	3990.430845	24192.790603
41.037500	0.000531	0.000153	-0.000757	0.001633	7079.692573	45627.814849	3982.373631	24212.144057
41.535000	-0.001820	0.000207	-0.000348	0.002415	7049.405242	45556.388097	3981.388194	24173.755249
42.035000	0.000388	0.000285	0.001430	0.002255	7072.273450	45579.739431	3986.525454	24181.607346
42.535500	-0.000844	-0.000240	-0.001933	0.001666	7066.045959	45585.947703	3979.178773	24210.518830
43.035500	0.001658	0.000131	0.000056	0.001861	7088.423837	45603.293390	3983.924368	24200.958845
43.535500	-0.001395	-0.000646	0.000959	0.001713	7060.279795	45541.636447	3986.714789	24208.256831
44.036000	-0.001486	-0.000374	0.000981	0.001676	7059.748506	45571.900373	3986.870918	24210.044939
44.536500	0.001925	0.000659	0.000189	-0.002873	7137.332968	46123.516134	3996.896079	24434.830523
45.040000	0.003389	0.000978	0.003298	0.000202	7121.519101	45850.284355	3996.987140	24282.613670
45.536500	-0.001762	0.000326	-0.002452	0.004965	7025.452370	45318.322892	3969.144057	24048.955357
46.037500	-0.000643	-0.000202	0.002555	-0.000817	7092.095528	45834.381366	3997.729381	24332.955800
46.534500	-0.001609	0.000052	0.003136	0.004103	7035.198336	45375.847829	3986.147388	24091.077172
47.035500	0.001162	0.000572	-0.001156	0.000570	7096.171527	45773.837090	3984.133085	24264.496351
47.535000	-0.001440	-0.000080	-0.000457	0.005606	7022.399521	45216.313993	3972.690988	24017.715601
48.043500	0.001651	0.000532	0.002116	-0.000278	7109.211752	45853.660185	3995.110856	24306.340188
48.536000	-0.001157	0.000015	0.002770	0.004311	7037.534861	45351.868183	3984.623849	24080.897675
49.036000	0.000248	0.000182	0.000635	0.000691	7086.095859	45723.499112	3988.568540	24258.518850
49.542000	-0.001947	-0.000194	-0.000315	0.005732	7016.351778	45192.988679	3972.735177	24011.611491
50.037000	-0.001422	0.000162	0.004185	-0.000322	7079.711201	45821.425444	4000.777199	24308.479855
50.535000	-0.001577	-0.000134	0.000767	0.004846	7028.375769	45285.124185	3977.913836	24054.789042
51.035000	0.001964	0.000664	0.002226	-0.001648	7125.682257	46002.358934	3999.074843	24374.067775
51.535000	-0.000931	0.000426	-0.001103	0.006949	7014.427961	45134.883329	3967.483858	23952.388446
52.035000	0.001561	0.000561	0.000351	0.002478	7081.486940	45584.907894	3983.069739	24170.645122
52.535500	-0.003029	-0.001668	0.000025	0.014063	6927.340821	44249.267281	3951.948620	23609.699292
53.036000	-0.029659	-0.005556	-0.021543	0.252426	5072.012439	26581.438293	3447.880626	14845.535679
53.536000	-0.032136	-0.011268	-0.038817	-0.056081	7329.901915	50431.312321	4035.595818	27246.772275
54.039000	-0.033450	-0.132063	-0.030616	-0.296767	10612.717703	65535.000000	4966.294148	45305.960876
54.536500	-0.033483	-0.131155	-0.015940	-0.295858	10595.943583	65535.000000	5035.019884	45217.297714
55.036500	-0.031374	-0.092756	-0.006782	-0.257460	9976.222657	65535.000000	4891.620781	41633.072363
55.537000	-0.011342	-0.078865	0.008620	-0.243095	10069.636994	65466.744163	4896.543851	40371.629413
56.034500	0.007901	-0.037708	0.017590	-0.188900	9512.527744	63616.922634	4692.436139	35970.889424
56.535000	0.027786	-0.012215	0.029761	-0.154065	9287.604561	62325.383931	4597.876685	33418.815870
57.035500	0.063782	0.011036	0.064825	-0.114129	9229.610501	60086.616053	4578.189245	30734.153620
57.535000	0.088181	0.027789	0.083793	-0.069684	8942.504014	56555.450152	4478.735192	28022.683061
58.036000	0.105431	0.045328	0.103906	-0.001187	8266.081950	50617.884108	4305.204110	24351.264976
58.536000	0.126161	0.062167	0.114961	0.062321	7759.463049	45758.535460	4137.682957	21427.606419
59.036000	0.142492	0.071537	0.144409	0.132356	7190.171058	40174.217229	4021.250534	18662.374888
59.536000	0.164550	0.083509	0.170359	0.163473	7100.891270	38567.842232	4007.194578	17569.799019
60.034000	0.183225	0.095759	0.191361	0.218151	6763.922070	35250.336331	3919.566025	15829.721664
60.534500	0.201681	0.109656	0.208910	0.276971	6417.891903	32073.603163	3821.037832	14186.945511
61.034500	0.219659	0.120386	0.233626	0.325054	6179.966342	29671.301702	3769.265561	12999.858987
61.535000	0.229247	0.126473	0.242074	0.365020	5956.039480	27664.146785	3703.707574	12108.448066
62.035500	0.241161	0.132514	0.257012	0.388596	5874.137955	26685.097973	3686.553089	11619.787665
62.535500	0.244761	0.135376	0.257810	0.401104	5813.054780	26163.199326	3663.839227	11371.114516
63.036000	0.264379	0.145174	0.264093	0.400845	5951.103477	26707.633035	3676.454889	11376.196879
63.560500	0.268284	0.145669	0.272144	0.398053	5999.056998	26888.314936	3697.784195	11431.108673
64.037000	0.275122	0.149511	0.273697	0.398199	6047.721162	27093.087666	3700.590401	11428.229446
64.537000	0.273110	0.147769	0.272831	0.406000	5976.618545	26567.858636	3683.442818	11275.711579
65.049000	0.279058	0.151658	0.277853	0.407229	6010.608250	26713.077422	3690.905590	11251.927519
65.541000	0.277184	0.152063	0.281775	0.414935	5941.984505	26316.498267	3683.461151	11104.347595
66.035000	0.279995	0.151387	0.281365	0.414514	5964.972973	26302.790454	3683.482944	11112.349916
66.535500	0.279486	0.151284	0.277963	0.417527	5939.931386	26135.644044	3671.008004	11055.289160
67.035500	0.280545	0.152049	0.287213	0.422034	5915.623564	25936.542553	3680.214668	10970.692175
67.535500	0.278553	0.150403	0.284568	0.427749	5861.966282	25549.793650	3664.056964	10864.667621
68.039000	0.281716	0.151736	0.290073	0.426638	5891.599396	25677.446435	3676.816119	10885.158845
68.536000	0.282382	0.151275	0.287763	0.429122	5878.964766	25523.707708	3667.551823	10839.405458
69.037000	0.284437	0.152718	0.287713	0.432242	5871.575929	25436.543020	3661.479994	10782.280118
69.537000	0.280377	0.150971	0.289107	0.437259	5809.396430	25088.631268	3654.593934	10691.290762
70.035000	0.281920	0.151828	0.292980	0.436383	5825.843664	25177.306825	3663.630957	10707.113171
70.535000	0.284219	0.150352	0.284262	0.437974	5830.669239	25020.689752	3644.138567	10678.412974
71.034500	0.285499	0.150528	0.285398	0.439529	5828.790384	24950.624911	3643.357182	10650.472041
71.535500	0.283976	0.150250	0.286532	0.445470	5778.295489	24637.494183	3634.434889	10544.637084
72.035500	0.289347	0.151911	0.292379	0.444251	5822.829748	24781.931011	3647.584367	10566.224416
72.538500	0.286154	0.152153	0.294939	0.451445	5752.941591	24434.845986	3638.936083	10439.642488
73.036500	0.290800	0.154139	0.289764	0.448138	5806.304943	24698.583953	3635.475255	10497.568420
73.536500	0.288227	0.152309	0.295938	0.450990	5769.798273	24465.134833	3641.639730	10447.584854
74.037000	0.290147	0.151256	0.296520	0.448891	5796.799152	24517.089698	3646.648437	10484.343502
74.534500	0.286278	0.150726	0.285969	0.456597	5719.700623	24111.448753	3613.142093	10350.262954
75.037500	0.293068	0.152858	0.294024	0.453737	5783.833930	24356.390424	3633.004821	10399.747814
75.535000	0.290951	0.152219	0.291112	0.457878	5742.078896	24121.797765	3620.113119	10328.206092
76.035500	0.292911	0.150001	0.289395	0.454540	5777.388004	24176.530672	3623.057103	10385.821234
76.538500	0.288550	0.149823	0.284800	0.461906	5699.808582	23810.559702	3601.587832	10259.266076
77.036000	0.291789	0.151711	0.295708	0.460007	5733.543932	23993.469866	3624.599354	10291.689626
77.536000	0.289803	0.147701	0.297816	0.460945	5714.293016	23754.786511	3626.735308	10275.653371
78.036500	0.291808	0.148370	0.294758	0.460706	5729.051271	23798.356843	3621.597135	10279.732425
78.536500	0.290856	0.148905	0.290989	0.468532	5671.756143	23450.902290	3600.814107	10147.242781
79.037000	0.293498	0.148605	0.305769	0.464181	5717.305844	23643.253257	3635.406279	10220.608018
79.534500	0.293184	0.148146	0.296413	0.466116	5702.577531	23529.349613	3614.806802	10187.888929
80.035000	0.292622	0.147835	0.291109	0.466334	5697.482185	23504.219928	3604.924842	10184.201465
80.535000	0.289376	0.146381	0.298828	0.472551	5636.439920	23143.937793	3607.600464	10080.117650
81.035500	0.290978	0.146463	0.298132	0.467403	5679.845937	23388.904567	3615.584571	10166.207082
81.535500	0.293467	0.145932	0.299877	0.468294	5690.220081	23321.980832	3617.125927	10151.229518
82.036000	0.294417	0.146032	0.300583	0.469747	5686.949637	23258.553941	3615.776695	10126.879128
82.536500	0.287699	0.145316	0.296564	0.475794	5605.221140	22944.340137	3597.835712	10026.402252
83.036500	0.292839	0.145207	0.298295	0.471904	5662.790535	23119.382422	3607.802416	10090.875804
83.536500	0.295307	0.144232	0.302087	0.472664	5673.812473	23038.848543	3613.232104	10078.229008
84.037500	0.292984	0.142819	0.302607	0.472143	5662.186319	22997.620659	3615.106735	10086.904953
84.537000	0.286461	0.143009	0.301999	0.479143	5576.437110	22685.306000	3601.519906	9971.362643
85.035000	0.293985	0.142377	0.297099	0.474231	5655.189934	22881.000588	3601.540339	10052.235045
85.535500	0.292618	0.141509	0.296116	0.474094	5647.306914	22847.485986	3600.045736	10054.517292
86.036000	0.289858	0.139618	0.299209	0.473804	5631.520074	22774.136430	3606.045217	10059.312113
86.541000	0.288733	0.139380	0.294936	0.479394	5589.078609	22509.531837	3588.679829	9967.243011
87.036500	0.293115	0.140844	0.300563	0.476946	5632.257445	22686.769133	3602.868089	10007.425647
87.536500	0.290527	0.140313	0.298717	0.478455	5606.277592	22594.137956	3596.941852	9982.634397
88.036500	0.292940	0.139365	0.303174	0.477242	5629.255487	22606.151867	3606.983402	10002.544192
88.537000	0.293379	0.139071	0.301558	0.477751	5628.807401	22569.778126	3603.204911	9994.178350
89.037000	0.290301	0.138489	0.303250	0.477691	5609.672546	22546.191720	3606.320655	9995.171853
89.534500	0.290716	0.137516	0.305367	0.481960	5585.426336	22310.761018	3602.496788	9925.383892
90.037500	0.291992	0.136412	0.305589	0.476932	5625.202956	22486.735555	3611.858221	10007.656395
90.535000	0.292524	0.137346	0.306134	0.478788	5616.798628	22445.268387	3609.509213	9977.173620
91.038500	0.292229	0.136573	0.304513	0.479092	5613.005294	22396.909519	3606.074446	9972.200117
91.536000	0.290413	0.134876	0.305836	0.477915	5608.967388	22373.617110	3610.539422	9991.498557
92.036500	0.292361	0.135809	0.304540	0.479307	5612.485369	22353.082105	3605.740705	9968.678519
92.537000	0.294524	0.135900	0.307324	0.480145	5620.877147	22319.696684	3609.211604	9954.973965
93.036500	0.294668	0.135409	0.308752	0.480050	5622.387267	22301.963726	3611.938093	9956.516140
93.537000	0.291702	0.134806	0.306674	0.483635	5581.114658	22116.012653	3601.844782	9898.190042
94.040000	0.291091	0.133339	0.308864	0.480156	5599.111983	22205.152935	3611.950039	9954.794442
94.535000	0.290898	0.132165	0.305719	0.482959	5580.311820	22029.379999	3601.350333	9909.144415
95.100500	0.291363	0.131655	0.303753	0.480159	5600.802493	22130.361504	3602.826311	9954.737052
95.535000	0.292639	0.131173	0.302841	0.483144	5590.059663	21977.677143	3595.947775	9906.145376
96.035500	0.291734	0.132284	0.310271	0.481838	5592.574207	22084.001064	3611.455436	9927.364582
96.536000	0.292108	0.130499	0.300419	0.483321	5585.622685	21940.378420	3591.395490	9903.281700
97.036000	0.292357	0.131101	0.301977	0.482412	5592.879601	22006.639107	3595.715836	9918.027676
97.536500	0.294438	0.130284	0.309472	0.484273	5594.267336	21889.376131	3605.679097	9887.860595
98.040000	0.292707	0.129982	0.304080	0.482211	5596.342244	21966.366656	3599.773828	9921.295727
98.537000	0.292231	0.129003	0.304044	0.484647	5578.096394	21817.223360	3595.420568	9881.804342
