sample name	sample
index	761
start time	 03-31-2021  12:23:52 PM


Wavelength (nm)	Absorbance
494.344910	-0.123072
494.563924	-0.123072
494.782919	-0.123072
495.001897	-0.049074
495.220856	-0.037223
495.439797	-0.039472
495.658719	-0.028563
495.877624	-0.011173
496.096510	0.014983
496.315378	0.040123
496.534227	0.055310
496.753059	0.026197
496.971872	0.006249
497.190667	0.115306
497.409444	0.140652
497.628203	0.145738
497.846943	0.149448
498.065665	0.150674
498.284369	0.150661
498.503055	0.150840
498.721723	0.152906
498.940372	0.153651
499.159003	0.153942
499.377616	0.153969
499.596210	0.154568
499.814787	0.154260
500.033345	0.153321
500.251885	0.154325
500.470406	0.154040
500.688910	0.154146
500.907395	0.154772
501.125862	0.156353
501.344311	0.156168
501.562742	0.157006
501.781154	0.158091
501.999548	0.158587
502.217924	0.158057
502.436282	0.159092
502.654621	0.159564
502.872942	0.159401
503.091245	0.158373
503.309530	0.158405
503.527797	0.157581
503.746045	0.156563
503.964275	0.157224
504.182487	0.157838
504.400681	0.156962
504.618856	0.155795
504.837013	0.155144
505.055152	0.154836
505.273273	0.156051
505.491376	0.157117
505.709460	0.158504
505.927526	0.158856
506.145574	0.158980
506.363604	0.159652
506.581615	0.161177
506.799608	0.161769
507.017583	0.162150
507.235540	0.161391
507.453478	0.159493
507.671399	0.158748
507.889301	0.158972
508.107185	0.159513
508.325050	0.160780
508.542898	0.160496
508.760727	0.161073
508.978538	0.161470
509.196330	0.161452
509.414105	0.163450
509.631861	0.163605
509.849599	0.163200
510.067319	0.162906
510.285021	0.162647
510.502704	0.162937
510.720369	0.162501
510.938016	0.162984
511.155645	0.163477
511.373255	0.163999
511.590848	0.163814
511.808422	0.164503
512.025977	0.164612
512.243515	0.164199
512.461034	0.164005
512.678536	0.164086
512.896018	0.163952
513.113483	0.164250
513.330930	0.163813
513.548358	0.164338
513.765768	0.164917
513.983160	0.164816
514.200533	0.166083
514.417889	0.166092
514.635226	0.166886
514.852545	0.167055
515.069845	0.167437
515.287128	0.167500
515.504392	0.167302
515.721638	0.166101
515.938866	0.165912
516.156075	0.165896
516.373267	0.166898
516.590440	0.167123
516.807594	0.167448
517.024731	0.167135
517.241850	0.167649
517.458950	0.168610
517.676032	0.170270
517.893095	0.171112
518.110141	0.171453
518.327168	0.171516
518.544177	0.172448
518.761168	0.173215
518.978141	0.174494
519.195095	0.174855
519.412031	0.174780
519.628949	0.174823
519.845849	0.175603
520.062731	0.174712
520.279594	0.174616
520.496439	0.174126
520.713266	0.173890
520.930074	0.173825
521.146865	0.173821
521.363637	0.174276
521.580391	0.174727
521.797127	0.174674
522.013844	0.175926
522.230543	0.176319
522.447224	0.176642
522.663887	0.177583
522.880532	0.177588
523.097158	0.178327
523.313766	0.178346
523.530356	0.178728
523.746928	0.178537
523.963481	0.178505
524.180017	0.178417
524.396534	0.178832
524.613032	0.178375
524.829513	0.179064
525.045975	0.178785
525.262420	0.179502
525.478845	0.178912
525.695253	0.179777
525.911643	0.179994
526.128014	0.180984
526.344367	0.181259
526.560702	0.182536
526.777018	0.182857
526.993316	0.183823
527.209597	0.183657
527.425858	0.184035
527.642102	0.184230
527.858328	0.184883
528.074535	0.184752
528.290724	0.184878
528.506894	0.184237
528.723047	0.184488
528.939181	0.184106
529.155297	0.184363
529.371395	0.184667
529.587475	0.184980
529.803536	0.185461
530.019579	0.185242
530.235604	0.185415
530.451611	0.185884
530.667600	0.186083
530.883570	0.186880
531.099522	0.187600
531.315456	0.188766
531.531372	0.189469
531.747269	0.189814
531.963148	0.190686
532.179009	0.191281
532.394852	0.191437
532.610676	0.191621
532.826482	0.191739
533.042271	0.192361
533.258040	0.192409
533.473792	0.192558
533.689525	0.192596
533.905240	0.193072
534.120937	0.192811
534.336616	0.193220
534.552277	0.193881
534.767919	0.194591
534.983543	0.194798
535.199149	0.195214
535.414736	0.195891
535.630306	0.196330
535.845857	0.196662
536.061390	0.197882
536.276904	0.198020
536.492401	0.198443
536.707879	0.198804
536.923339	0.199051
537.138781	0.199167
537.354204	0.199089
537.569610	0.199233
537.784997	0.199364
538.000366	0.199826
538.215716	0.200461
538.431049	0.200598
538.646363	0.200689
538.861659	0.201072
539.076937	0.200969
539.292196	0.202088
539.507438	0.202046
539.722661	0.202864
539.937866	0.203528
540.153052	0.204047
540.368221	0.204796
540.583371	0.205233
540.798503	0.205709
541.013617	0.206775
541.228712	0.206890
541.443789	0.207788
541.658848	0.208023
541.873889	0.207764
542.088912	0.208110
542.303916	0.208310
542.518902	0.208325
542.733870	0.208833
542.948820	0.208735
543.163752	0.208487
543.378665	0.208928
543.593560	0.209506
543.808437	0.210427
544.023295	0.210922
544.238136	0.210579
544.452958	0.211279
544.667762	0.211861
544.882548	0.212158
545.097315	0.212774
545.312064	0.213185
545.526795	0.212958
545.741508	0.213055
545.956203	0.212827
546.170879	0.213456
546.385537	0.213272
546.600177	0.212939
546.814799	0.213553
547.029402	0.213942
547.243988	0.213869
547.458555	0.214116
547.673103	0.214225
547.887634	0.215144
548.102146	0.215723
548.316640	0.216335
548.531116	0.216970
548.745574	0.216682
548.960013	0.216645
549.174435	0.216902
549.388838	0.217332
549.603222	0.217583
549.817589	0.217550
550.031937	0.217737
550.246267	0.218345
550.460579	0.218404
550.674873	0.219048
550.889148	0.218877
551.103405	0.219300
551.317644	0.219830
551.531865	0.219958
551.746068	0.220314
551.960252	0.220618
552.174418	0.220279
552.388566	0.220501
552.602696	0.221179
552.816807	0.222413
553.030900	0.222565
553.244975	0.223116
553.459032	0.223309
553.673070	0.223242
553.887091	0.223732
554.101093	0.224034
554.315077	0.224952
554.529042	0.224665
554.742990	0.224615
554.956919	0.224873
555.170830	0.224613
555.384722	0.225050
555.598597	0.225548
555.812453	0.225353
556.026291	0.225735
556.240111	0.225561
556.453913	0.225671
556.667696	0.226012
556.881461	0.226766
557.095208	0.226832
557.308937	0.226651
557.522647	0.226833
557.736339	0.227332
557.950013	0.227510
558.163669	0.227786
558.377307	0.228331
558.590926	0.228468
558.804527	0.228158
559.018110	0.228651
559.231675	0.228853
559.445221	0.229404
559.658749	0.229404
559.872259	0.229675
560.085751	0.229904
560.299225	0.229942
560.512680	0.230294
560.726117	0.230863
560.939536	0.231086
561.152937	0.231822
561.366319	0.231607
561.579683	0.231733
561.793029	0.232177
562.006357	0.232243
562.219667	0.232851
562.432958	0.232791
562.646231	0.232876
562.859486	0.233340
563.072723	0.233026
563.285941	0.233757
563.499141	0.234002
563.712323	0.234098
563.925487	0.234593
564.138632	0.234669
564.351760	0.235117
564.564869	0.235411
564.777960	0.235314
564.991032	0.236058
565.204087	0.236572
565.417123	0.237446
565.630141	0.237514
565.843140	0.237725
566.056122	0.238076
566.269085	0.238525
566.482030	0.239254
566.694957	0.239933
566.907866	0.240570
567.120756	0.240257
567.333628	0.240531
567.546482	0.241229
567.759318	0.241564
567.972135	0.241878
568.184935	0.242083
568.397716	0.241981
568.610478	0.242347
568.823223	0.241750
569.035949	0.242238
569.248657	0.242167
569.461347	0.242699
569.674019	0.242531
569.886672	0.242648
570.099308	0.243167
570.311925	0.243345
570.524523	0.243312
570.737104	0.243819
570.949666	0.243896
571.162210	0.244118
571.374736	0.244043
571.587244	0.244776
571.799733	0.244838
572.012205	0.244500
572.224658	0.245068
572.437092	0.245413
572.649509	0.245805
572.861907	0.246120
573.074287	0.246575
573.286649	0.246885
573.498993	0.246962
573.711318	0.247822
573.923625	0.248155
574.135914	0.248284
574.348185	0.248384
574.560438	0.248683
574.772672	0.248556
574.984888	0.248506
575.197086	0.248720
575.409266	0.248720
575.621427	0.249071
575.833570	0.249309
576.045695	0.249025
576.257802	0.249315
576.469890	0.249344
576.681961	0.250143
576.894013	0.250411
577.106046	0.250942
577.318062	0.251498
577.530059	0.251413
577.742039	0.251608
577.954000	0.252604
578.165942	0.252548
578.377867	0.253157
578.589773	0.252767
578.801661	0.253139
579.013531	0.252860
579.225382	0.252886
579.437216	0.252800
579.649031	0.253175
579.860828	0.253118
580.072606	0.253593
580.284367	0.253877
580.496109	0.254465
580.707833	0.254342
580.919539	0.254323
581.131227	0.254751
581.342896	0.254958
581.554547	0.255296
581.766180	0.255496
581.977795	0.255935
582.189391	0.256360
582.400969	0.256717
582.612529	0.256823
582.824071	0.257463
583.035595	0.257698
583.247100	0.258073
583.458587	0.258269
583.670056	0.258203
583.881506	0.258715
584.092939	0.258842
584.304353	0.259123
584.515749	0.259989
584.727127	0.260544
584.938486	0.260814
585.149828	0.260892
585.361151	0.261324
585.572456	0.261553
585.783742	0.261757
585.995011	0.261530
586.206261	0.261715
586.417493	0.261720
586.628706	0.261204
586.839902	0.261381
587.051079	0.261816
587.262238	0.261641
587.473379	0.261619
587.684502	0.261965
587.895606	0.262349
588.106692	0.262830
588.317760	0.263429
588.528810	0.263961
588.739841	0.264474
588.950855	0.264562
589.161850	0.264941
589.372827	0.265682
589.583785	0.265359
589.794726	0.266003
590.005648	0.266417
590.216552	0.266413
590.427437	0.266875
590.638305	0.267047
590.849154	0.267603
591.059985	0.267928
591.270798	0.267994
591.481592	0.268440
591.692369	0.268273
591.903127	0.268272
592.113867	0.268390
592.324588	0.268499
592.535292	0.268103
592.745977	0.268318
592.956644	0.268672
593.167293	0.269044
593.377923	0.269511
593.588536	0.269844
593.799130	0.269892
594.009706	0.270501
594.220263	0.270633
594.430803	0.271299
594.641324	0.271449
594.851827	0.271438
595.062312	0.271697
595.272778	0.271505
595.483227	0.272131
595.693657	0.272499
595.904069	0.272507
596.114462	0.272949
596.324838	0.273263
596.535195	0.273627
596.745534	0.274005
596.955855	0.274130
597.166157	0.274034
597.376441	0.274016
597.586707	0.274308
597.796955	0.274720
598.007185	0.274849
598.217396	0.275009
598.427589	0.275272
598.637764	0.275656
598.847921	0.275933
599.058060	0.276510
599.268180	0.276409
599.478282	0.276521
599.688366	0.276503
599.898431	0.276737
600.108479	0.277067
600.318508	0.277556
600.528519	0.277767
600.738511	0.278166
600.948486	0.278701
601.158442	0.279168
601.368380	0.279437
601.578300	0.279833
601.788202	0.280195
601.998085	0.280410
602.207950	0.280417
602.417797	0.280298
602.627626	0.280457
602.837436	0.280610
603.047228	0.280884
603.257002	0.280829
603.466758	0.280854
603.676496	0.281191
603.886215	0.281355
604.095916	0.281349
604.305599	0.282080
604.515264	0.282583
604.724910	0.282816
604.934538	0.282803
605.144148	0.283229
605.353740	0.283603
605.563314	0.283424
605.772869	0.283522
605.982406	0.283993
606.191925	0.284126
606.401425	0.284277
606.610908	0.284451
606.820372	0.284877
607.029818	0.285266
607.239246	0.285424
607.448655	0.285760
607.658047	0.286075
607.867420	0.286452
608.076775	0.286217
608.286111	0.286150
608.495430	0.286199
608.704730	0.286273
608.914012	0.286427
609.123275	0.286663
609.332521	0.286902
609.541748	0.287511
609.750957	0.287753
609.960148	0.288362
610.169321	0.288986
610.378475	0.289106
610.587611	0.289417
610.796729	0.289446
611.005829	0.289323
611.214910	0.289364
611.423974	0.289205
611.633019	0.289324
611.842045	0.289652
612.051054	0.289367
612.260044	0.289814
612.469017	0.290527
612.677970	0.290891
612.886906	0.291596
613.095824	0.291934
613.304723	0.292281
613.513604	0.292513
613.722467	0.292592
613.931311	0.292653
614.140138	0.292781
614.348946	0.292340
614.557736	0.292340
614.766507	0.292565
614.975261	0.292765
615.183996	0.292573
615.392713	0.292557
615.601412	0.292766
615.810092	0.293512
616.018754	0.293700
616.227399	0.293912
616.436024	0.294316
616.644632	0.294181
616.853222	0.294364
617.061793	0.294696
617.270346	0.295013
617.478880	0.295291
617.687397	0.295094
617.895895	0.295452
618.104375	0.295664
618.312837	0.296133
618.521281	0.296593
618.729706	0.297042
618.938113	0.297377
619.146502	0.297048
619.354873	0.296722
619.563226	0.296843
619.771560	0.296787
619.979876	0.297242
620.188174	0.297153
620.396453	0.297068
620.604715	0.297312
620.812958	0.297628
621.021183	0.297963
621.229390	0.298645
621.437578	0.299121
621.645748	0.299688
621.853900	0.299745
622.062034	0.299835
622.270150	0.300419
622.478247	0.300269
622.686326	0.300294
622.894387	0.300598
623.102430	0.300692
623.310454	0.300925
623.518461	0.300922
623.726449	0.301051
623.934418	0.301374
624.142370	0.301321
624.350303	0.301715
624.558218	0.302072
624.766115	0.302603
624.973994	0.302921
625.181855	0.303058
625.389697	0.303479
625.597521	0.303810
625.805327	0.303989
626.013114	0.304327
626.220883	0.304356
626.428634	0.304363
626.636367	0.304565
626.844082	0.304559
627.051778	0.304902
627.259457	0.304807
627.467117	0.305101
627.674758	0.305540
627.882382	0.305629
628.089987	0.305797
628.297574	0.306328
628.505143	0.306297
628.712694	0.306325
628.920226	0.306175
629.127740	0.306727
629.335236	0.306753
629.542714	0.306744
629.750174	0.306813
629.957615	0.307082
630.165038	0.306934
630.372443	0.307264
630.579829	0.307802
630.787198	0.308354
630.994548	0.308166
631.201880	0.308611
631.409194	0.308752
631.616489	0.309103
631.823766	0.309511
632.031025	0.309832
632.238266	0.310105
632.445489	0.309948
632.652693	0.310059
632.859879	0.310317
633.067047	0.310237
633.274197	0.310193
633.481329	0.310466
633.688442	0.310886
633.895537	0.310776
634.102614	0.310878
634.309672	0.311500
634.516713	0.311573
634.723735	0.311744
634.930739	0.312019
635.137724	0.312730
635.344692	0.313043
635.551641	0.312850
635.758572	0.313593
635.965485	0.313787
636.172379	0.313775
636.379256	0.314023
636.586114	0.314318
636.792954	0.314473
636.999775	0.314507
637.206579	0.314662
637.413364	0.315046
637.620131	0.314840
637.826880	0.314959
638.033610	0.315395
638.240323	0.315619
638.447017	0.315732
638.653692	0.316130
638.860350	0.316272
639.066990	0.316381
639.273611	0.316553
639.480214	0.316839
639.686798	0.317398
639.893365	0.317363
640.099913	0.317818
640.306443	0.318116
640.512955	0.318326
640.719449	0.318688
640.925924	0.318994
641.132381	0.319103
641.338820	0.319660
641.545241	0.319772
641.751644	0.320011
641.958028	0.319994
642.164394	0.320108
642.370742	0.320332
642.577071	0.320683
642.783383	0.320912
642.989676	0.321604
643.195951	0.321710
643.402207	0.321867
643.608446	0.322104
643.814666	0.322488
644.020868	0.322925
644.227052	0.323266
644.433218	0.323510
644.639365	0.323805
644.845494	0.323552
645.051605	0.324001
645.257698	0.324463
645.463772	0.324330
645.669828	0.324475
645.875866	0.324536
646.081886	0.324440
646.287888	0.324447
646.493871	0.324430
646.699836	0.324877
646.905783	0.324452
647.111712	0.324508
647.317622	0.325103
647.523514	0.325362
647.729388	0.325650
647.935244	0.326112
648.141082	0.326250
648.346901	0.326596
648.552702	0.326810
648.758485	0.327500
648.964250	0.327692
649.169996	0.327801
649.375724	0.328225
649.581434	0.328755
649.787126	0.328860
649.992800	0.329109
650.198455	0.329580
650.404092	0.329772
650.609711	0.329995
650.815311	0.330075
651.020894	0.330373
651.226458	0.330418
651.432004	0.330837
651.637532	0.331150
651.843041	0.331590
652.048532	0.331686
652.254006	0.332032
652.459460	0.332432
652.664897	0.332981
652.870315	0.333400
653.075716	0.333694
653.281097	0.333296
653.486461	0.333552
653.691807	0.333640
653.897134	0.333873
654.102443	0.334008
654.307734	0.333780
654.513006	0.333789
654.718261	0.333945
654.923497	0.334135
655.128715	0.334636
655.333915	0.334661
655.539096	0.335185
655.744259	0.335533
655.949404	0.335701
656.154531	0.336277
656.359640	0.336563
656.564730	0.336908
656.769802	0.337166
656.974856	0.337517
657.179892	0.338235
657.384909	0.338339
657.589908	0.338672
657.794889	0.339220
657.999852	0.339650
658.204797	0.340087
658.409723	0.340536
658.614631	0.340997
658.819521	0.341364
659.024393	0.341651
659.229246	0.341953
659.434081	0.341907
659.638898	0.342474
659.843697	0.342547
660.048478	0.342396
660.253240	0.342610
660.457984	0.342803
660.662710	0.342904
660.867417	0.343069
661.072107	0.343462
661.276778	0.343925
661.481431	0.343594
661.686066	0.343827
661.890682	0.344305
662.095281	0.344395
662.299861	0.344451
662.504422	0.344830
662.708966	0.344977
662.913491	0.345287
663.117999	0.345535
663.322488	0.346262
663.526958	0.346510
663.731411	0.346959
663.935845	0.347207
664.140261	0.347656
664.344659	0.347830
664.549038	0.348115
664.753400	0.348308
664.957743	0.348629
665.162068	0.348544
665.366375	0.348985
665.570663	0.349035
665.774933	0.349938
665.979185	0.350241
666.183419	0.350760
666.387635	0.350900
666.591832	0.351158
666.796011	0.351218
667.000172	0.351649
667.204315	0.351664
667.408439	0.352066
667.612545	0.351849
667.816634	0.352080
668.020703	0.351975
668.224755	0.352192
668.428788	0.352564
668.632803	0.352921
668.836800	0.352967
669.040779	0.353409
669.244739	0.353481
669.448681	0.353710
669.652605	0.353998
669.856511	0.354389
670.060399	0.354757
670.264268	0.354673
670.468119	0.355115
670.671952	0.355313
670.875767	0.355622
671.079563	0.356200
671.283341	0.356600
671.487101	0.356870
671.690843	0.357233
671.894567	0.357668
672.098272	0.357803
672.301959	0.357786
672.505628	0.358157
672.709278	0.358513
672.912911	0.358533
673.116525	0.358717
673.320121	0.359024
673.523699	0.359323
673.727258	0.359522
673.930799	0.360088
674.134322	0.360700
674.337827	0.361113
674.541314	0.361346
674.744782	0.361574
674.948232	0.361982
675.151664	0.362303
675.355078	0.362457
675.558474	0.362788
675.761851	0.362913
675.965210	0.363025
676.168551	0.363608
676.371873	0.363554
676.575178	0.363890
676.778464	0.364147
676.981732	0.364357
677.184981	0.364428
677.388213	0.364498
677.591426	0.364919
677.794621	0.365159
677.997798	0.365023
678.200956	0.365487
678.404097	0.365858
678.607219	0.365904
678.810323	0.366055
679.013408	0.366630
679.216476	0.366879
679.419525	0.366984
679.622556	0.367215
679.825569	0.367505
680.028563	0.367623
680.231540	0.368235
680.434498	0.368628
680.637438	0.368745
680.840359	0.368807
681.043263	0.369281
681.246148	0.369544
681.449015	0.369831
681.651864	0.370067
681.854694	0.370296
682.057506	0.370241
682.260301	0.370541
682.463076	0.370796
682.665834	0.370857
682.868573	0.371237
683.071295	0.371665
683.273998	0.371857
683.476682	0.372162
683.679349	0.372680
683.881997	0.373137
684.084627	0.373208
684.287239	0.373540
684.489833	0.374059
684.692408	0.374083
684.894965	0.374371
685.097504	0.374639
685.300025	0.374832
685.502527	0.375206
685.705012	0.375140
685.907478	0.375298
686.109925	0.375772
686.312355	0.376064
686.514766	0.376446
686.717159	0.376500
686.919534	0.376968
687.121891	0.377222
687.324230	0.377344
687.526550	0.377858
687.728852	0.378309
687.931136	0.378369
688.133401	0.378552
688.335649	0.379036
688.537878	0.379391
688.740089	0.379528
688.942281	0.379817
689.144456	0.380008
689.346612	0.380375
689.548750	0.380574
689.750870	0.381093
689.952971	0.381484
690.155055	0.381671
690.357120	0.381997
690.559167	0.382167
690.761195	0.382404
690.963206	0.382659
691.165198	0.382479
691.367172	0.383032
691.569128	0.382789
691.771065	0.383092
691.972984	0.383120
692.174885	0.383515
692.376768	0.384215
692.578633	0.384561
692.780479	0.384481
692.982308	0.385066
693.184118	0.384975
693.385909	0.385466
693.587683	0.385587
693.789438	0.385668
693.991175	0.385603
694.192894	0.385228
694.394595	0.385286
694.596277	0.385760
694.797941	0.385683
694.999587	0.385968
695.201215	0.385804
695.402824	0.385888
695.604416	0.386259
695.805989	0.386365
696.007543	0.386424
696.209080	0.386614
696.410598	0.386853
696.612099	0.387334
696.813580	0.387535
697.015044	0.388070
697.216490	0.388307
697.417917	0.388602
697.619326	0.388836
697.820717	0.389168
698.022089	0.389426
698.223444	0.389522
698.424780	0.389414
698.626098	0.389572
698.827397	0.389945
699.028679	0.390024
699.229942	0.389938
699.431187	0.390058
699.632414	0.390239
699.833622	0.390518
700.034813	0.390843
700.235985	0.391218
700.437139	0.391471
700.638274	0.391593
700.839392	0.392013
701.040491	0.392610
701.241572	0.392966
701.442635	0.393212
701.643679	0.393596
701.844706	0.393662
702.045714	0.393682
702.246704	0.393707
702.447675	0.393905
702.648629	0.394094
702.849564	0.393820
703.050481	0.394284
703.251380	0.394407
703.452260	0.394317
703.653122	0.394345
703.853966	0.394357
704.054792	0.394544
704.255600	0.394598
704.456389	0.394261
704.657160	0.394308
704.857913	0.393874
705.058648	0.393976
705.259365	0.393604
705.460063	0.393900
705.660743	0.394297
705.861405	0.394344
706.062048	0.394279
706.262674	0.394453
706.463281	0.394340
706.663870	0.394482
706.864441	0.394534
707.064993	0.395095
707.265527	0.394867
707.466043	0.394627
707.666541	0.394805
707.867021	0.394928
708.067482	0.394942
708.267925	0.395274
708.468350	0.395348
708.668757	0.395528
708.869145	0.395463
709.069516	0.395555
709.269868	0.395782
709.470201	0.395358
709.670517	0.395474
709.870814	0.395737
710.071093	0.395845
710.271354	0.396039
710.471597	0.396110
710.671821	0.396307
710.872028	0.396517
711.072216	0.396723
711.272385	0.397101
711.472537	0.397143
711.672670	0.397366
711.872785	0.397237
712.072882	0.397267
712.272961	0.397371
712.473021	0.397178
712.673063	0.397065
712.873087	0.396885
713.073093	0.396980
713.273081	0.397079
713.473050	0.397101
713.673001	0.397123
713.872934	0.397260
714.072849	0.397074
714.272745	0.397278
714.472623	0.397640
714.672483	0.397704
714.872325	0.397418
715.072148	0.397165
715.271954	0.397106
715.471741	0.397491
715.671509	0.397308
715.871260	0.397339
716.070992	0.397103
716.270707	0.396799
716.470403	0.396669
716.670080	0.396963
716.869740	0.397052
717.069381	0.396778
717.269004	0.396560
717.468609	0.396243
717.668195	0.396272
717.867764	0.396231
718.067314	0.396073
718.266846	0.396194
718.466360	0.395981
718.665855	0.395758
718.865332	0.395948
719.064791	0.395867
719.264232	0.396277
719.463655	0.396009
719.663059	0.395987
719.862445	0.395960
720.061813	0.395743
720.261163	0.395563
720.460494	0.395711
720.659807	0.395448
720.859102	0.395230
721.058379	0.395201
721.257638	0.395089
721.456878	0.395219
721.656100	0.395289
721.855304	0.395218
722.054490	0.395344
722.253657	0.395062
722.452806	0.395103
722.651937	0.394939
722.851050	0.394758
723.050145	0.394902
723.249221	0.394835
723.448279	0.394617
723.647319	0.394601
723.846340	0.394386
724.045344	0.394629
724.244329	0.394654
724.443296	0.394872
724.642245	0.394889
724.841175	0.394679
725.040088	0.394506
725.238982	0.394454
725.437857	0.394482
725.636715	0.394384
725.835554	0.394135
726.034376	0.393895
726.233179	0.393464
726.431963	0.393144
726.630730	0.392992
726.829478	0.392887
727.028208	0.392941
727.226920	0.392656
727.425614	0.392601
727.624289	0.392391
727.822946	0.392278
728.021585	0.392105
728.220206	0.391987
728.418808	0.391758
728.617392	0.391611
728.815958	0.391425
729.014506	0.390896
729.213036	0.390761
729.411547	0.390658
729.610040	0.390621
729.808515	0.390664
730.006972	0.390242
730.205410	0.390093
730.403831	0.390043
730.602233	0.389878
730.800616	0.389948
730.998982	0.390076
731.197329	0.389664
731.395658	0.389299
731.593969	0.389215
731.792262	0.389186
731.990536	0.389346
732.188793	0.388877
732.387031	0.388659
732.585250	0.388607
732.783452	0.388244
732.981635	0.388474
733.179800	0.388294
733.377947	0.388116
733.576076	0.388059
733.774186	0.387751
733.972278	0.387793
734.170352	0.387594
734.368408	0.387282
734.566446	0.386948
734.764465	0.386662
734.962466	0.386716
735.160449	0.386549
735.358413	0.386568
735.556360	0.386381
735.754288	0.386143
735.952198	0.386037
736.150090	0.386070
736.347963	0.386184
736.545818	0.386258
736.743655	0.385857
736.941474	0.385365
737.139275	0.384868
737.337057	0.384880
737.534821	0.384693
737.732567	0.384747
737.930295	0.384547
738.128005	0.384487
738.325696	0.384026
738.523369	0.383765
738.721024	0.383732
738.918660	0.383751
739.116279	0.383261
739.313879	0.383279
739.511461	0.382760
739.709024	0.382536
739.906570	0.382017
740.104097	0.381911
740.301606	0.381701
740.499097	0.382004
740.696569	0.381751
740.894024	0.381648
741.091460	0.381297
741.288878	0.381318
741.486277	0.381245
741.683659	0.380954
741.881022	0.380571
742.078367	0.380692
742.275694	0.380217
742.473002	0.380047
742.670293	0.379925
742.867565	0.379674
743.064819	0.379221
743.262054	0.378877
743.459272	0.378663
743.656471	0.378409
743.853652	0.377957
744.050815	0.377912
744.247959	0.377560
744.445085	0.377123
744.642194	0.376824
744.839283	0.376783
745.036355	0.376468
745.233408	0.376374
745.430444	0.376265
745.627461	0.376230
745.824459	0.375763
746.021440	0.375601
746.218402	0.375648
746.415346	0.375289
746.612272	0.374923
746.809180	0.374819
747.006069	0.374452
747.202940	0.374170
747.399793	0.373776
747.596628	0.373477
747.793444	0.373315
747.990243	0.372860
748.187023	0.372672
748.383784	0.372326
748.580528	0.371965
748.777253	0.371585
748.973960	0.371648
749.170649	0.371710
749.367320	0.371283
749.563973	0.370983
749.760607	0.370953
749.957223	0.370740
750.153821	0.370538
750.350400	0.370418
750.546962	0.370574
750.743505	0.370183
750.940030	0.370030
751.136536	0.370208
751.333025	0.370055
751.529495	0.369863
751.725947	0.369838
751.922381	0.369971
752.118796	0.369518
752.315194	0.369396
752.511573	0.369291
752.707934	0.368820
752.904276	0.368452
753.100601	0.368258
753.296907	0.368083
753.493195	0.367747
753.689465	0.367417
753.885716	0.367829
754.081949	0.367496
754.278164	0.367091
754.474361	0.366578
754.670540	0.366561
754.866700	0.366177
755.062843	0.365488
755.258967	0.365720
755.455072	0.365526
755.651160	0.365166
755.847229	0.364931
756.043280	0.364678
756.239313	0.364797
756.435328	0.364342
756.631324	0.364035
756.827302	0.364128
757.023262	0.363362
757.219204	0.363188
757.415127	0.362916
757.611033	0.362790
757.806920	0.362500
758.002788	0.362370
758.198639	0.362273
758.394471	0.362347
758.590286	0.362065
758.786081	0.362097
758.981859	0.361825
759.177619	0.361469
759.373360	0.361435
759.569083	0.361542
759.764788	0.361239
759.960474	0.361231
760.156143	0.361104
760.351793	0.361138
760.547425	0.361197
760.743038	0.360624
760.938634	0.360488
761.134211	0.360061
761.329770	0.359495
761.525311	0.359611
761.720833	0.359232
761.916338	0.358986
762.111824	0.358844
762.307292	0.358550
762.502741	0.358901
762.698173	0.358836
762.893586	0.358728
763.088981	0.358820
763.284358	0.358316
763.479716	0.358020
763.675057	0.358046
763.870379	0.357648
764.065683	0.357199
764.260968	0.356755
764.456236	0.356372
764.651485	0.355997
764.846716	0.355973
765.041929	0.355802
765.237123	0.355727
765.432299	0.355615
765.627457	0.355626
765.822597	0.355560
766.017719	0.355176
766.212822	0.355115
766.407907	0.355180
766.602974	0.354728
766.798023	0.354524
766.993054	0.354204
767.188066	0.353749
767.383060	0.353490
767.578036	0.353084
767.772993	0.353119
767.967933	0.352684
768.162854	0.352317
768.357757	0.352182
768.552642	0.351773
768.747508	0.351764
768.942356	0.351506
769.137186	0.351418
769.331998	0.351402
769.526792	0.351214
769.721567	0.351145
769.916324	0.351265
770.111063	0.351091
770.305784	0.351234
770.500486	0.351155
770.695171	0.350996
770.889837	0.351069
771.084484	0.350933
771.279114	0.350915
771.473725	0.350910
771.668318	0.350458
771.862893	0.350502
772.057450	0.350431
772.251988	0.349826
772.446509	0.349816
772.641011	0.349021
772.835494	0.348862
773.029960	0.348540
773.224407	0.348176
773.418836	0.348119
773.613247	0.347684
773.807640	0.347365
774.002014	0.347586
774.196370	0.347463
774.390708	0.347640
774.585028	0.347579
774.779330	0.347597
774.973613	0.347685
775.167878	0.347460
775.362125	0.347630
775.556354	0.347523
775.750564	0.347478
775.944756	0.347393
776.138930	0.347418
776.333086	0.347464
776.527223	0.347694
776.721343	0.347626
776.915444	0.347675
777.109526	0.347411
777.303591	0.347626
777.497637	0.347481
777.691666	0.347409
777.885676	0.347225
778.079667	0.347404
778.273641	0.347113
778.467596	0.347167
778.661533	0.347139
778.855452	0.347113
779.049352	0.346852
779.243235	0.347003
779.437099	0.346903
779.630945	0.346892
779.824773	0.346646
780.018582	0.346751
780.212373	0.347001
780.406146	0.347109
780.599901	0.347114
780.793638	0.347019
780.987356	0.346973
781.181056	0.347015
781.374738	0.346950
781.568402	0.346921
781.762047	0.346747
781.955674	0.346449
782.149283	0.346366
782.342874	0.346310
782.536447	0.346271
782.730001	0.346041
782.923537	0.345841
783.117055	0.345897
783.310555	0.345375
783.504036	0.345470
783.697499	0.345303
783.890944	0.345394
784.084371	0.345537
784.277780	0.345653
784.471170	0.345571
784.664542	0.345598
784.857896	0.345663
785.051231	0.346072
785.244549	0.345926
785.437848	0.345869
785.631129	0.345613
785.824392	0.345496
786.017636	0.345327
786.210863	0.345512
786.404071	0.345859
786.597260	0.345827
786.790432	0.345610
786.983585	0.345861
787.176721	0.345988
787.369838	0.346019
787.562936	0.346167
787.756017	0.346326
787.949079	0.346446
788.142123	0.346128
788.335149	0.346206
788.528156	0.346549
788.721146	0.346419
788.914117	0.346611
789.107070	0.346751
789.300005	0.346969
789.492921	0.347043
789.685819	0.346910
789.878699	0.347101
790.071561	0.347033
790.264405	0.346882
790.457230	0.346732
790.650037	0.346869
790.842826	0.346881
791.035597	0.346625
791.228349	0.346650
791.421084	0.346650
791.613800	0.346713
791.806497	0.346763
791.999177	0.346812
792.191838	0.346922
792.384481	0.346687
792.577106	0.346697
792.769713	0.346625
792.962301	0.346659
793.154871	0.346579
793.347423	0.346403
793.539957	0.346306
793.732473	0.346522
793.924970	0.346528
794.117449	0.346450
794.309910	0.346469
794.502353	0.346704
794.694777	0.346722
794.887183	0.346988
795.079571	0.346959
795.271941	0.347193
795.464293	0.347259
795.656626	0.347510
795.848941	0.347571
796.041238	0.347700
796.233516	0.347880
796.425777	0.348110
796.618019	0.348338
796.810243	0.348689
797.002449	0.348740
797.194636	0.348685
797.386805	0.348892
797.578956	0.348966
797.771089	0.349090
797.963204	0.349091
798.155300	0.349050
798.347378	0.348866
798.539438	0.349118
798.731480	0.349312
798.923503	0.349312
799.115509	0.349097
799.307496	0.349366
799.499465	0.349259
799.691415	0.349365
799.883348	0.349552
800.075262	0.349761
800.267158	0.349818
800.459035	0.350168
800.650895	0.350583
800.842736	0.351102
801.034559	0.351283
801.226364	0.351329
801.418150	0.351746
801.609919	0.351884
801.801669	0.352066
801.993401	0.352237
802.185114	0.352215
802.376810	0.352550
802.568487	0.352237
802.760146	0.352438
802.951787	0.353064
803.143409	0.352907
803.335014	0.353151
803.526600	0.353621
803.718168	0.353852
803.909717	0.353844
804.101249	0.353899
804.292762	0.354475
804.484257	0.354699
804.675734	0.354627
804.867192	0.354710
805.058632	0.354710
805.250054	0.354648
805.441458	0.354563
805.632844	0.354826
805.824211	0.354812
806.015561	0.355003
806.206891	0.355143
806.398204	0.355263
806.589499	0.355516
806.780775	0.355931
806.972033	0.356254
807.163273	0.356725
807.354495	0.357044
807.545698	0.357162
807.736883	0.357193
807.928050	0.357592
808.119199	0.358082
808.310329	0.358426
808.501441	0.358775
808.692535	0.358894
808.883611	0.358978
809.074669	0.359130
809.265708	0.359524
809.456729	0.359809
809.647732	0.360108
809.838717	0.360169
810.029683	0.360707
810.220632	0.360907
810.411562	0.361215
810.602474	0.361420
810.793367	0.361802
810.984242	0.362185
811.175100	0.362381
811.365938	0.362440
811.556759	0.362637
811.747562	0.362673
811.938346	0.362708
812.129112	0.362828
812.319860	0.363190
812.510589	0.363494
812.701300	0.363190
812.891994	0.363313
813.082668	0.363629
813.273325	0.363795
813.463964	0.364015
813.654584	0.364120
813.845186	0.364538
814.035769	0.364688
814.226335	0.364706
814.416882	0.365323
814.607411	0.365773
814.797922	0.365893
814.988415	0.366475
815.178889	0.366125
815.369345	0.366571
815.559783	0.366600
815.750203	0.366813
815.940605	0.366932
816.130988	0.366869
816.321353	0.367154
816.511700	0.367335
816.702028	0.367273
816.892339	0.367996
817.082631	0.368068
817.272905	0.368727
817.463161	0.369182
817.653398	0.369655
817.843617	0.370400
818.033819	0.370880
818.224001	0.371340
818.414166	0.371884
818.604312	0.372206
818.794440	0.372880
818.984550	0.372751
819.174642	0.372970
819.364716	0.373340
819.554771	0.373832
819.744808	0.374091
819.934827	0.374240
820.124827	0.374577
820.314810	0.374953
820.504774	0.375050
820.694720	0.375692
820.884647	0.375954
821.074557	0.376374
821.264448	0.376340
821.454321	0.376525
821.644176	0.377132
821.834012	0.377396
822.023831	0.377499
822.213631	0.377848
822.403413	0.378107
822.593176	0.378420
822.782922	0.378474
822.972649	0.378674
823.162358	0.378948
823.352049	0.379118
823.541721	0.379314
823.731376	0.379791
823.921012	0.380107
824.110629	0.380401
824.300229	0.380678
824.489811	0.381584
824.679374	0.382061
824.868919	0.382470
825.058445	0.382831
825.247954	0.383329
825.437444	0.383926
825.626916	0.384394
825.816370	0.384600
826.005806	0.385087
826.195223	0.384878
826.384622	0.385471
826.574003	0.385892
826.763366	0.386062
826.952711	0.386321
827.142037	0.386662
827.331345	0.387220
827.520635	0.387822
827.709906	0.388106
827.899160	0.388454
828.088395	0.388578
828.277612	0.388696
828.466810	0.389111
828.655991	0.389455
828.845153	0.389757
829.034297	0.389769
829.223423	0.389966
829.412531	0.390156
829.601620	0.390813
829.790691	0.391057
829.979744	0.391231
830.168779	0.391730
830.357795	0.392027
830.546793	0.392538
830.735773	0.392619
830.924735	0.392600
831.113679	0.393001
831.302604	0.393267
831.491511	0.393705
831.680400	0.394169
831.869271	0.393968
832.058123	0.394573
832.246957	0.394593
832.435773	0.395162
832.624571	0.395833
832.813351	0.396430
833.002112	0.397106
833.190855	0.397305
833.379580	0.397964
833.568287	0.398918
833.756975	0.399080
833.945645	0.399535
834.134297	0.400103
834.322931	0.400749
834.511547	0.400819
834.700144	0.400787
834.888723	0.401563
835.077284	0.402010
835.265826	0.402006
835.454351	0.402586
835.642857	0.402983
835.831345	0.403280
836.019815	0.403742
836.208266	0.404290
836.396699	0.404853
836.585114	0.405279
836.773511	0.405404
836.961890	0.406183
837.150250	0.406413
837.338592	0.406863
837.526916	0.407304
837.715222	0.407670
837.903510	0.408329
838.091779	0.408666
838.280030	0.408784
838.468263	0.409088
838.656477	0.409554
838.844674	0.410301
839.032852	0.410578
839.221012	0.411027
839.409153	0.411507
839.597277	0.411608
839.785382	0.411802
839.973469	0.412318
840.161538	0.412953
840.349589	0.413331
840.537621	0.413859
840.725635	0.414463
840.913631	0.414847
841.101609	0.415232
841.289568	0.415600
841.477509	0.416005
841.665432	0.416536
841.853337	0.416784
842.041224	0.416922
842.229092	0.417047
842.416942	0.417296
842.604774	0.417587
842.792588	0.417679
842.980383	0.418395
843.168160	0.419219
843.355919	0.419660
843.543660	0.420174
843.731382	0.420935
843.919087	0.421194
844.106773	0.421813
844.294441	0.422720
844.482090	0.423093
844.669722	0.423218
844.857335	0.423479
845.044930	0.423651
845.232507	0.424163
845.420065	0.424565
845.607605	0.425188
845.795127	0.425562
845.982631	0.425650
846.170117	0.426049
846.357584	0.426603
846.545033	0.427149
846.732464	0.427715
846.919877	0.428328
847.107272	0.428407
847.294648	0.428343
847.482006	0.428753
847.669346	0.428852
847.856667	0.429330
848.043971	0.429390
848.231256	0.429476
848.418523	0.429997
848.605771	0.429968
848.793002	0.430433
848.980214	0.430788
849.167408	0.431407
849.354584	0.432367
849.541742	0.432701
849.728881	0.433528
849.916002	0.434109
850.103105	0.434338
850.290190	0.434321
850.477256	0.435061
850.664304	0.436065
850.851334	0.436133
851.038346	0.436189
851.225340	0.436380
851.412315	0.436816
851.599272	0.437017
851.786211	0.437626
851.973132	0.438751
852.160034	0.439126
852.346918	0.439529
852.533784	0.439834
852.720632	0.440459
852.907462	0.441433
853.094273	0.442074
853.281066	0.442478
853.467841	0.442471
853.654598	0.443039
853.841336	0.443454
854.028056	0.443509
854.214758	0.443702
854.401442	0.443785
854.588107	0.443868
854.774755	0.444172
854.961384	0.444591
855.147995	0.445369
855.334587	0.445624
855.521162	0.445712
855.707718	0.446516
855.894256	0.447091
856.080775	0.447824
856.267277	0.448756
856.453760	0.448882
856.640225	0.449475
856.826672	0.449702
857.013101	0.450113
857.199511	0.450592
857.385903	0.451130
857.572277	0.451962
857.758633	0.452175
857.944970	0.452839
858.131290	0.453187
858.317591	0.453853
858.503873	0.454155
858.690138	0.454576
858.876384	0.454879
859.062612	0.454837
859.248822	0.455219
859.435014	0.455664
859.621188	0.455121
859.807343	0.455274
859.993480	0.455267
860.179599	0.455730
860.365699	0.456104
860.551781	0.456433
860.737846	0.456609
860.923891	0.456816
861.109919	0.457243
861.295929	0.457333
861.481920	0.458397
861.667893	0.458690
861.853848	0.459016
862.039784	0.458995
862.225702	0.459219
862.411603	0.460074
862.597484	0.459979
862.783348	0.460713
862.969193	0.461639
863.155021	0.461564
863.340830	0.461920
863.526620	0.462097
863.712393	0.462707
863.898147	0.463429
864.083883	0.463122
864.269601	0.463712
864.455301	0.463728
864.640982	0.464074
864.826645	0.464692
865.012290	0.465382
865.197917	0.466487
865.383526	0.467617
865.569116	0.467383
865.754688	0.468258
865.940242	0.468586
866.125777	0.468280
866.311295	0.468463
866.496794	0.468409
866.682275	0.468627
866.867737	0.468503
867.053182	0.468265
867.238608	0.469358
867.424016	0.469669
867.609406	0.469626
867.794778	0.470213
867.980131	0.470871
868.165466	0.470814
868.350783	0.470562
868.536082	0.470782
868.721362	0.470509
868.906625	0.470376
869.091869	0.470237
869.277094	0.471058
869.462302	0.471363
869.647491	0.471161
869.832662	0.471950
870.017815	0.472864
870.202950	0.473250
870.388066	0.474157
870.573165	0.474600
870.758245	0.475116
870.943306	0.475723
871.128350	0.476762
871.313375	0.477102
871.498382	0.477269
871.683371	0.477780
871.868342	0.477836
872.053294	0.477970
872.238229	0.477984
872.423144	0.478044
872.608042	0.477606
872.792922	0.477697
872.977783	0.477774
873.162626	0.478306
873.347451	0.477901
873.532258	0.478500
873.717046	0.478588
873.901816	0.478628
874.086568	0.479073
874.271302	0.479185
874.456017	0.478868
874.640715	0.479414
874.825394	0.479274
875.010055	0.479539
875.194697	0.479362
875.379322	0.479236
875.563928	0.479809
875.748516	0.479752
875.933085	0.480344
876.117637	0.481011
876.302170	0.480922
876.486685	0.481107
876.671182	0.481110
876.855661	0.481299
877.040121	0.481533
877.224563	0.481753
877.408987	0.482600
877.593393	0.482411
877.777780	0.482145
877.962150	0.482613
878.146501	0.483188
878.330833	0.483535
878.515148	0.483735
878.699444	0.483901
878.883722	0.484008
879.067982	0.483938
879.252224	0.483999
879.436447	0.483786
879.620653	0.484165
879.804840	0.484082
879.989008	0.484376
880.173159	0.484367
880.357291	0.484649
880.541405	0.484853
880.725501	0.484185
880.909579	0.484310
881.093638	0.484808
881.277680	0.484711
881.461703	0.484555
881.645707	0.484286
881.829694	0.484692
882.013662	0.484431
882.197612	0.484408
882.381544	0.485238
882.565458	0.485982
882.749353	0.485949
882.933230	0.485501
883.117089	0.485606
883.300930	0.485485
883.484753	0.485563
883.668557	0.485049
883.852343	0.484613
884.036111	0.484297
884.219861	0.484381
884.403592	0.484490
884.587305	0.485440
884.771000	0.485622
884.954677	0.485737
885.138335	0.485516
885.321976	0.486137
885.505598	0.486756
885.689201	0.487135
885.872787	0.486321
886.056354	0.486599
886.239904	0.486375
886.423434	0.486103
886.606947	0.486154
886.790442	0.486793
886.973918	0.487182
887.157376	0.486811
887.340816	0.486573
887.524237	0.487362
887.707641	0.487246
887.891026	0.487140
888.074393	0.487015
888.257741	0.487257
888.441072	0.486500
888.624384	0.486151
888.807678	0.486466
888.990954	0.486171
889.174211	0.486430
889.357451	0.486270
889.540672	0.486459
889.723875	0.486834
889.907059	0.486517
890.090226	0.486928
890.273374	0.486943
890.456504	0.486968
890.639616	0.487721
890.822709	0.487280
891.005785	0.487230
891.188842	0.486387
891.371881	0.486781
891.554901	0.487515
891.737904	0.486740
891.920888	0.486867
892.103854	0.486535
892.286802	0.486282
892.469731	0.486025
892.652643	0.485922
892.835536	0.486041
893.018410	0.485517
893.201267	0.484566
893.384106	0.484779
893.566926	0.484707
893.749728	0.484991
893.932511	0.484570
894.115277	0.484445
894.298024	0.483945
894.480753	0.483985
894.663464	0.483870
894.846157	0.484041
895.028831	0.484399
895.211487	0.484160
895.394125	0.483480
895.576745	0.483870
895.759346	0.483759
895.941930	0.484081
896.124495	0.483968
896.307041	0.483700
896.489570	0.484060
896.672080	0.483378
896.854573	0.483521
897.037046	0.483670
897.219502	0.483297
897.401940	0.483310
897.584359	0.482571
897.766760	0.482264
897.949143	0.481495
898.131507	0.481335
898.313854	0.481198
898.496182	0.480410
898.678492	0.479679
898.860783	0.479324
899.043057	0.478506
899.225312	0.478562
899.407549	0.477950
899.589768	0.478383
899.771968	0.478029
899.954151	0.477426
900.136315	0.477546
900.318461	0.477243
900.500588	0.476873
900.682698	0.476066
900.864789	0.475846
901.046862	0.475662
901.228917	0.474938
901.410953	0.474279
901.592971	0.474321
901.774972	0.473768
901.956953	0.473889
902.138917	0.473408
902.320862	0.473847
902.502790	0.473795
902.684699	0.473343
902.866589	0.473237
903.048462	0.472216
903.230316	0.472699
903.412152	0.472360
903.593970	0.471642
903.775770	0.471681
903.957551	0.471791
904.139314	0.471146
904.321059	0.470886
904.502786	0.470248
904.684494	0.470650
904.866185	0.469058
905.047857	0.468639
905.229510	0.468756
905.411146	0.467956
905.592763	0.467225
905.774363	0.466574
905.955943	0.466303
906.137506	0.466321
906.319051	0.465869
906.500577	0.465991
906.682085	0.465288
906.863575	0.464879
907.045046	0.464708
907.226500	0.464105
907.407935	0.463852
907.589352	0.463166
907.770750	0.463110
907.952131	0.462241
908.133493	0.462166
908.314837	0.462044
908.496163	0.461722
908.677470	0.460607
908.858760	0.459914
909.040031	0.459033
909.221284	0.458721
909.402518	0.457777
909.583735	0.457306
909.764933	0.456404
909.946113	0.455892
910.127275	0.454597
910.308418	0.454370
910.489544	0.454601
910.670651	0.454615
910.851740	0.454091
911.032810	0.453451
911.213863	0.453293
911.394897	0.453010
911.575913	0.452629
911.756911	0.452614
911.937890	0.451968
912.118851	0.450880
912.299794	0.449767
912.480719	0.449646
912.661626	0.449282
912.842514	0.449014
913.023384	0.448434
913.204236	0.447713
913.385070	0.446847
913.565886	0.446878
913.746683	0.446644
913.927462	0.446399
914.108223	0.445341
914.288965	0.444522
914.469690	0.443895
914.650396	0.443100
914.831084	0.442217
915.011754	0.441324
915.192405	0.440039
915.373038	0.439314
915.553653	0.438838
915.734250	0.438474
915.914829	0.437485
916.095389	0.436138
916.275931	0.435119
916.456455	0.434849
916.636961	0.434293
916.817448	0.433905
916.997917	0.433174
917.178368	0.433045
917.358801	0.431894
917.539216	0.432171
917.719612	0.431850
917.899990	0.430697
918.080350	0.430113
918.260692	0.429462
918.441015	0.428936
918.621320	0.428223
918.801607	0.426766
918.981876	0.426871
919.162127	0.424941
919.342359	0.424584
919.522573	0.424944
919.702769	0.424019
919.882947	0.423965
920.063106	0.423787
920.243247	0.423513
920.423370	0.422346
920.603475	0.421100
920.783562	0.420780
920.963630	0.419586
921.143680	0.418619
921.323712	0.417533
921.503725	0.416210
921.683721	0.414491
921.863698	0.413485
922.043657	0.413536
922.223598	0.413109
922.403520	0.413152
922.583424	0.412104
922.763311	0.410927
922.943178	0.410585
923.123028	0.409564
923.302859	0.408809
923.482673	0.407997
923.662467	0.407090
923.842244	0.405194
924.022003	0.403891
924.201743	0.403259
924.381465	0.402052
924.561169	0.401394
924.740854	0.401080
924.920522	0.400616
925.100171	0.398977
925.279802	0.398213
925.459414	0.398757
925.639009	0.398330
925.818585	0.397177
925.998143	0.396728
926.177683	0.395019
926.357205	0.394631
926.536708	0.393081
926.716193	0.392892
926.895660	0.391784
927.075109	0.390451
927.254539	0.388748
927.433951	0.388543
927.613345	0.388016
927.792721	0.387041
927.972079	0.385862
928.151418	0.384771
928.330739	0.383011
928.510042	0.383048
928.689327	0.382177
928.868593	0.381248
929.047841	0.380003
929.227071	0.378400
929.406283	0.378494
929.585476	0.377219
929.764652	0.376576
929.943809	0.376314
930.122948	0.374985
930.302068	0.373166
930.481171	0.372066
930.660255	0.370404
930.839321	0.369826
931.018369	0.368028
931.197398	0.366857
931.376409	0.366880
931.555402	0.366144
931.734377	0.364387
931.913334	0.363712
932.092272	0.363139
932.271192	0.362233
932.450094	0.360819
932.628978	0.360301
932.807844	0.359583
932.986691	0.358342
933.165520	0.356298
933.344331	0.355584
933.523123	0.353997
933.701898	0.352843
933.880654	0.352905
934.059392	0.351064
934.238111	0.349771
934.416813	0.347625
934.595496	0.346011
934.774161	0.344701
934.952808	0.342950
935.131437	0.342771
935.310047	0.341232
935.488639	0.339514
935.667213	0.339532
935.845769	0.338671
936.024306	0.338294
936.202825	0.336233
936.381326	0.336784
936.559809	0.336535
936.738274	0.336049
936.916720	0.335063
937.095148	0.334287
937.273558	0.332160
937.451950	0.331015
937.630323	0.329377
937.808678	0.329136
937.987015	0.326980
938.165334	0.326593
938.343635	0.325171
938.521917	0.323498
938.700181	0.321465
938.878427	0.322256
939.056655	0.321460
939.234864	0.320710
939.413055	0.319578
939.591228	0.318521
939.769383	0.316515
939.947519	0.313776
940.125638	0.312845
940.303738	0.312092
940.481820	0.310641
940.659883	0.307994
940.837929	0.306907
941.015956	0.305733
941.193965	0.304814
941.371955	0.302081
941.549928	0.302025
941.727882	0.302569
941.905818	0.302025
942.083736	0.299437
942.261636	0.300610
942.439517	0.299985
942.617380	0.298984
942.795225	0.297610
942.973052	0.298761
943.150860	0.296698
943.328651	0.295569
943.506423	0.293205
943.684176	0.292462
943.861912	0.289191
944.039629	0.288368
944.217328	0.286612
944.395009	0.285930
944.572672	0.284590
944.750317	0.282989
944.927943	0.279483
945.105551	0.279122
945.283141	0.278659
945.460712	0.277229
945.638265	0.276448
945.815801	0.275129
945.993317	0.273714
946.170816	0.271411
946.348297	0.270914
946.525759	0.269674
946.703203	0.267800
946.880629	0.265338
947.058036	0.265581
947.235425	0.261914
947.412797	0.262432
947.590149	0.261640
947.767484	0.259097
947.944800	0.258470
948.122099	0.257482
948.299379	0.256093
948.476640	0.255753
948.653884	0.253742
948.831109	0.253174
949.008316	0.250039
949.185505	0.248301
949.362676	0.247111
949.539828	0.245957
949.716962	0.246311
949.894078	0.245126
950.071176	0.242983
950.248256	0.241392
950.425317	0.239696
950.602360	0.239232
950.779385	0.237762
950.956391	0.238485
951.133380	0.237203
951.310350	0.235372
951.487302	0.234931
951.664235	0.234255
951.841151	0.230940
952.018048	0.231260
952.194927	0.228877
952.371788	0.226389
952.548631	0.223629
952.725455	0.221596
952.902261	0.218771
953.079049	0.216351
953.255819	0.214336
953.432570	0.213690
953.609303	0.211528
953.786018	0.210793
953.962715	0.209007
954.139394	0.206697
954.316054	0.204801
954.492696	0.204801
954.669320	0.205326
954.845926	0.205670
955.022513	0.205038
955.199083	0.204950
955.375634	0.204412
955.552166	0.204427
955.728681	0.204184
955.905177	0.205391
956.081655	0.202364
956.258115	0.201192
956.434557	0.198271
956.610980	0.197946
956.787385	0.195825
956.963772	0.192679
957.140141	0.191115
957.316492	0.191208
957.492824	0.189282
957.669138	0.188559
957.845434	0.187191
958.021712	0.188086
958.197971	0.187832
958.374212	0.185949
958.550435	0.184842
958.726640	0.184665
958.902826	0.184062
959.078995	0.181988
959.255145	0.183915
959.431277	0.181396
959.607390	0.179588
959.783486	0.177958
959.959563	0.180558
960.135622	0.177511
960.311662	0.176444
960.487685	0.171989
960.663689	0.173967
960.839675	0.173772
961.015643	0.172224
961.191593	0.171769
961.367524	0.172080
961.543437	0.167513
961.719332	0.169791
961.895209	0.169952
962.071067	0.171401
962.246907	0.169575
962.422730	0.166390
962.598533	0.165189
962.774319	0.165834
962.950086	0.164344
963.125835	0.165410
963.301566	0.164912
963.477279	0.161396
963.652973	0.160561
963.828650	0.158563
964.004308	0.158724
964.179947	0.159903
964.355569	0.159115
964.531172	0.159075
964.706757	0.158012
964.882324	0.159278
965.057873	0.159287
965.233403	0.160624
965.408916	0.159734
965.584410	0.160554
965.759885	0.161957
965.935343	0.158583
966.110782	0.157667
966.286203	0.156335
966.461606	0.155003
966.636991	0.155308
966.812357	0.151533
966.987705	0.152949
967.163035	0.151786
967.338347	0.151421
967.513641	0.152688
967.688916	0.152437
967.864173	0.153071
968.039412	0.151879
968.214632	0.153584
968.389835	0.154222
968.565019	0.151793
968.740185	0.150223
968.915333	0.149171
969.090462	0.151844
969.265573	0.152432
969.440667	0.150375
969.615741	0.151885
969.790798	0.149892
969.965836	0.150725
970.140856	0.151553
970.315858	0.153820
970.490842	0.152636
970.665808	0.149165
970.840755	0.148550
971.015684	0.151470
971.190595	0.152783
971.365487	0.154383
971.540362	0.153299
971.715218	0.153097
971.890056	0.151404
972.064875	0.153664
972.239677	0.152311
972.414460	0.154587
972.589225	0.152569
972.763972	0.152193
972.938700	0.151308
973.113411	0.153687
973.288103	0.152430
973.462777	0.152359
973.637432	0.151943
973.812070	0.154928
973.986689	0.153437
974.161290	0.155257
974.335873	0.153004
974.510437	0.153297
974.684984	0.152062
974.859512	0.152804
975.034022	0.154424
975.208513	0.151081
975.382987	0.148867
975.557442	0.146918
975.731879	0.146407
975.906298	0.145550
976.080698	0.145283
976.255080	0.144685
976.429445	0.145032
976.603790	0.142270
976.778118	0.144123
976.952427	0.145346
977.126719	0.145798
977.300992	0.145420
977.475246	0.146168
977.649483	0.147024
977.823701	0.148293
977.997901	0.147076
978.172083	0.150605
978.346247	0.151002
978.520392	0.148887
978.694519	0.150710
978.868628	0.149680
979.042719	0.150172
979.216791	0.149096
979.390845	0.150457
979.564882	0.151201
979.738899	0.149553
979.912899	0.149101
980.086880	0.150839
980.260843	0.149207
980.434788	0.148350
980.608715	0.148049
980.782623	0.148403
980.956514	0.146741
981.130386	0.147867
981.304240	0.148727
981.478075	0.150272
981.651892	0.151115
981.825692	0.150526
981.999472	0.151309
982.173235	0.153117
982.346980	0.151678
982.520706	0.150428
982.694414	0.150178
982.868104	0.150695
983.041775	0.145419
983.215428	0.144059
983.389064	0.146070
983.562680	0.146743
983.736279	0.143932
983.909860	0.142193
984.083422	0.142408
984.256966	0.140801
984.430491	0.139522
984.603999	0.142585
984.777488	0.143470
984.950959	0.142865
985.124412	0.144969
985.297847	0.146085
985.471263	0.149491
985.644661	0.150870
985.818041	0.150917
985.991403	0.150706
986.164747	0.149463
986.338072	0.146161
986.511379	0.146078
986.684668	0.144724
986.857938	0.146656
987.031191	0.146581
987.204425	0.145782
987.377641	0.147844
987.550839	0.146443
987.724018	0.144954
987.897179	0.147404
988.070322	0.146663
988.243447	0.145510
988.416554	0.143860
988.589642	0.144980
988.762712	0.146140
988.935764	0.146266
989.108798	0.147573
989.281813	0.149288
989.454811	0.149184
989.627790	0.149597
989.800751	0.150880
989.973693	0.150182
990.146617	0.146399
990.319524	0.144851
990.492412	0.143225
990.665281	0.144044
990.838133	0.144343
991.010966	0.145368
991.183781	0.145716
991.356578	0.145642
991.529356	0.144816
991.702117	0.147025
991.874859	0.149430
992.047583	0.148975
992.220288	0.148401
992.392976	0.150167
992.565645	0.147400
992.738296	0.148351
992.910929	0.148359
993.083543	0.151366
993.256139	0.151274
993.428718	0.149377
993.601277	0.149446
993.773819	0.148502
993.946342	0.147272
994.118848	0.150881
994.291335	0.150390
994.463803	0.149925
994.636254	0.148473
994.808686	0.146550
994.981100	0.146736
995.153496	0.145124
995.325874	0.146283
995.498233	0.145342
995.670574	0.144046
995.842897	0.142571
996.015202	0.142112
996.187488	0.141874
996.359757	0.141984
996.532007	0.141861
996.704239	0.144088
996.876452	0.142205
997.048648	0.142907
997.220825	0.143259
997.392984	0.145844
997.565124	0.145376
997.737247	0.146848
997.909351	0.147774
998.081437	0.149927
998.253505	0.147370
998.425554	0.149256
998.597586	0.149889
998.769599	0.148665
998.941594	0.148105
999.113571	0.149737
999.285529	0.147714
999.457469	0.148222
999.629391	0.145085
999.801295	0.146561
999.973181	0.146223
1000.145048	0.145690
1000.316897	0.148081
1000.488728	0.146351
1000.660541	0.145611
1000.832335	0.146090
1001.004111	0.145672
1001.175869	0.146949
1001.347609	0.148225
1001.519331	0.147516
1001.691034	0.146927
1001.862719	0.144236
1002.034386	0.144955
1002.206035	0.145979
1002.377665	0.144589
1002.549277	0.144171
1002.720871	0.143333
1002.892447	0.142824
1003.064004	0.143254
1003.235544	0.144138
1003.407065	0.146769
1003.578568	0.145586
1003.750052	0.144566
1003.921519	0.144501
1004.092967	0.145077
1004.264397	0.146588
1004.435809	0.146266
1004.607202	0.147165
1004.778577	0.147217
1004.949934	0.143609
1005.121273	0.145513
1005.292594	0.145720
1005.463896	0.146437
1005.635180	0.146866
1005.806446	0.146472
1005.977694	0.147547
1006.148923	0.144883
1006.320135	0.146014
1006.491328	0.149195
1006.662503	0.149326
1006.833659	0.149083
1007.004798	0.149665
1007.175918	0.147950
1007.347020	0.146902
1007.518103	0.146794
1007.689169	0.148884
1007.860216	0.148185
1008.031245	0.148282
1008.202256	0.149484
1008.373248	0.148677
1008.544223	0.148483
1008.715179	0.150895
1008.886117	0.151829
1009.057036	0.151453
1009.227938	0.150942
1009.398821	0.149449
1009.569686	0.147803
1009.740533	0.145256
1009.911361	0.145817
1010.082172	0.147181
1010.252964	0.146495
1010.423738	0.146102
1010.594493	0.147208
1010.765231	0.147487
1010.935950	0.149765
1011.106651	0.152151
1011.277334	0.150878
1011.447998	0.151814
1011.618645	0.150982
1011.789273	0.151281
1011.959882	0.151400
1012.130474	0.151828
1012.301048	0.152634
1012.471603	0.148814
1012.642140	0.147059
1012.812658	0.147825
1012.983159	0.149686
1013.153641	0.147681
1013.324105	0.147633
1013.494551	0.147912
1013.664979	0.145707
1013.835388	0.144288
1014.005779	0.146135
1014.176152	0.145646
1014.346507	0.146262
1014.516843	0.144470
1014.687162	0.146802
1014.857462	0.145678
1015.027744	0.144809
1015.198007	0.145290
1015.368252	0.147028
1015.538480	0.148496
1015.708689	0.149060
1015.878879	0.149160
1016.049052	0.149449
1016.219206	0.148182
1016.389342	0.147186
1016.559460	0.147297
1016.729559	0.146337
1016.899641	0.145068
1017.069704	0.144254
1017.239749	0.144604
1017.409775	0.145402
1017.579784	0.143067
1017.749774	0.142949
1017.919746	0.145182
1018.089700	0.144824
1018.259635	0.144950
1018.429553	0.144541
1018.599452	0.145034
1018.769333	0.143778
1018.939195	0.142111
1019.109040	0.144856
1019.278866	0.146762
1019.448674	0.145033
1019.618464	0.147100
1019.788235	0.148895
1019.957989	0.147880
1020.127724	0.148975
1020.297441	0.148917
1020.467139	0.150441
1020.636820	0.148222
1020.806482	0.145725
1020.976126	0.148327
1021.145752	0.146946
1021.315359	0.145889
1021.484948	0.147648
1021.654519	0.145420
1021.824072	0.148068
1021.993607	0.147446
1022.163123	0.149252
1022.332621	0.150009
1022.502101	0.148659
1022.671563	0.148539
1022.841007	0.145799
1023.010432	0.144456
1023.179839	0.145206
1023.349228	0.143210
1023.518598	0.143621
1023.687951	0.142371
1023.857285	0.144245
1024.026601	0.143847
1024.195899	0.141804
1024.365178	0.143616
1024.534439	0.143070
1024.703682	0.143647
1024.872907	0.144185
1025.042114	0.145449
1025.211302	0.145621
1025.380472	0.142639
1025.549624	0.142922
1025.718758	0.145167
1025.887873	0.146984
1026.056970	0.149788
1026.226049	0.148754
1026.395110	0.146947
1026.564153	0.143826
1026.733177	0.142779
1026.902183	0.144800
1027.071171	0.144647
1027.240141	0.146013
1027.409092	0.143450
1027.578026	0.142108
1027.746940	0.143530
1027.915837	0.144342
1028.084716	0.144907
1028.253576	0.145596
1028.422418	0.143864
1028.591242	0.142848
1028.760048	0.141760
1028.928835	0.142990
1029.097604	0.141725
1029.266355	0.141804
1029.435088	0.142645
1029.603803	0.143234
1029.772499	0.143429
1029.941177	0.146415
1030.109837	0.145960
1030.278478	0.144964
1030.447102	0.145118
1030.615707	0.145357
1030.784294	0.144403
1030.952863	0.143488
1031.121413	0.142550
1031.289945	0.141574
1031.458460	0.139907
1031.626955	0.140909
1031.795433	0.140390
1031.963892	0.142402
1032.132334	0.143064
1032.300756	0.143517
1032.469161	0.144081
1032.637548	0.144832
1032.805916	0.146165
1032.974266	0.143792
1033.142598	0.144060
1033.310911	0.144976
1033.479207	0.142829
1033.647484	0.142882
1033.815743	0.141237
1033.983983	0.140433
1034.152206	0.139900
1034.320410	0.136908
1034.488596	0.138563
1034.656764	0.138205
1034.824914	0.137184
1034.993045	0.137925
1035.161158	0.138932
1035.329253	0.141684
1035.497330	0.141998
1035.665388	0.142669
1035.833428	0.145965
1036.001450	0.145641
1036.169454	0.145678
1036.337440	0.148203
1036.505407	0.148746
1036.673356	0.147237
1036.841287	0.143282
1037.009200	0.144272
1037.177094	0.145174
1037.344970	0.144745
1037.512828	0.145195
1037.680668	0.145249
1037.848489	0.143535
1038.016293	0.143268
1038.184078	0.143809
1038.351845	0.146415
1038.519593	0.146647
1038.687324	0.145035
1038.855036	0.144342
1039.022730	0.143931
1039.190406	0.145362
1039.358063	0.145361
1039.525702	0.145285
1039.693323	0.144668
1039.860926	0.143753
1040.028511	0.142761
1040.196077	0.144352
1040.363625	0.144765
1040.531155	0.143488
1040.698667	0.142763
1040.866161	0.142419
1041.033636	0.141334
1041.201093	0.141747
1041.368532	0.139474
1041.535952	0.138839
1041.703355	0.137932
1041.870739	0.137368
1042.038105	0.138038
1042.205452	0.137179
1042.372782	0.136075
1042.540093	0.135996
1042.707386	0.136773
1042.874661	0.139867
1043.041918	0.143462
1043.209156	0.142315
1043.376376	0.142732
1043.543578	0.143398
1043.710762	0.144269
1043.877927	0.146043
1044.045074	0.147457
1044.212203	0.147284
1044.379314	0.148350
1044.546407	0.146288
1044.713481	0.148896
1044.880537	0.149431
1045.047575	0.148906
1045.214595	0.145215
1045.381596	0.146640
1045.548579	0.145718
1045.715544	0.145950
1045.882491	0.143851
1046.049420	0.143665
1046.216330	0.142918
1046.383222	0.142574
1046.550096	0.143424
1046.716951	0.146517
1046.883789	0.144628
1047.050608	0.145081
1047.217409	0.144904
1047.384192	0.145915
1047.550956	0.145031
1047.717703	0.142363
1047.884431	0.142923
1048.051140	0.144592
1048.217832	0.144317
1048.384505	0.143741
1048.551161	0.143268
1048.717798	0.143851
1048.884416	0.143689
1049.051017	0.142007
1049.217599	0.144514
1049.384163	0.144369
1049.550709	0.141056
1049.717237	0.141301
1049.883746	0.142801
1050.050237	0.141807
1050.216710	0.141926
1050.383165	0.142134
1050.549601	0.142665
1050.716019	0.141675
1050.882420	0.140804
1051.048801	0.142936
1051.215165	0.140698
1051.381510	0.140910
1051.547837	0.142617
1051.714146	0.142261
1051.880437	0.140911
1052.046709	0.140944
1052.212964	0.140893
1052.379200	0.141348
1052.545417	0.139702
1052.711617	0.140433
1052.877798	0.141813
1053.043961	0.140267
1053.210106	0.139022
1053.376233	0.140166
1053.542341	0.141435
1053.708432	0.141182
1053.874504	0.141312
1054.040557	0.141611
1054.206593	0.144024
1054.372610	0.143251
1054.538609	0.144168
1054.704590	0.142993
1054.870553	0.142215
1055.036497	0.139934
1055.202424	0.139358
1055.368331	0.140687
1055.534221	0.141947
1055.700093	0.141443
1055.865946	0.140189
1056.031781	0.139549
1056.197598	0.141966
1056.363397	0.141111
1056.529177	0.145015
1056.694939	0.147223
1056.860683	0.145838
1057.026409	0.145937
1057.192116	0.145541
1057.357806	0.144053
1057.523477	0.145485
1057.689130	0.145719
1057.854764	0.144071
1058.020381	0.141888
1058.185979	0.139896
1058.351559	0.140064
1058.517120	0.140644
1058.682664	0.139325
1058.848189	0.142705
1059.013696	0.141332
1059.179185	0.139419
1059.344656	0.142395
1059.510108	0.141651
1059.675542	0.143521
1059.840958	0.141316
1060.006356	0.139980
1060.171735	0.142458
1060.337096	0.140011
1060.502439	0.140229
1060.667764	0.142292
1060.833071	0.142414
1060.998359	0.144192
1061.163629	0.143428
1061.328881	0.146000
1061.494115	0.146854
1061.659330	0.144859
1061.824527	0.143730
1061.989706	0.143777
1062.154867	0.144609
1062.320010	0.143503
1062.485134	0.143922
1062.650240	0.143383
1062.815328	0.144007
1062.980398	0.143406
1063.145449	0.143586
1063.310482	0.145795
1063.475497	0.145691
1063.640494	0.144268
1063.805473	0.146245
1063.970433	0.145494
1064.135375	0.143317
1064.300299	0.144525
1064.465204	0.144590
1064.630092	0.145068
1064.794961	0.142219
1064.959812	0.142639
1065.124645	0.140889
1065.289459	0.140580
1065.454256	0.142539
1065.619034	0.147544
1065.783793	0.145869
1065.948535	0.145618
1066.113258	0.147056
1066.277964	0.148643
1066.442651	0.149963
1066.607319	0.149232
1066.771970	0.147838
1066.936602	0.146022
1067.101216	0.142876
1067.265812	0.142037
1067.430389	0.142121
1067.594949	0.141512
1067.759490	0.141252
1067.924013	0.141632
1068.088518	0.146631
1068.253004	0.148616
1068.417472	0.145828
1068.581922	0.146166
1068.746354	0.146742
1068.910768	0.147011
1069.075163	0.143734
1069.239540	0.145318
1069.403899	0.145130
1069.568240	0.142517
1069.732562	0.141922
1069.896866	0.143386
1070.061152	0.144204
1070.225420	0.144043
1070.389670	0.146134
1070.553901	0.149764
1070.718114	0.148873
1070.882309	0.147397
1071.046486	0.148573
1071.210644	0.150421
1071.374784	0.151882
1071.538906	0.151209
1071.703010	0.151828
1071.867096	0.151015
1072.031163	0.150496
1072.195212	0.151449
1072.359243	0.151957
1072.523256	0.152924
1072.687250	0.151635
1072.851226	0.149201
1073.015184	0.151638
1073.179124	0.151583
1073.343045	0.151876
1073.506949	0.152361
1073.670834	0.151130
1073.834701	0.150213
1073.998549	0.147890
1074.162380	0.148563
1074.326192	0.154692
1074.489986	0.154241
1074.653761	0.155137
1074.817519	0.153190
1074.981258	0.153700
1075.144979	0.155482
1075.308682	0.154161
1075.472367	0.154073
1075.636033	0.154355
1075.799681	0.151559
1075.963311	0.150030
1076.126923	0.149920
1076.290516	0.150616
1076.454092	0.151260
1076.617649	0.151077
1076.781187	0.153290
1076.944708	0.153668
1077.108210	0.150881
1077.271695	0.151309
1077.435160	0.153128
1077.598608	0.154006
1077.762038	0.153132
1077.925449	0.150879
1078.088842	0.152460
1078.252217	0.155090
1078.415573	0.151939
1078.578912	0.151123
1078.742232	0.149951
1078.905534	0.148936
1079.068817	0.149215
1079.232083	0.151640
1079.395330	0.153165
1079.558559	0.150946
1079.721770	0.149108
1079.884962	0.151015
1080.048136	0.154253
1080.211293	0.153559
1080.374430	0.152459
1080.537550	0.150238
1080.700651	0.150419
1080.863735	0.151276
1081.026800	0.152151
1081.189846	0.153581
1081.352875	0.153609
1081.515885	0.152049
1081.678877	0.152887
1081.841851	0.152917
1082.004807	0.153176
1082.167744	0.152264
1082.330663	0.151584
1082.493564	0.150768
1082.656447	0.148396
1082.819312	0.149382
1082.982158	0.150605
1083.144986	0.150900
1083.307796	0.151263
1083.470587	0.153377
1083.633361	0.152667
1083.796116	0.152048
1083.958853	0.152845
1084.121571	0.154144
1084.284272	0.153660
1084.446954	0.155127
1084.609618	0.154653
1084.772264	0.156680
1084.934892	0.154773
1085.097501	0.155783
1085.260092	0.156909
1085.422665	0.155800
1085.585220	0.157605
1085.747756	0.156611
1085.910274	0.153079
1086.072774	0.152940
1086.235256	0.151246
1086.397720	0.152105
1086.560165	0.153916
1086.722592	0.152520
1086.885001	0.153913
1087.047392	0.153521
1087.209764	0.157320
1087.372119	0.159491
1087.534455	0.159557
1087.696772	0.160736
1087.859072	0.160220
1088.021353	0.156453
1088.183616	0.159631
1088.345861	0.161901
1088.508088	0.159150
1088.670296	0.159458
1088.832486	0.157966
1088.994658	0.156501
1089.156812	0.156070
1089.318948	0.156552
1089.481065	0.158265
1089.643164	0.157209
1089.805245	0.156107
1089.967308	0.158265
1090.129352	0.156895
1090.291378	0.159429
1090.453386	0.162039
1090.615376	0.162865
1090.777347	0.161725
1090.939301	0.164854
1091.101236	0.162457
1091.263153	0.161327
1091.425051	0.160489
1091.586932	0.162874
1091.748794	0.162398
1091.910638	0.164959
1092.072463	0.164839
1092.234271	0.163684
1092.396060	0.162409
1092.557831	0.163364
1092.719584	0.162285
1092.881319	0.161184
1093.043035	0.161650
1093.204733	0.160302
1093.366413	0.157947
1093.528075	0.158361
1093.689718	0.163013
1093.851343	0.162308
1094.012950	0.163267
1094.174539	0.162321
1094.336110	0.163922
1094.497662	0.161315
1094.659196	0.163393
1094.820712	0.161869
1094.982210	0.162800
1095.143689	0.159466
1095.305151	0.158090
1095.466594	0.159577
1095.628018	0.163287
1095.789425	0.162552
1095.950813	0.162033
1096.112183	0.162600
1096.273535	0.164537
1096.434869	0.164080
1096.596184	0.162794
1096.757482	0.163436
1096.918761	0.164854
1097.080021	0.163583
1097.241264	0.167315
1097.402488	0.166686
1097.563694	0.168224
1097.724882	0.168226
1097.886052	0.169650
1098.047203	0.173929
1098.208336	0.176161
1098.369451	0.175609
1098.530548	0.175679
1098.691627	0.171906
1098.852687	0.172691
1099.013729	0.169625
1099.174753	0.169808
1099.335758	0.169569
1099.496746	0.168508
1099.657715	0.163739
1099.818666	0.160652
1099.979599	0.158471
1100.140513	0.161039
1100.301409	0.162541
1100.462287	0.163411
1100.623147	0.163443
1100.783989	0.159437
1100.944812	0.158871
1101.105617	0.163224
1101.266404	0.161174
1101.427173	0.165558
1101.587923	0.163922
1101.748656	0.167187
1101.909370	0.164684
1102.070066	0.162815
1102.230743	0.165583
1102.391403	0.167208
1102.552044	0.166968
1102.712667	0.171069
1102.873271	0.172611
1103.033858	0.170531
1103.194426	0.167887
1103.354976	0.174042
1103.515508	0.176195
1103.676021	0.180459
1103.836517	0.181113
1103.996994	0.182571
1104.157453	0.180563
1104.317893	0.173014
1104.478316	0.178393
1104.638720	0.177490
1104.799106	0.174836
1104.959474	0.177643
1105.119823	0.176457
1105.280155	0.173347
1105.440468	0.172980
1105.600763	0.176084
1105.761039	0.181824
1105.921298	0.178768
1106.081538	0.179572
1106.241760	0.179671
1106.401964	0.177651
1106.562149	0.176413
1106.722316	0.176744
1106.882465	0.176805
1107.042596	0.174972
1107.202709	0.176045
1107.362803	0.175841
1107.522879	0.174328
1107.682937	0.170226
1107.842977	0.171607
1108.002999	0.172149
1108.163002	0.171494
1108.322987	0.171663
1108.482954	0.174060
1108.642902	0.171116
1108.802833	0.175215
1108.962745	0.176049
1109.122639	0.181389
1109.282515	0.178962
1109.442372	0.174967
1109.602211	0.174864
1109.762032	0.175363
1109.921835	0.176191
1110.081620	0.174664
1110.241386	0.176091
1110.401134	0.174880
1110.560864	0.173529
1110.720576	0.176330
1110.880269	0.178175
1111.039945	0.180018
1111.199602	0.178763
1111.359240	0.179724
1111.518861	0.184540
1111.678463	0.181409
1111.838047	0.178553
1111.997613	0.176143
1112.157161	0.175263
1112.316690	0.174839
1112.476202	0.177840
1112.635695	0.177498
1112.795169	0.172441
1112.954626	0.170016
1113.114064	0.169132
1113.273484	0.173609
1113.432886	0.177219
1113.592270	0.175037
1113.751635	0.172747
1113.910983	0.175085
1114.070312	0.179218
1114.229622	0.179362
1114.388915	0.181306
1114.548189	0.182321
1114.707445	0.180125
1114.866683	0.179090
1115.025903	0.176710
1115.185104	0.182202
1115.344287	0.173348
1115.503452	0.172165
1115.662599	0.169634
1115.821727	0.167946
1115.980838	0.164485
1116.139930	0.169103
1116.299004	0.168662
1116.458059	0.172791
1116.617097	0.172155
1116.776116	0.169654
1116.935117	0.172254
1117.094099	0.171654
1117.253064	0.174302
1117.412010	0.180740
1117.570938	0.177043
1117.729848	0.179603
1117.888740	0.177865
1118.047613	0.175990
1118.206468	0.183346
1118.365305	0.177049
1118.524124	0.183044
1118.682924	0.179626
1118.841707	0.176915
1119.000471	0.178243
1119.159216	0.175030
1119.317944	0.174387
1119.476653	0.175784
1119.635344	0.177714
1119.794017	0.180419
1119.952672	0.179369
1120.111308	0.180638
1120.269927	0.179187
1120.428527	0.180475
1120.587108	0.180414
1120.745672	0.177639
1120.904217	0.177501
1121.062744	0.171295
1121.221253	0.172770
1121.379744	0.174808
1121.538216	0.176418
1121.696671	0.178108
1121.855107	0.175424
1122.013524	0.174807
1122.171924	0.178301
1122.330305	0.177629
1122.488668	0.180398
1122.647013	0.181199
1122.805340	0.177200
1122.963648	0.177445
1123.121938	0.177919
1123.280210	0.180782
1123.438464	0.185148
1123.596700	0.181625
1123.754917	0.178498
1123.913116	0.180055
1124.071297	0.177127
1124.229459	0.184664
1124.387604	0.182044
1124.545730	0.181287
1124.703838	0.186574
1124.861928	0.183702
1125.019999	0.194184
1125.178052	0.196923
1125.336088	0.198332
1125.494104	0.194853
1125.652103	0.190178
1125.810083	0.191740
1125.968045	0.186633
1126.125989	0.180638
1126.283915	0.184349
1126.441823	0.176503
1126.599712	0.174697
1126.757583	0.166581
1126.915436	0.168761
1127.073270	0.168677
1127.231087	0.166372
1127.388885	0.172052
1127.546665	0.169801
1127.704426	0.164636
1127.862170	0.170244
1128.019895	0.174385
1128.177602	0.181877
1128.335291	0.181933
1128.492961	0.182732
1128.650614	0.189503
1128.808248	0.187822
1128.965864	0.192211
1129.123461	0.192684
1129.281041	0.192322
1129.438602	0.189353
1129.596145	0.189703
1129.753670	0.186259
1129.911176	0.180926
1130.068665	0.179933
1130.226135	0.179327
1130.383587	0.176896
1130.541020	0.170246
1130.698436	0.165428
1130.855833	0.167808
1131.013212	0.168409
1131.170573	0.168734
1131.327915	0.173405
1131.485239	0.168912
1131.642545	0.173018
1131.799833	0.172049
1131.957103	0.182267
1132.114354	0.185796
1132.271588	0.189290
1132.428803	0.189339
1132.585999	0.195887
1132.743178	0.196706
1132.900338	0.198207
1133.057480	0.192523
1133.214604	0.189410
1133.371710	0.187523
1133.528797	0.183729
1133.685866	0.182023
1133.842917	0.187414
1133.999950	0.187310
1134.156964	0.189909
1134.313960	0.190443
1134.470938	0.191304
1134.627898	0.192680
1134.784840	0.192286
1134.941763	0.199425
1135.098668	0.195388
1135.255555	0.191253
1135.412424	0.186078
1135.569274	0.182667
1135.726107	0.184195
1135.882921	0.189409
1136.039716	0.190865
1136.196494	0.193882
1136.353253	0.189022
1136.509995	0.189475
1136.666717	0.183928
1136.823422	0.186939
1136.980109	0.186576
1137.136777	0.181489
1137.293427	0.175157
1137.450059	0.174265
1137.606672	0.170766
1137.763267	0.169781
1137.919844	0.171212
1138.076403	0.166376
1138.232944	0.167502
1138.389466	0.163964
1138.545971	0.169313
1138.702457	0.166860
1138.858924	0.169732
1139.015374	0.172528
1139.171805	0.170985
1139.328218	0.171356
1139.484613	0.186108
1139.640990	0.188645
1139.797348	0.192719
1139.953688	0.190218
1140.110010	0.199045
1140.266314	0.193888
1140.422600	0.193306
1140.578867	0.198406
1140.735116	0.195919
1140.891347	0.191211
1141.047559	0.186097
1141.203754	0.182775
1141.359930	0.186817
1141.516088	0.186332
1141.672228	0.189740
1141.828349	0.190506
1141.984452	0.184522
1142.140537	0.180438
1142.296604	0.173347
1142.452653	0.173760
1142.608683	0.177549
1142.764695	0.168879
1142.920689	0.163799
1143.076665	0.163620
1143.232622	0.159659
1143.388562	0.160932
1143.544483	0.164044
1143.700385	0.169642
1143.856270	0.166102
1144.012136	0.163938
1144.167985	0.167378
1144.323814	0.171508
1144.479626	0.174468
1144.635420	0.173610
1144.791195	0.176548
1144.946952	0.178599
1145.102691	0.174024
1145.258411	0.178034
1145.414113	0.176835
1145.569798	0.179186
1145.725463	0.181149
1145.881111	0.182207
1146.036741	0.188181
1146.192352	0.188380
1146.347945	0.189194
1146.503519	0.190633
1146.659076	0.193478
1146.814614	0.191672
1146.970134	0.189967
1147.125636	0.179023
1147.281120	0.175991
1147.436585	0.167782
1147.592032	0.168717
1147.747461	0.166330
1147.902872	0.168890
1148.058265	0.164565
1148.213639	0.173398
1148.368995	0.177891
1148.524333	0.181389
1148.679653	0.183817
1148.834954	0.189808
1148.990237	0.188063
1149.145502	0.192099
1149.300749	0.191309
1149.455977	0.195913
1149.611188	0.193950
1149.766380	0.179462
1149.921553	0.182518
1150.076709	0.182236
1150.231846	0.179256
1150.386966	0.184853
1150.542066	0.188506
1150.697149	0.187536
1150.852214	0.176441
1151.007260	0.166065
1151.162288	0.174569
1151.317298	0.167476
1151.472289	0.163205
1151.627263	0.161416
1151.782218	0.152056
1151.937155	0.152149
1152.092073	0.142855
1152.246974	0.153862
1152.401856	0.162719
1152.556720	0.161949
1152.711566	0.170153
1152.866393	0.179538
1153.021203	0.183810
1153.175994	0.192048
1153.330767	0.189427
1153.485521	0.197691
1153.640258	0.193536
1153.794976	0.196253
1153.949676	0.192100
1154.104358	0.181848
1154.259021	0.179056
1154.413667	0.178874
1154.568294	0.169427
1154.722903	0.159578
1154.877493	0.161235
1155.032066	0.160075
1155.186620	0.163236
1155.341156	0.166872
1155.495674	0.180646
1155.650173	0.177605
1155.804654	0.173995
1155.959118	0.182517
1156.113562	0.190154
1156.267989	0.192632
1156.422397	0.187370
1156.576788	0.178365
1156.731160	0.177429
1156.885513	0.175772
1157.039849	0.171609
1157.194166	0.172091
1157.348465	0.163209
1157.502746	0.167525
1157.657009	0.169147
1157.811253	0.169530
1157.965479	0.168714
1158.119687	0.167377
1158.273877	0.163879
1158.428048	0.172059
1158.582201	0.175366
1158.736337	0.182416
1158.890453	0.161749
1159.044552	0.160416
1159.198632	0.163392
1159.352694	0.166579
1159.506738	0.159841
1159.660764	0.160824
1159.814771	0.148060
1159.968761	0.146388
1160.122732	0.142399
1160.276685	0.154540
1160.430619	0.149041
1160.584535	0.150691
1160.738434	0.139838
1160.892313	0.153017
1161.046175	0.158105
1161.200019	0.163856
1161.353844	0.160418
1161.507651	0.156351
1161.661440	0.163853
1161.815210	0.171169
1161.968962	0.165019
1162.122697	0.176576
1162.276412	0.170824
1162.430110	0.164116
1162.583789	0.169984
1162.737451	0.178944
1162.891094	0.185843
1163.044718	0.178812
1163.198325	0.176192
1163.351913	0.175906
1163.505483	0.173731
1163.659035	0.179303
1163.812569	0.182773
1163.966084	0.190436
1164.119581	0.186263
1164.273060	0.192511
1164.426521	0.195084
1164.579964	0.186691
1164.733388	0.196797
1164.886794	0.193003
1165.040182	0.191273
1165.193551	0.193285
1165.346903	0.185060
1165.500236	0.183173
1165.653551	0.180523
1165.806848	0.178756
1165.960126	0.185563
1166.113386	0.190339
1166.266628	0.197880
1166.419852	0.192162
1166.573058	0.180198
1166.726245	0.169271
1166.879414	0.165948
1167.032565	0.164222
1167.185698	0.161068
1167.338812	0.157761
1167.491909	0.150410
1167.644987	0.151685
1167.798046	0.148763
1167.951088	0.154305
1168.104111	0.158212
1168.257117	0.160456
1168.410103	0.163324
1168.563072	0.167379
1168.716023	0.162478
1168.868955	0.163272
1169.021869	0.162333
1169.174765	0.175235
1169.327642	0.181687
1169.480501	0.184719
1169.633343	0.187887
1169.786165	0.186710
1169.938970	0.192830
1170.091757	0.197630
1170.244525	0.195359
1170.397275	0.185527
1170.550007	0.186724
1170.702720	0.184582
1170.855415	0.188389
1171.008092	0.180486
1171.160751	0.170356
1171.313392	0.156070
1171.466014	0.212699
1171.618619	0.110416
1171.771205	0.110416
1171.923772	0.110416
