sample name	sample
index	199
start time	 02-18-2021  12:22:09 PM
880	0.453153
Peak Time (s)	91.035
Peak Height 	0.4532
calc peak height	90,93
Baseline Time (s)	10.036
Baseline Value 	-0.002252
subtract baseline	10,4
Abs	0.322717
Peak Time (s)	91.035
Peak Height 	0.3227
calc peak height	90,93
Baseline Time (s)	9.535
Baseline Value 	0.001883
subtract baseline	10,3
PK_550	0.148716
Peak Time (s)	91.535
Peak Height 	0.1487
calc peak height	90,93
Baseline Time (s)	9.035
Baseline Value 	4.6438E-4
subtract baseline	10,2
PK_880	0.309810
Peak Time (s)	92.035
Peak Height 	0.3098
calc peak height	90,93
Baseline Time (s)	10.036
Baseline Value 	0.001389
subtract baseline	10,1


Time (s)	A880-A510	A880-A775	A880-A975	A880	I510	I775	I975	I880	
0.035000	-0.000425	-0.000089	-0.002032	0.002114	6682.612705	43274.607557	3907.813186	22845.060620
0.535500	-0.003487	-0.000287	-0.003121	0.006400	6619.311139	42860.220571	3895.199108	22649.182190
1.035500	-0.003114	-0.000329	-0.004316	0.003751	6645.211198	43100.578694	3898.593594	22769.990892
1.536000	-0.000194	0.000847	0.000044	0.001974	6685.830480	43374.633080	3913.057516	22851.465989
2.036500	-0.001871	0.000360	-0.003529	0.001276	6677.329360	43394.272985	3906.258765	22883.566681
2.537000	-0.002284	0.000229	-0.002234	0.005491	6637.399524	42991.369029	3899.394878	22690.557068
3.037000	0.000422	0.000274	0.002147	-0.000983	6717.028804	43597.267565	3925.140790	22987.794581
3.537500	-0.001164	-0.000213	0.000309	0.000807	6687.547028	43384.563840	3916.463501	22905.152179
4.035000	-0.000496	0.000436	-0.000527	0.001266	6689.372571	43402.326718	3913.384715	22884.044721
4.537500	-0.001251	-0.000832	-0.001834	0.001013	6684.999627	43307.840925	3910.885207	22895.667577
5.035000	-0.001811	-0.001022	-0.004221	-0.000192	6690.611834	43402.272335	3908.088847	22951.223307
5.535500	0.001043	0.000353	-0.000983	0.000613	6708.483711	43455.387145	3913.851226	22914.077341
6.036000	-0.000971	-0.000781	0.003046	-0.000163	6697.679219	43422.090330	3925.327938	22949.894917
6.536000	0.001802	0.000474	0.000279	0.000609	6715.168082	43467.085306	3916.863360	22914.290102
7.036500	-0.001533	0.000475	0.003163	0.000635	6685.827021	43464.695433	3923.693353	22913.063262
7.537000	-0.000440	0.001045	-0.000264	0.001191	6690.510547	43466.046157	3914.186377	22887.481165
8.037500	-0.001589	-0.000367	-0.001021	-0.000492	6695.153163	43491.357209	3916.389344	22965.074084
8.540500	-0.000935	0.000028	0.002723	0.000038	6696.232639	43478.740401	3924.070077	22940.592694
9.035000	0.000635	0.000000	-0.003484	-0.000245	6712.422899	43502.557687	3909.956644	22953.658245
9.535000	0.001007	0.000461	0.000000	0.000629	6708.036614	43463.980585	3916.151106	22913.351613
10.035500	0.000000	0.000353	-0.004317	0.000000	6704.730645	43512.636507	3907.409575	22942.365075
10.535500	-0.001899	-0.000272	0.000460	-0.000680	6694.096415	43517.810995	3920.372042	22973.778517
11.036500	0.000380	-0.000111	-0.001783	-0.000024	6708.258112	43471.538793	3913.465482	22943.464008
11.536500	-0.001571	-0.000180	0.003413	0.000012	6690.923206	43461.769076	3925.790902	22941.811408
12.036500	-0.001879	0.000286	0.002537	-0.000158	6689.723470	43521.132991	3924.093814	22949.639713
12.537500	-0.000985	0.000887	0.001091	-0.000143	6697.379310	43575.973528	3920.595563	22948.953785
13.034500	-0.001098	-0.000012	-0.003919	-0.001074	6704.523278	43578.948482	3910.889114	22991.992033
13.535000	-0.001808	-0.000659	0.002494	-0.000338	6691.909597	43449.794460	3924.424697	22957.991266
14.035000	-0.001615	0.000392	-0.006685	0.002643	6667.707657	43270.090752	3895.647423	22820.749274
14.535500	-0.002641	-0.000517	-0.003576	0.001328	6670.207873	43307.832814	3906.026155	22881.194432
15.035000	0.000536	0.001304	0.003420	0.000286	6706.913758	43574.835886	3925.146643	22929.157540
15.536000	-0.000678	0.000429	0.002093	-0.000101	6699.695578	43529.270019	3922.895151	22947.034578
16.036500	0.000112	0.000797	-0.000646	-0.000055	6706.190566	43559.342909	3916.242167	22944.888778
16.536500	-0.001094	0.000236	0.004704	0.001565	6681.566629	43355.780112	3925.158813	22870.263224
17.037000	0.000295	0.000314	-0.000417	-0.000606	6712.612578	43565.652897	3918.098912	22970.336597
17.537000	-0.000255	0.000578	0.001102	0.000034	6702.201180	43530.493263	3920.199388	22940.778410
18.035000	-0.000519	0.000894	0.000189	0.000981	6691.643878	43471.563751	3915.761678	22897.122668
18.535000	-0.001576	0.000380	-0.000095	0.000914	6683.036975	43429.911169	3915.248312	22900.249850
19.035000	-0.001237	0.000235	0.003066	0.001194	6683.550971	43390.358089	3922.122855	22887.362493
19.535500	-0.003543	-0.000719	0.001082	0.000241	6671.813055	43390.183002	3919.656707	22931.248448
20.036000	-0.000323	0.001195	0.004124	0.001712	6686.996816	43431.502568	3923.417244	22863.531599
20.536000	-0.002144	0.000678	0.001073	0.001105	6676.448605	43439.817832	3917.573359	22891.426355
21.039500	-0.001859	-0.000551	0.008664	0.000442	6684.679559	43387.077823	3937.438255	22921.972574
21.536500	-0.001871	-0.000490	-0.001060	0.000600	6683.199776	43378.108337	3913.701036	22914.699410
22.037000	-0.001431	0.000360	-0.001352	0.000937	6684.101431	43425.871375	3912.208515	22899.179368
22.537000	-0.002865	-0.000025	-0.003185	0.000732	6673.423424	43409.041683	3908.353612	22908.597523
23.035000	-0.001759	0.000038	-0.004978	0.001071	6680.090601	43383.400233	3903.330101	22893.021084
23.535500	0.001201	0.000684	0.003557	0.001530	6701.854629	43400.801841	3922.493863	22871.866042
24.035000	-0.001202	0.000041	-0.000484	0.000967	6685.830282	43393.423114	3914.196758	22897.811514
24.538500	-0.000469	0.000907	0.005090	0.001412	6688.331733	43432.632209	3926.455681	22877.317311
25.038500	-0.001640	0.000031	0.000564	0.001541	6677.039431	43338.989678	3915.324122	22871.383062
25.536500	-0.000701	0.000448	-0.001277	0.001361	6686.756295	43394.600069	3911.381687	22879.670037
26.036500	-0.001992	-0.000082	0.002668	0.000723	6681.087268	43404.693885	3922.297919	22909.047318
26.536500	0.000140	-0.000021	-0.000125	0.000852	6698.514025	43398.266874	3915.323743	22903.094395
27.037000	-0.001094	-0.000084	0.000114	0.000817	6688.062704	43395.652109	3915.973563	22904.677898
27.540500	0.001192	0.000015	-0.000496	-0.002439	6736.593365	43709.527496	3922.293856	23055.251713
28.035000	0.001668	0.000270	0.004844	-0.000700	6725.479033	43570.415669	3930.951694	22974.698562
28.534500	-0.000535	-0.000085	0.001024	-0.000973	6708.562864	43562.756349	3922.422340	22987.333085
29.035500	0.000761	0.000198	0.004878	-0.000788	6718.294105	43571.936884	3931.247788	22978.783389
29.536000	0.000735	-0.000018	0.001454	-0.000667	6717.004051	43540.348784	3922.717831	22973.168989
30.036000	0.002256	0.001210	-0.002442	0.000011	6724.397037	43591.831546	3911.819261	22941.872593
30.536500	-0.000846	0.000312	0.005000	0.000272	6694.972179	43483.403179	3928.982921	22929.794648
31.036500	-0.002853	0.000136	-0.003398	0.001989	6662.653518	43307.076839	3904.886776	22850.789837
31.537000	-0.001272	0.001084	0.004376	0.001910	6677.032415	43402.675481	3923.545797	22854.416085
32.034500	0.001620	0.000126	0.001887	-0.000760	6725.575627	43562.429064	3923.979463	22977.448622
32.537500	0.001413	0.001033	-0.000745	0.000032	6716.819362	43573.265470	3915.800530	22940.908540
33.035000	0.000664	0.000547	0.004088	-0.000702	6716.682500	43596.478466	3929.133180	22974.792352
33.537000	0.001426	0.000895	0.005338	0.000321	6714.395284	43533.252994	3929.678340	22927.539958
34.035500	-0.000647	0.001071	0.002680	0.000807	6692.039491	43504.315475	3922.123836	22905.139425
34.535500	-0.000577	0.000891	0.000803	0.002059	6681.774540	43370.855221	3914.661151	22847.590761
35.036000	0.000072	-0.000058	0.001377	0.001493	6692.330853	43335.140755	3917.373060	22873.565385
35.536000	-0.001566	0.001110	0.002802	0.002073	6673.066942	43389.945330	3919.389239	22846.948780
36.036500	-0.002563	0.000001	0.004256	0.001456	6669.770904	43344.046117	3924.346788	22875.276009
36.537000	0.000086	0.000717	-0.001953	0.001926	6688.687276	43366.954735	3908.444449	22853.679290
37.037000	-0.001479	0.000095	-0.002892	0.001310	6680.443921	43366.440791	3907.680881	22882.022673
37.540500	0.000628	-0.000220	0.005915	0.001304	6698.824557	43337.685665	3928.701768	22882.272011
38.035000	-0.001001	-0.000590	-0.000916	0.000946	6687.750443	43336.591236	3913.220031	22898.748193
38.535500	-0.001029	-0.000097	0.002329	0.001312	6684.328660	43348.364105	3920.077824	22881.919313
39.035500	-0.001978	0.000090	0.005375	0.001266	6676.484525	43370.028548	3927.490556	22884.013650
39.536000	-0.003549	-0.000339	-0.002083	0.001015	6665.053633	43353.444238	3910.290833	22895.564729
40.036000	0.000033	0.000065	0.001227	0.001092	6695.486275	43383.938988	3917.972460	22892.026435
40.536500	-0.000794	0.000832	0.002837	0.001976	6680.603016	43373.060486	3919.705697	22851.398877
41.037000	0.000068	0.000603	0.000398	0.001464	6692.551017	43399.414789	3915.111119	22874.907852
41.539500	0.000973	0.000132	0.002180	0.001487	6700.241937	43353.411938	3919.303360	22873.878253
42.035000	-0.001324	-0.000125	-0.000253	0.001031	6684.216454	43371.991069	3914.595101	22894.863518
42.535000	-0.002894	0.000244	0.001058	0.001179	6669.307602	43392.544494	3917.362766	22888.050200
43.035000	0.000614	0.000793	0.003774	0.002215	6690.766730	43347.130185	3921.372283	22840.392675
43.535500	0.001926	0.000626	0.003612	0.001860	6705.303882	43364.628290	3921.834507	22856.700440
44.036000	0.000831	0.000653	0.006378	-0.002490	6733.856384	43774.141303	3939.009288	23057.590844
44.536000	0.000713	0.000109	0.001683	-0.001507	6724.179937	43630.835891	3925.282786	23012.023204
45.036000	0.000090	0.000698	0.004043	-0.000116	6706.530398	43555.684234	3927.612430	22947.696234
45.537000	0.001613	-0.000140	-0.000196	-0.000146	6720.133039	43480.226972	3917.529791	22949.098832
46.037000	0.000613	0.000438	-0.000528	-0.000429	6713.838402	43560.696068	3917.412720	22962.149612
46.534500	-0.000744	0.000566	-0.003479	-0.000123	6699.309204	43544.136623	3909.681293	22948.056119
47.034000	0.000762	0.000279	0.000213	-0.000652	6717.106178	43566.694866	3919.713134	22972.467450
47.535000	-0.003522	-0.000164	-0.006592	0.001709	6659.296659	43305.222553	3898.049105	22863.665067
48.035000	0.000209	-0.000002	-0.005561	0.001720	6691.546445	43319.267961	3900.435691	22863.137634
48.535500	0.000159	-0.000078	0.005955	-0.000937	6714.314403	43560.017639	3934.210863	22985.644840
49.036000	0.000800	0.000923	0.004006	-0.000323	6714.560309	43596.200437	3928.023993	22957.293606
49.536000	0.000509	0.000688	0.004202	-0.000164	6710.621417	43559.362483	3928.111680	22949.947105
50.036500	0.000258	0.001200	-0.003852	-0.001446	6719.651800	43727.500673	3911.929773	23009.226395
50.537000	-0.001210	0.000121	0.004234	-0.001434	6706.686528	43625.121513	3931.249596	23008.635464
51.037000	0.001142	0.000296	0.003270	-0.001206	6725.299927	43620.153002	3928.376669	22998.088712
51.534500	0.002786	0.000319	0.003595	-0.003207	6757.458851	43810.208542	3933.993281	23090.911396
52.034500	-0.034681	-0.020666	-0.004917	0.241194	4920.489859	25120.562399	3469.748345	14401.837696
52.535000	-0.026630	-0.013714	-0.007725	0.081986	5865.040920	35461.167825	3724.419302	19494.579643
53.035000	-0.017876	-0.016809	-0.006079	-0.071954	7207.934632	48969.100846	4087.235044	26553.774286
53.535500	-0.001828	-0.053806	0.019404	-0.230226	9330.677071	63798.376257	4721.887728	36953.987483
54.038500	0.024196	-0.010892	0.042402	-0.141309	8465.044796	57680.986918	4462.826778	30649.399253
54.535500	0.043824	0.009766	0.059876	-0.054503	7668.925766	49946.476959	4229.612250	25622.170959
55.036500	0.070638	0.026251	0.083312	-0.004024	7416.538104	46406.997168	4148.273798	23128.909517
55.536500	0.103909	0.046322	0.115375	0.073946	6975.785166	40981.082163	4021.282689	19804.644528
56.037000	0.130997	0.063845	0.141258	0.143549	6596.624656	36681.531695	3912.202129	17301.467905
56.538000	0.160242	0.079722	0.167223	0.174384	6583.152651	35539.092635	3900.719323	16314.479403
57.035500	0.181583	0.093003	0.190229	0.214760	6425.638407	33567.076185	3860.789505	15123.629612
57.535500	0.203196	0.106408	0.208056	0.241523	6384.187038	32639.178143	3840.861571	14393.142168
58.038500	0.215889	0.116413	0.228730	0.281582	6172.023044	30653.034236	3799.013400	13380.503825
58.535500	0.233912	0.125134	0.238747	0.300875	6162.505494	29986.529772	3779.643467	12925.165146
59.035500	0.244198	0.132440	0.252357	0.320553	6092.911812	29226.681295	3767.190545	12481.077682
59.536500	0.254325	0.136382	0.254612	0.345756	5984.320977	27970.618506	3721.647214	11940.950709
60.036500	0.258813	0.142492	0.265194	0.361750	5903.937724	27407.229382	3711.250733	11614.065100
60.537000	0.266362	0.145159	0.275170	0.375377	5862.330817	26797.379749	3704.312844	11344.923434
61.037500	0.267710	0.148203	0.279680	0.404889	5676.943635	25386.470162	3658.324795	10790.172343
61.535000	0.277464	0.152442	0.294400	0.401485	5762.060564	25785.123441	3691.395821	10852.256202
62.035500	0.277508	0.151363	0.289647	0.384727	5874.559903	26625.133541	3714.073241	11165.060469
62.535000	0.280609	0.153447	0.284929	0.401123	5785.180656	25857.108742	3674.600243	10858.872858
63.035000	0.277115	0.154163	0.288312	0.409646	5706.716427	25448.738042	3665.279365	10704.225100
63.536000	0.282168	0.156550	0.294562	0.412856	5718.612895	25406.150626	3670.780197	10646.767705
64.036000	0.284566	0.157149	0.288680	0.417438	5704.521753	25201.009119	3652.009528	10565.475439
64.542000	0.285911	0.156760	0.295413	0.422409	5681.287379	24927.872483	3655.138802	10478.238459
65.037000	0.285444	0.157618	0.289252	0.428745	5638.218575	24652.227467	3633.216016	10368.495425
65.537000	0.285826	0.158260	0.300195	0.436517	5592.178149	24298.559314	3638.717072	10236.032040
66.035000	0.285123	0.158135	0.293905	0.440465	5563.612900	24099.174776	3621.095853	10169.665303
66.538000	0.287287	0.157514	0.293543	0.443706	5557.036783	23911.748356	3614.989526	10115.610986
67.035000	0.290361	0.158378	0.296230	0.447351	5553.556698	23777.857691	3613.375529	10055.309674
67.535500	0.292892	0.159851	0.299444	0.451414	5544.254322	23653.942756	3611.947784	9988.695973
68.036000	0.288377	0.158199	0.303013	0.455279	5493.906467	23392.387954	3611.451907	9925.893879
68.535500	0.291818	0.157634	0.297964	0.451453	5537.512242	23546.608617	3609.401919	9988.061844
69.036500	0.293705	0.158481	0.306498	0.453607	5535.891596	23484.625726	3620.160680	9952.987111
69.536500	0.291976	0.159168	0.303470	0.454809	5518.236177	23460.317055	3613.009788	9933.508278
70.037000	0.286441	0.156692	0.296917	0.457596	5468.726882	23213.050111	3597.461778	9888.512352
70.540000	0.291603	0.157214	0.299635	0.454246	5519.377414	23394.661884	3607.524654	9942.631192
71.034500	0.291640	0.156814	0.299588	0.454486	5518.156037	23364.549570	3607.045905	9938.740414
71.535000	0.292843	0.157786	0.307049	0.456239	5514.848190	23327.809432	3616.634181	9910.376487
72.035000	0.290896	0.155212	0.304349	0.459484	5483.899131	23056.411797	3606.651538	9858.210001
72.535500	0.292851	0.155321	0.307945	0.454496	5525.379355	23293.955057	3621.110502	9938.581230
73.035500	0.293057	0.156212	0.309697	0.455341	5521.527076	23296.074335	3622.653802	9924.890600
73.536000	0.290958	0.152891	0.307579	0.452863	5523.809352	23256.616068	3623.268075	9965.081026
74.036500	0.293435	0.155673	0.299167	0.460875	5490.710185	23013.324702	3595.768355	9835.951719
74.539500	0.296569	0.155078	0.307266	0.454273	5549.213893	23293.003524	3620.335211	9942.185246
75.037000	0.295013	0.154678	0.310551	0.453864	5542.255207	23293.438110	3626.638532	9948.821905
75.537500	0.296202	0.154018	0.305333	0.453668	5550.667292	23271.709981	3618.082806	9952.009700
76.035000	0.296940	0.154529	0.309598	0.457801	5530.098208	23102.779892	3618.304829	9885.215156
76.535000	0.297020	0.154258	0.307405	0.452992	5559.764969	23314.671154	3622.751852	9962.995296
77.035500	0.295091	0.154099	0.304532	0.452142	5553.186827	23347.061590	3619.309649	9976.817615
77.535500	0.297360	0.155208	0.311003	0.452268	5566.263910	23393.298983	3630.156837	9974.765605
78.038000	0.292733	0.153177	0.307652	0.457748	5505.156969	23042.520713	3615.103430	9886.066737
78.536500	0.296000	0.153134	0.309683	0.451545	5562.372204	23329.814012	3629.131137	9986.556971
79.039500	0.300671	0.154298	0.310711	0.452652	5584.229268	23332.486895	3628.994838	9968.522551
79.537000	0.296456	0.152759	0.309729	0.451406	5566.006591	23318.701224	3629.447819	9988.826523
80.037000	0.295078	0.151987	0.308280	0.456285	5528.013319	23055.187564	3618.641273	9909.640533
80.534500	0.297725	0.152443	0.312543	0.451072	5575.827015	23319.556608	3634.883807	9994.271659
81.035000	0.300533	0.151261	0.311961	0.450344	5597.623010	23298.264273	3635.137004	10006.177750
81.535500	0.300027	0.152362	0.311778	0.450410	5594.086353	23346.852684	3634.705593	10005.100324
82.035500	0.296330	0.150670	0.312900	0.455154	5542.421614	23046.576546	3628.456736	9927.925527
82.535000	0.300427	0.149975	0.315050	0.448865	5606.133863	23307.343861	3643.098734	10030.423008
83.036000	0.300646	0.151523	0.313879	0.449876	5601.216882	23332.515038	3639.284851	10013.837844
83.536500	0.301639	0.149058	0.313248	0.448880	5613.572602	23263.625450	3639.922122	10030.173822
84.037000	0.298334	0.149051	0.311039	0.454869	5556.333997	22984.918907	3625.753245	9932.532975
84.537000	0.302409	0.150673	0.325286	0.449821	5612.508442	23295.206445	3659.530069	10014.744385
85.037500	0.302388	0.149536	0.315044	0.450243	5609.751846	23222.233558	3640.677136	10007.826531
85.534500	0.302264	0.149691	0.311945	0.450575	5606.922619	23213.969783	3634.708674	10002.400528
86.034500	0.302383	0.149298	0.314780	0.449634	5613.511681	23239.593124	3641.279015	10017.801087
86.535500	0.303581	0.149112	0.320046	0.450192	5617.496127	23204.820817	3649.551333	10008.661118
87.038500	0.302754	0.147815	0.316227	0.449496	5616.685087	23176.812070	3644.054495	10020.068685
87.536000	0.304392	0.149295	0.315917	0.450858	5618.401636	23182.323987	3641.127775	9997.778790
88.042000	0.304103	0.148396	0.313948	0.450007	5621.915960	23180.069595	3639.177558	10011.703141
88.536500	0.304485	0.147770	0.314650	0.450087	5623.801930	23147.192826	3640.262697	10010.393584
89.037000	0.309445	0.148839	0.319955	0.452196	5641.672769	23098.861297	3645.860374	9975.946810
89.534500	0.304222	0.148545	0.313333	0.451500	5613.346113	23117.510869	3635.510784	9987.289794
90.034500	0.306993	0.148053	0.319128	0.451610	5629.953233	23089.554491	3645.435348	9985.489680
90.535000	0.305812	0.146909	0.313274	0.451025	5626.229861	23063.629409	3636.234089	9995.052072
91.035000	0.308635	0.148693	0.322717	0.453153	5630.579337	23047.697837	3649.039757	9960.370280
91.535500	0.308712	0.148716	0.317201	0.453143	5631.124559	23049.245437	3639.382075	9960.539003
92.035500	0.309810	0.146980	0.319230	0.452287	5643.392381	23008.521976	3644.426690	9974.462543
92.536000	0.308667	0.147117	0.316064	0.453013	5631.655749	22981.297879	3637.625771	9962.640284
93.036500	0.306102	0.145992	0.322463	0.451880	5622.699776	22981.677148	3650.841970	9981.093696
93.536000	0.305147	0.145342	0.319090	0.452420	5613.378871	22926.831741	3643.948922	9972.302094
94.034000	0.304152	0.144745	0.318700	0.458131	5571.951762	22638.536682	3633.322552	9879.909652
94.537500	0.311039	0.147341	0.321157	0.454830	5635.138057	22907.881543	3643.346819	9933.163523
95.035000	0.309198	0.145370	0.326259	0.453369	5632.759040	22884.475534	3654.935490	9956.867059
95.535000	0.309740	0.144238	0.324338	0.453286	5636.676636	22836.331926	3651.670830	9958.206279
96.035500	0.309754	0.144783	0.318411	0.453857	5633.179012	22835.159384	3640.245948	9948.935973
96.535000	0.310228	0.146098	0.322404	0.455562	5625.474060	22817.294662	3644.249681	9921.326377
