sample name	sample
index	1147
start time	 04-22-2021  03:21:59 PM


Wavelength (nm)	Absorbance
494.344910	-1.114573
494.563924	-1.114573
494.782919	-1.114573
495.001897	NaN
495.220856	-0.466017
495.439797	-0.489366
495.658719	-0.520714
495.877624	-0.405863
496.096510	-0.498146
496.315378	-0.474361
496.534227	-0.339609
496.753059	-0.305348
496.971872	-0.221533
497.190667	0.120646
497.409444	0.129487
497.628203	0.130710
497.846943	0.127717
498.065665	0.125636
498.284369	0.125395
498.503055	0.125094
498.721723	0.124774
498.940372	0.123959
499.159003	0.122512
499.377616	0.121046
499.596210	0.120452
499.814787	0.120722
500.033345	0.120448
500.251885	0.120410
500.470406	0.120237
500.688910	0.121142
500.907395	0.121050
501.125862	0.120754
501.344311	0.120939
501.562742	0.120338
501.781154	0.121886
501.999548	0.122702
502.217924	0.122539
502.436282	0.123257
502.654621	0.123096
502.872942	0.123688
503.091245	0.123776
503.309530	0.123378
503.527797	0.123765
503.746045	0.121641
503.964275	0.122667
504.182487	0.122920
504.400681	0.122257
504.618856	0.122519
504.837013	0.120994
505.055152	0.121731
505.273273	0.121581
505.491376	0.120427
505.709460	0.120060
505.927526	0.119752
506.145574	0.119934
506.363604	0.120706
506.581615	0.120814
506.799608	0.121838
507.017583	0.121103
507.235540	0.122647
507.453478	0.123777
507.671399	0.124920
507.889301	0.124928
508.107185	0.124499
508.325050	0.124596
508.542898	0.123686
508.760727	0.122570
508.978538	0.122870
509.196330	0.123399
509.414105	0.123642
509.631861	0.122805
509.849599	0.122877
510.067319	0.123536
510.285021	0.123650
510.502704	0.124648
510.720369	0.125849
510.938016	0.126404
511.155645	0.125971
511.373255	0.126124
511.590848	0.126922
511.808422	0.127118
512.025977	0.126939
512.243515	0.126425
512.461034	0.126318
512.678536	0.126086
512.896018	0.125563
513.113483	0.125583
513.330930	0.125072
513.548358	0.124703
513.765768	0.125177
513.983160	0.126202
514.200533	0.126183
514.417889	0.125808
514.635226	0.126202
514.852545	0.127072
515.069845	0.127245
515.287128	0.128402
515.504392	0.129273
515.721638	0.129160
515.938866	0.128030
516.156075	0.127979
516.373267	0.128248
516.590440	0.127659
516.807594	0.126845
517.024731	0.126562
517.241850	0.125401
517.458950	0.124833
517.676032	0.123746
517.893095	0.123707
518.110141	0.124601
518.327168	0.125555
518.544177	0.126100
518.761168	0.127185
518.978141	0.127285
519.195095	0.126893
519.412031	0.127011
519.628949	0.127863
519.845849	0.127623
520.062731	0.126463
520.279594	0.126212
520.496439	0.126743
520.713266	0.125660
520.930074	0.125307
521.146865	0.126285
521.363637	0.126192
521.580391	0.126311
521.797127	0.127234
522.013844	0.128028
522.230543	0.127944
522.447224	0.128295
522.663887	0.129092
522.880532	0.130074
523.097158	0.130258
523.313766	0.129874
523.530356	0.130152
523.746928	0.130423
523.963481	0.130977
524.180017	0.130500
524.396534	0.129327
524.613032	0.129531
524.829513	0.128657
525.045975	0.128132
525.262420	0.129445
525.478845	0.129128
525.695253	0.129464
525.911643	0.128396
526.128014	0.128870
526.344367	0.129538
526.560702	0.129429
526.777018	0.129711
526.993316	0.130233
527.209597	0.129867
527.425858	0.129966
527.642102	0.129706
527.858328	0.130474
528.074535	0.130668
528.290724	0.130904
528.506894	0.131414
528.723047	0.131660
528.939181	0.132182
529.155297	0.132497
529.371395	0.133406
529.587475	0.132948
529.803536	0.133180
530.019579	0.133769
530.235604	0.134051
530.451611	0.134303
530.667600	0.134451
530.883570	0.133893
531.099522	0.134148
531.315456	0.133713
531.531372	0.134008
531.747269	0.134122
531.963148	0.133342
532.179009	0.133621
532.394852	0.133096
532.610676	0.133522
532.826482	0.133794
533.042271	0.133837
533.258040	0.133106
533.473792	0.133556
533.689525	0.133356
533.905240	0.134267
534.120937	0.134029
534.336616	0.134189
534.552277	0.133854
534.767919	0.134246
534.983543	0.133882
535.199149	0.134009
535.414736	0.133862
535.630306	0.133986
535.845857	0.133473
536.061390	0.133718
536.276904	0.133673
536.492401	0.133828
536.707879	0.133169
536.923339	0.133643
537.138781	0.134125
537.354204	0.134285
537.569610	0.134549
537.784997	0.135024
538.000366	0.134813
538.215716	0.135024
538.431049	0.135638
538.646363	0.136247
538.861659	0.136247
539.076937	0.136894
539.292196	0.136963
539.507438	0.137112
539.722661	0.137043
539.937866	0.137301
540.153052	0.137369
540.368221	0.137003
540.583371	0.137091
540.798503	0.137021
541.013617	0.137478
541.228712	0.137885
541.443789	0.137798
541.658848	0.138254
541.873889	0.138448
542.088912	0.138722
542.303916	0.139256
542.518902	0.139786
542.733870	0.139751
542.948820	0.139257
543.163752	0.139521
543.378665	0.139661
543.593560	0.139640
543.808437	0.139549
544.023295	0.139759
544.238136	0.139918
544.452958	0.139425
544.667762	0.139830
544.882548	0.139819
545.097315	0.139264
545.312064	0.139179
545.526795	0.138874
545.741508	0.139377
545.956203	0.139895
546.170879	0.139883
546.385537	0.140040
546.600177	0.139887
546.814799	0.140161
547.029402	0.140503
547.243988	0.140925
547.458555	0.141530
547.673103	0.141364
547.887634	0.140339
548.102146	0.140189
548.316640	0.140309
548.531116	0.140825
548.745574	0.140845
548.960013	0.140813
549.174435	0.141160
549.388838	0.140870
549.603222	0.141208
549.817589	0.142070
550.031937	0.142690
550.246267	0.142994
550.460579	0.143289
550.674873	0.142956
550.889148	0.143132
551.103405	0.143002
551.317644	0.143003
551.531865	0.143058
551.746068	0.143036
551.960252	0.142690
552.174418	0.142664
552.388566	0.142320
552.602696	0.142998
552.816807	0.142859
553.030900	0.142843
553.244975	0.143076
553.459032	0.143044
553.673070	0.143307
553.887091	0.143364
554.101093	0.143551
554.315077	0.143999
554.529042	0.143752
554.742990	0.144149
554.956919	0.144175
555.170830	0.144512
555.384722	0.144339
555.598597	0.144232
555.812453	0.144397
556.026291	0.144276
556.240111	0.143549
556.453913	0.143722
556.667696	0.143909
556.881461	0.144207
557.095208	0.143833
557.308937	0.143942
557.522647	0.143836
557.736339	0.144037
557.950013	0.144482
558.163669	0.145171
558.377307	0.145040
558.590926	0.145261
558.804527	0.145315
559.018110	0.145850
559.231675	0.145755
559.445221	0.146081
559.658749	0.145650
559.872259	0.145422
560.085751	0.145589
560.299225	0.146161
560.512680	0.146262
560.726117	0.146275
560.939536	0.146087
561.152937	0.146488
561.366319	0.146330
561.579683	0.146829
561.793029	0.147136
562.006357	0.146911
562.219667	0.146490
562.432958	0.146506
562.646231	0.146676
562.859486	0.146748
563.072723	0.146857
563.285941	0.147229
563.499141	0.147251
563.712323	0.147125
563.925487	0.147256
564.138632	0.147304
564.351760	0.147003
564.564869	0.146923
564.777960	0.147045
564.991032	0.146902
565.204087	0.146461
565.417123	0.146008
565.630141	0.145993
565.843140	0.146099
566.056122	0.146372
566.269085	0.146484
566.482030	0.146445
566.694957	0.146594
566.907866	0.147004
567.120756	0.147788
567.333628	0.148325
567.546482	0.148686
567.759318	0.148631
567.972135	0.149012
568.184935	0.149200
568.397716	0.149564
568.610478	0.149509
568.823223	0.149566
569.035949	0.149183
569.248657	0.149232
569.461347	0.149090
569.674019	0.149056
569.886672	0.148733
570.099308	0.148566
570.311925	0.148502
570.524523	0.148514
570.737104	0.148449
570.949666	0.148721
571.162210	0.148655
571.374736	0.148461
571.587244	0.148888
571.799733	0.149234
572.012205	0.149668
572.224658	0.150047
572.437092	0.150275
572.649509	0.150379
572.861907	0.150372
573.074287	0.150257
573.286649	0.150710
573.498993	0.150508
573.711318	0.150719
573.923625	0.150844
574.135914	0.150518
574.348185	0.150319
574.560438	0.150455
574.772672	0.150568
574.984888	0.151270
575.197086	0.151334
575.409266	0.151363
575.621427	0.151193
575.833570	0.151124
576.045695	0.151028
576.257802	0.151247
576.469890	0.151464
576.681961	0.151457
576.894013	0.151420
577.106046	0.151348
577.318062	0.151407
577.530059	0.151585
577.742039	0.151543
577.954000	0.151873
578.165942	0.152159
578.377867	0.152248
578.589773	0.152126
578.801661	0.151796
579.013531	0.151853
579.225382	0.152126
579.437216	0.151921
579.649031	0.151752
579.860828	0.151865
580.072606	0.151833
580.284367	0.151542
580.496109	0.151640
580.707833	0.151832
580.919539	0.151393
581.131227	0.151455
581.342896	0.152097
581.554547	0.152514
581.766180	0.152388
581.977795	0.152028
582.189391	0.152466
582.400969	0.152243
582.612529	0.152012
582.824071	0.152762
583.035595	0.152853
583.247100	0.152483
583.458587	0.152885
583.670056	0.153095
583.881506	0.153661
584.092939	0.153785
584.304353	0.154016
584.515749	0.154690
584.727127	0.154675
584.938486	0.154786
585.149828	0.154671
585.361151	0.154656
585.572456	0.154745
585.783742	0.154390
585.995011	0.154144
586.206261	0.154456
586.417493	0.154109
586.628706	0.154034
586.839902	0.153835
587.051079	0.153869
587.262238	0.153890
587.473379	0.153939
587.684502	0.154118
587.895606	0.154139
588.106692	0.154401
588.317760	0.154585
588.528810	0.154725
588.739841	0.155062
588.950855	0.155324
589.161850	0.155369
589.372827	0.155446
589.583785	0.155827
589.794726	0.155869
590.005648	0.155847
590.216552	0.156286
590.427437	0.156344
590.638305	0.156478
590.849154	0.156331
591.059985	0.155919
591.270798	0.156154
591.481592	0.156017
591.692369	0.156289
591.903127	0.156449
592.113867	0.156272
592.324588	0.156388
592.535292	0.156532
592.745977	0.156729
592.956644	0.157401
593.167293	0.157000
593.377923	0.157146
593.588536	0.157240
593.799130	0.157102
594.009706	0.157121
594.220263	0.157490
594.430803	0.157442
594.641324	0.157486
594.851827	0.157206
595.062312	0.157562
595.272778	0.157733
595.483227	0.157479
595.693657	0.157961
595.904069	0.158020
596.114462	0.157569
596.324838	0.157254
596.535195	0.157621
596.745534	0.157768
596.955855	0.157657
597.166157	0.157946
597.376441	0.157959
597.586707	0.157330
597.796955	0.157344
598.007185	0.157290
598.217396	0.157345
598.427589	0.157251
598.637764	0.156807
598.847921	0.157355
599.058060	0.156969
599.268180	0.157216
599.478282	0.157820
599.688366	0.157913
599.898431	0.158428
600.108479	0.159063
600.318508	0.158989
600.528519	0.159394
600.738511	0.159310
600.948486	0.159207
601.158442	0.159413
601.368380	0.159103
601.578300	0.159135
601.788202	0.159136
601.998085	0.158717
602.207950	0.158989
602.417797	0.159261
602.627626	0.159163
602.837436	0.159477
603.047228	0.159171
603.257002	0.159237
603.466758	0.159199
603.676496	0.158918
603.886215	0.159084
604.095916	0.158936
604.305599	0.159142
604.515264	0.159173
604.724910	0.159356
604.934538	0.159436
605.144148	0.159520
605.353740	0.159526
605.563314	0.160142
605.772869	0.160228
605.982406	0.160567
606.191925	0.160122
606.401425	0.160003
606.610908	0.159644
606.820372	0.159929
607.029818	0.159642
607.239246	0.159813
607.448655	0.159348
607.658047	0.159183
607.867420	0.158972
608.076775	0.159158
608.286111	0.159131
608.495430	0.159374
608.704730	0.159210
608.914012	0.159568
609.123275	0.159350
609.332521	0.159476
609.541748	0.159772
609.750957	0.159678
609.960148	0.159972
610.169321	0.160361
610.378475	0.160570
610.587611	0.160839
610.796729	0.161014
611.005829	0.161379
611.214910	0.161574
611.423974	0.161698
611.633019	0.162044
611.842045	0.161952
612.051054	0.162064
612.260044	0.162022
612.469017	0.162000
612.677970	0.162119
612.886906	0.162072
613.095824	0.162051
613.304723	0.162175
613.513604	0.161913
613.722467	0.161921
613.931311	0.161806
614.140138	0.161831
614.348946	0.162098
614.557736	0.162134
614.766507	0.162459
614.975261	0.162758
615.183996	0.162572
615.392713	0.162695
615.601412	0.162698
615.810092	0.162896
616.018754	0.163051
616.227399	0.162847
616.436024	0.162680
616.644632	0.162420
616.853222	0.162178
617.061793	0.162182
617.270346	0.162193
617.478880	0.162287
617.687397	0.162095
617.895895	0.162020
618.104375	0.161984
618.312837	0.161935
618.521281	0.162110
618.729706	0.162214
618.938113	0.162252
619.146502	0.162580
619.354873	0.162737
619.563226	0.162718
619.771560	0.162714
619.979876	0.163017
620.188174	0.163329
620.396453	0.163456
620.604715	0.163226
620.812958	0.163532
621.021183	0.163385
621.229390	0.163175
621.437578	0.163255
621.645748	0.163756
621.853900	0.163606
622.062034	0.163331
622.270150	0.163068
622.478247	0.163306
622.686326	0.163123
622.894387	0.163605
623.102430	0.163845
623.310454	0.163916
623.518461	0.163837
623.726449	0.163896
623.934418	0.164408
624.142370	0.164556
624.350303	0.164676
624.558218	0.164761
624.766115	0.164385
624.973994	0.164460
625.181855	0.164596
625.389697	0.164447
625.597521	0.164324
625.805327	0.164250
626.013114	0.164514
626.220883	0.164568
626.428634	0.164620
626.636367	0.164740
626.844082	0.164668
627.051778	0.164830
627.259457	0.164771
627.467117	0.164938
627.674758	0.164971
627.882382	0.165043
628.089987	0.165066
628.297574	0.165115
628.505143	0.165151
628.712694	0.164929
628.920226	0.164892
629.127740	0.165003
629.335236	0.165218
629.542714	0.165071
629.750174	0.164888
629.957615	0.165013
630.165038	0.165025
630.372443	0.165005
630.579829	0.165655
630.787198	0.165742
630.994548	0.165649
631.201880	0.165451
631.409194	0.165564
631.616489	0.165534
631.823766	0.165503
632.031025	0.165605
632.238266	0.165479
632.445489	0.165559
632.652693	0.165607
632.859879	0.166060
633.067047	0.165946
633.274197	0.166105
633.481329	0.166547
633.688442	0.166529
633.895537	0.166630
634.102614	0.166755
634.309672	0.166427
634.516713	0.166424
634.723735	0.166200
634.930739	0.166757
635.137724	0.166598
635.344692	0.166607
635.551641	0.166763
635.758572	0.166910
635.965485	0.167346
636.172379	0.167727
636.379256	0.168052
636.586114	0.168397
636.792954	0.168386
636.999775	0.168790
637.206579	0.168608
637.413364	0.168707
637.620131	0.168704
637.826880	0.168655
638.033610	0.168629
638.240323	0.168429
638.447017	0.168253
638.653692	0.168107
638.860350	0.168109
639.066990	0.168421
639.273611	0.168489
639.480214	0.168471
639.686798	0.168539
639.893365	0.168498
640.099913	0.168704
640.306443	0.169080
640.512955	0.169622
640.719449	0.169564
640.925924	0.169402
641.132381	0.169691
641.338820	0.170015
641.545241	0.170163
641.751644	0.170151
641.958028	0.170352
642.164394	0.170157
642.370742	0.169982
642.577071	0.170116
642.783383	0.170497
642.989676	0.170503
643.195951	0.170385
643.402207	0.170333
643.608446	0.170536
643.814666	0.170416
644.020868	0.170292
644.227052	0.170146
644.433218	0.170096
644.639365	0.169940
644.845494	0.169838
645.051605	0.169925
645.257698	0.170271
645.463772	0.170238
645.669828	0.170232
645.875866	0.170348
646.081886	0.170292
646.287888	0.170473
646.493871	0.170698
646.699836	0.171028
646.905783	0.171214
647.111712	0.171005
647.317622	0.171123
647.523514	0.171490
647.729388	0.171707
647.935244	0.172074
648.141082	0.172119
648.346901	0.172235
648.552702	0.172202
648.758485	0.172151
648.964250	0.172282
649.169996	0.172656
649.375724	0.172533
649.581434	0.172672
649.787126	0.172566
649.992800	0.172751
650.198455	0.172880
650.404092	0.172884
650.609711	0.173054
650.815311	0.173116
651.020894	0.173069
651.226458	0.173314
651.432004	0.173373
651.637532	0.173711
651.843041	0.173933
652.048532	0.173885
652.254006	0.174182
652.459460	0.174085
652.664897	0.174352
652.870315	0.174499
653.075716	0.174529
653.281097	0.174711
653.486461	0.174803
653.691807	0.174679
653.897134	0.174774
654.102443	0.174706
654.307734	0.174933
654.513006	0.174860
654.718261	0.174860
654.923497	0.174806
655.128715	0.174891
655.333915	0.174910
655.539096	0.175104
655.744259	0.175187
655.949404	0.175294
656.154531	0.175342
656.359640	0.175298
656.564730	0.175535
656.769802	0.175611
656.974856	0.175669
657.179892	0.175764
657.384909	0.176044
657.589908	0.176188
657.794889	0.176272
657.999852	0.176222
658.204797	0.176581
658.409723	0.176550
658.614631	0.176753
658.819521	0.177052
659.024393	0.177175
659.229246	0.177153
659.434081	0.177075
659.638898	0.177040
659.843697	0.177367
660.048478	0.177383
660.253240	0.177566
660.457984	0.177737
660.662710	0.177559
660.867417	0.177578
661.072107	0.177617
661.276778	0.177583
661.481431	0.177899
661.686066	0.177933
661.890682	0.178109
662.095281	0.177928
662.299861	0.177877
662.504422	0.177989
662.708966	0.178147
662.913491	0.178071
663.117999	0.178361
663.322488	0.178300
663.526958	0.178329
663.731411	0.178197
663.935845	0.178301
664.140261	0.178509
664.344659	0.178591
664.549038	0.178708
664.753400	0.178932
664.957743	0.179083
665.162068	0.179349
665.366375	0.179311
665.570663	0.179741
665.774933	0.179977
665.979185	0.179991
666.183419	0.180166
666.387635	0.180230
666.591832	0.180308
666.796011	0.180506
667.000172	0.180311
667.204315	0.180643
667.408439	0.180515
667.612545	0.180601
667.816634	0.180791
668.020703	0.180905
668.224755	0.181401
668.428788	0.181783
668.632803	0.182018
668.836800	0.182676
669.040779	0.183109
669.244739	0.183471
669.448681	0.183663
669.652605	0.184135
669.856511	0.184393
670.060399	0.184338
670.264268	0.184458
670.468119	0.184533
670.671952	0.184506
670.875767	0.184424
671.079563	0.184414
671.283341	0.184573
671.487101	0.184361
671.690843	0.184400
671.894567	0.184326
672.098272	0.184300
672.301959	0.184296
672.505628	0.184227
672.709278	0.184398
672.912911	0.184607
673.116525	0.184691
673.320121	0.184784
673.523699	0.184922
673.727258	0.185195
673.930799	0.185244
674.134322	0.185341
674.337827	0.185306
674.541314	0.185346
674.744782	0.185220
674.948232	0.185240
675.151664	0.185212
675.355078	0.185194
675.558474	0.185231
675.761851	0.185325
675.965210	0.185449
676.168551	0.185597
676.371873	0.185789
676.575178	0.185861
676.778464	0.186046
676.981732	0.186155
677.184981	0.186194
677.388213	0.186131
677.591426	0.186118
677.794621	0.185990
677.997798	0.186262
678.200956	0.186233
678.404097	0.186180
678.607219	0.186160
678.810323	0.186253
679.013408	0.186536
679.216476	0.186913
679.419525	0.186770
679.622556	0.187340
679.825569	0.187402
680.028563	0.187480
680.231540	0.187614
680.434498	0.187825
680.637438	0.188109
680.840359	0.188100
681.043263	0.188114
681.246148	0.188740
681.449015	0.188523
681.651864	0.188481
681.854694	0.188686
682.057506	0.189048
682.260301	0.189212
682.463076	0.189268
682.665834	0.189339
682.868573	0.189294
683.071295	0.189312
683.273998	0.189527
683.476682	0.189792
683.679349	0.189860
683.881997	0.189866
684.084627	0.189890
684.287239	0.189715
684.489833	0.189901
684.692408	0.189895
684.894965	0.189798
685.097504	0.189703
685.300025	0.189548
685.502527	0.189445
685.705012	0.189359
685.907478	0.189465
686.109925	0.189661
686.312355	0.189731
686.514766	0.189852
686.717159	0.190187
686.919534	0.190394
687.121891	0.190676
687.324230	0.190762
687.526550	0.190950
687.728852	0.190700
687.931136	0.190619
688.133401	0.190726
688.335649	0.190842
688.537878	0.190680
688.740089	0.190745
688.942281	0.190777
689.144456	0.190961
689.346612	0.190973
689.548750	0.191119
689.750870	0.191411
689.952971	0.191399
690.155055	0.191549
690.357120	0.191609
690.559167	0.191469
690.761195	0.191541
690.963206	0.191461
691.165198	0.191507
691.367172	0.191553
691.569128	0.191371
691.771065	0.191263
691.972984	0.191231
692.174885	0.191311
692.376768	0.191436
692.578633	0.191334
692.780479	0.191346
692.982308	0.191372
693.184118	0.191491
693.385909	0.191681
693.587683	0.192093
693.789438	0.192142
693.991175	0.192135
694.192894	0.192267
694.394595	0.192559
694.596277	0.192496
694.797941	0.192809
694.999587	0.192903
695.201215	0.192997
695.402824	0.192974
695.604416	0.193114
695.805989	0.193257
696.007543	0.193193
696.209080	0.193031
696.410598	0.193552
696.612099	0.193429
696.813580	0.193463
697.015044	0.193334
697.216490	0.193151
697.417917	0.193127
697.619326	0.193141
697.820717	0.193271
698.022089	0.193265
698.223444	0.193186
698.424780	0.193257
698.626098	0.193350
698.827397	0.193649
699.028679	0.193933
699.229942	0.194006
699.431187	0.193888
699.632414	0.194029
699.833622	0.194204
700.034813	0.194284
700.235985	0.194282
700.437139	0.194208
700.638274	0.194296
700.839392	0.194318
701.040491	0.194469
701.241572	0.194793
701.442635	0.194658
701.643679	0.194692
701.844706	0.194482
702.045714	0.194564
702.246704	0.194779
702.447675	0.194917
702.648629	0.194689
702.849564	0.194645
703.050481	0.194496
703.251380	0.194674
703.452260	0.194850
703.653122	0.195084
703.853966	0.195114
704.054792	0.195032
704.255600	0.194814
704.456389	0.195001
704.657160	0.194812
704.857913	0.194828
705.058648	0.194711
705.259365	0.194631
705.460063	0.194343
705.660743	0.194351
705.861405	0.194247
706.062048	0.194273
706.262674	0.194167
706.463281	0.194157
706.663870	0.194109
706.864441	0.194026
707.064993	0.193758
707.265527	0.193762
707.466043	0.193853
707.666541	0.193984
707.867021	0.193901
708.067482	0.193854
708.267925	0.193972
708.468350	0.194202
708.668757	0.194464
708.869145	0.194568
709.069516	0.194635
709.269868	0.194294
709.470201	0.194161
709.670517	0.194292
709.870814	0.194358
710.071093	0.194533
710.271354	0.194483
710.471597	0.194135
710.671821	0.194155
710.872028	0.194251
711.072216	0.194808
711.272385	0.194837
711.472537	0.194830
711.672670	0.194951
711.872785	0.194815
712.072882	0.194834
712.272961	0.194975
712.473021	0.195190
712.673063	0.195254
712.873087	0.194900
713.073093	0.194990
713.273081	0.194601
713.473050	0.194582
713.673001	0.194418
713.872934	0.194287
714.072849	0.194518
714.272745	0.194376
714.472623	0.194119
714.672483	0.194103
714.872325	0.194249
715.072148	0.194522
715.271954	0.194578
715.471741	0.194730
715.671509	0.194627
715.871260	0.194145
716.070992	0.194011
716.270707	0.194270
716.470403	0.194436
716.670080	0.194239
716.869740	0.194102
717.069381	0.193955
717.269004	0.193857
717.468609	0.193947
717.668195	0.194172
717.867764	0.194113
718.067314	0.193746
718.266846	0.193480
718.466360	0.193318
718.665855	0.193228
718.865332	0.192963
719.064791	0.192718
719.264232	0.192588
719.463655	0.192504
719.663059	0.192493
719.862445	0.192660
720.061813	0.192701
720.261163	0.192661
720.460494	0.192941
720.659807	0.193049
720.859102	0.193168
721.058379	0.193165
721.257638	0.193099
721.456878	0.193041
721.656100	0.192892
721.855304	0.192780
722.054490	0.192835
722.253657	0.192633
722.452806	0.192618
722.651937	0.192687
722.851050	0.192450
723.050145	0.192611
723.249221	0.192639
723.448279	0.192878
723.647319	0.192828
723.846340	0.192826
724.045344	0.192749
724.244329	0.192970
724.443296	0.192919
724.642245	0.193050
724.841175	0.192893
725.040088	0.192948
725.238982	0.192870
725.437857	0.193051
725.636715	0.192959
725.835554	0.193037
726.034376	0.192603
726.233179	0.192332
726.431963	0.192446
726.630730	0.192235
726.829478	0.192096
727.028208	0.191896
727.226920	0.191635
727.425614	0.191493
727.624289	0.191197
727.822946	0.191299
728.021585	0.191319
728.220206	0.191021
728.418808	0.190935
728.617392	0.190651
728.815958	0.190465
729.014506	0.190462
729.213036	0.190371
729.411547	0.190433
729.610040	0.190162
729.808515	0.189864
730.006972	0.189812
730.205410	0.189896
730.403831	0.189934
730.602233	0.189874
730.800616	0.189686
730.998982	0.189655
731.197329	0.189548
731.395658	0.189534
731.593969	0.189641
731.792262	0.189501
731.990536	0.189277
732.188793	0.189149
732.387031	0.189019
732.585250	0.188927
732.783452	0.188820
732.981635	0.188743
733.179800	0.188638
733.377947	0.188644
733.576076	0.188568
733.774186	0.188555
733.972278	0.188382
734.170352	0.188184
734.368408	0.188064
734.566446	0.187948
734.764465	0.187708
734.962466	0.187526
735.160449	0.187263
735.358413	0.187280
735.556360	0.187141
735.754288	0.187145
735.952198	0.186998
736.150090	0.187025
736.347963	0.186767
736.545818	0.186902
736.743655	0.186935
736.941474	0.187093
737.139275	0.186858
737.337057	0.186579
737.534821	0.186266
737.732567	0.186379
737.930295	0.186024
738.128005	0.186180
738.325696	0.186231
738.523369	0.186031
738.721024	0.185681
738.918660	0.185657
739.116279	0.185611
739.313879	0.185620
739.511461	0.185569
739.709024	0.185470
739.906570	0.185263
740.104097	0.184814
740.301606	0.184782
740.499097	0.184742
740.696569	0.184621
740.894024	0.184801
741.091460	0.184749
741.288878	0.184547
741.486277	0.184544
741.683659	0.184499
741.881022	0.184319
742.078367	0.184090
742.275694	0.183963
742.473002	0.183684
742.670293	0.183294
742.867565	0.183287
743.064819	0.182993
743.262054	0.182942
743.459272	0.182738
743.656471	0.182697
743.853652	0.182785
744.050815	0.182802
744.247959	0.182966
744.445085	0.182930
744.642194	0.182723
744.839283	0.182894
745.036355	0.182800
745.233408	0.182607
745.430444	0.182598
745.627461	0.182333
745.824459	0.182414
746.021440	0.182078
746.218402	0.182334
746.415346	0.182621
746.612272	0.182265
746.809180	0.182335
747.006069	0.182374
747.202940	0.182488
747.399793	0.182493
747.596628	0.182314
747.793444	0.182219
747.990243	0.181797
748.187023	0.181560
748.383784	0.181623
748.580528	0.181445
748.777253	0.181449
748.973960	0.181046
749.170649	0.180956
749.367320	0.180679
749.563973	0.180649
749.760607	0.180562
749.957223	0.180297
750.153821	0.180182
750.350400	0.180106
750.546962	0.179786
750.743505	0.179791
750.940030	0.179514
751.136536	0.179543
751.333025	0.179507
751.529495	0.179459
751.725947	0.179302
751.922381	0.179543
752.118796	0.179343
752.315194	0.179359
752.511573	0.179238
752.707934	0.179111
752.904276	0.178780
753.100601	0.178483
753.296907	0.178259
753.493195	0.178025
753.689465	0.177757
753.885716	0.177566
754.081949	0.177709
754.278164	0.177570
754.474361	0.177717
754.670540	0.177773
754.866700	0.177885
755.062843	0.177753
755.258967	0.177744
755.455072	0.177518
755.651160	0.177580
755.847229	0.177385
756.043280	0.177659
756.239313	0.177606
756.435328	0.177470
756.631324	0.177477
756.827302	0.177677
757.023262	0.177891
757.219204	0.178138
757.415127	0.178052
757.611033	0.177820
757.806920	0.177498
758.002788	0.177433
758.198639	0.177560
758.394471	0.177345
758.590286	0.177087
758.786081	0.176907
758.981859	0.176461
759.177619	0.176262
759.373360	0.176318
759.569083	0.176317
759.764788	0.176166
759.960474	0.175945
760.156143	0.175732
760.351793	0.175602
760.547425	0.175471
760.743038	0.175311
760.938634	0.175098
761.134211	0.174916
761.329770	0.174611
761.525311	0.174488
761.720833	0.174283
761.916338	0.174138
762.111824	0.173922
762.307292	0.173625
762.502741	0.173695
762.698173	0.173718
762.893586	0.173466
763.088981	0.173393
763.284358	0.173210
763.479716	0.172997
763.675057	0.172725
763.870379	0.172682
764.065683	0.172760
764.260968	0.172439
764.456236	0.172172
764.651485	0.172450
764.846716	0.172250
765.041929	0.172074
765.237123	0.172357
765.432299	0.172575
765.627457	0.172597
765.822597	0.172685
766.017719	0.172947
766.212822	0.172960
766.407907	0.172691
766.602974	0.172884
766.798023	0.172968
766.993054	0.172842
767.188066	0.172854
767.383060	0.172679
767.578036	0.172443
767.772993	0.172135
767.967933	0.172188
768.162854	0.172273
768.357757	0.172120
768.552642	0.172056
768.747508	0.171940
768.942356	0.171815
769.137186	0.171888
769.331998	0.171858
769.526792	0.172048
769.721567	0.172125
769.916324	0.172082
770.111063	0.172055
770.305784	0.171982
770.500486	0.171873
770.695171	0.171870
770.889837	0.171654
771.084484	0.171773
771.279114	0.171597
771.473725	0.171610
771.668318	0.171562
771.862893	0.171458
772.057450	0.171606
772.251988	0.171420
772.446509	0.171484
772.641011	0.171690
772.835494	0.171643
773.029960	0.171572
773.224407	0.171655
773.418836	0.171395
773.613247	0.171529
773.807640	0.171594
774.002014	0.171824
774.196370	0.171725
774.390708	0.171522
774.585028	0.171412
774.779330	0.171445
774.973613	0.171024
775.167878	0.170967
775.362125	0.170787
775.556354	0.170475
775.750564	0.170453
775.944756	0.170170
776.138930	0.170443
776.333086	0.170250
776.527223	0.170215
776.721343	0.170467
776.915444	0.170579
777.109526	0.170545
777.303591	0.170508
777.497637	0.170287
777.691666	0.170469
777.885676	0.170398
778.079667	0.170508
778.273641	0.170643
778.467596	0.170524
778.661533	0.170359
778.855452	0.170357
779.049352	0.170446
779.243235	0.170342
779.437099	0.170692
779.630945	0.170713
779.824773	0.170651
780.018582	0.170536
780.212373	0.170529
780.406146	0.170921
780.599901	0.170877
780.793638	0.170965
780.987356	0.171276
781.181056	0.171117
781.374738	0.171186
781.568402	0.171239
781.762047	0.171438
781.955674	0.171621
782.149283	0.171590
782.342874	0.171960
782.536447	0.172061
782.730001	0.171926
782.923537	0.171948
783.117055	0.171914
783.310555	0.171883
783.504036	0.171781
783.697499	0.171641
783.890944	0.171474
784.084371	0.171379
784.277780	0.171611
784.471170	0.171676
784.664542	0.171808
784.857896	0.171936
785.051231	0.172229
785.244549	0.172240
785.437848	0.172429
785.631129	0.172674
785.824392	0.172479
786.017636	0.172237
786.210863	0.172268
786.404071	0.172306
786.597260	0.172119
786.790432	0.172083
786.983585	0.172181
787.176721	0.172120
787.369838	0.171900
787.562936	0.172057
787.756017	0.172106
787.949079	0.172391
788.142123	0.172432
788.335149	0.172471
788.528156	0.172518
788.721146	0.172646
788.914117	0.172549
789.107070	0.173021
789.300005	0.173253
789.492921	0.173364
789.685819	0.173373
789.878699	0.173217
790.071561	0.173417
790.264405	0.173244
790.457230	0.173029
790.650037	0.173562
790.842826	0.173347
791.035597	0.173268
791.228349	0.173472
791.421084	0.173336
791.613800	0.173513
791.806497	0.173705
791.999177	0.174029
792.191838	0.174362
792.384481	0.174152
792.577106	0.174282
792.769713	0.174481
792.962301	0.174634
793.154871	0.174891
793.347423	0.175233
793.539957	0.175359
793.732473	0.175339
793.924970	0.175385
794.117449	0.175474
794.309910	0.175765
794.502353	0.175627
794.694777	0.175519
794.887183	0.175608
795.079571	0.175740
795.271941	0.175639
795.464293	0.175855
795.656626	0.176228
795.848941	0.176584
796.041238	0.176696
796.233516	0.177087
796.425777	0.177302
796.618019	0.177364
796.810243	0.177066
797.002449	0.177234
797.194636	0.177423
797.386805	0.177492
797.578956	0.177358
797.771089	0.177251
797.963204	0.177426
798.155300	0.177291
798.347378	0.177607
798.539438	0.177998
798.731480	0.178044
798.923503	0.178323
799.115509	0.177898
799.307496	0.178052
799.499465	0.178202
799.691415	0.178210
799.883348	0.178400
800.075262	0.178530
800.267158	0.178645
800.459035	0.178938
800.650895	0.178922
800.842736	0.179502
801.034559	0.179847
801.226364	0.180047
801.418150	0.180149
801.609919	0.180182
801.801669	0.179997
801.993401	0.179930
802.185114	0.179763
802.376810	0.179617
802.568487	0.179780
802.760146	0.179722
802.951787	0.179827
803.143409	0.180040
803.335014	0.179928
803.526600	0.180435
803.718168	0.180753
803.909717	0.181048
804.101249	0.181474
804.292762	0.181579
804.484257	0.181556
804.675734	0.181715
804.867192	0.181943
805.058632	0.182631
805.250054	0.182761
805.441458	0.182878
805.632844	0.183282
805.824211	0.183235
806.015561	0.183444
806.206891	0.183882
806.398204	0.184164
806.589499	0.184218
806.780775	0.184344
806.972033	0.184676
807.163273	0.185077
807.354495	0.185215
807.545698	0.185491
807.736883	0.185504
807.928050	0.185752
808.119199	0.185939
808.310329	0.186036
808.501441	0.186153
808.692535	0.186100
808.883611	0.186168
809.074669	0.186482
809.265708	0.186852
809.456729	0.187100
809.647732	0.187056
809.838717	0.187052
810.029683	0.187381
810.220632	0.187503
810.411562	0.187739
810.602474	0.187848
810.793367	0.187682
810.984242	0.187799
811.175100	0.188044
811.365938	0.188224
811.556759	0.188667
811.747562	0.189005
811.938346	0.189433
812.129112	0.189622
812.319860	0.189781
812.510589	0.190033
812.701300	0.190263
812.891994	0.190555
813.082668	0.190942
813.273325	0.191001
813.463964	0.191185
813.654584	0.191129
813.845186	0.191171
814.035769	0.191638
814.226335	0.191856
814.416882	0.191968
814.607411	0.192021
814.797922	0.192274
814.988415	0.192592
815.178889	0.192753
815.369345	0.192942
815.559783	0.193437
815.750203	0.193403
815.940605	0.193772
816.130988	0.194143
816.321353	0.194322
816.511700	0.194411
816.702028	0.194458
816.892339	0.194495
817.082631	0.194845
817.272905	0.194873
817.463161	0.194863
817.653398	0.194919
817.843617	0.195051
818.033819	0.194929
818.224001	0.194921
818.414166	0.195149
818.604312	0.195378
818.794440	0.195524
818.984550	0.195575
819.174642	0.195832
819.364716	0.196218
819.554771	0.196443
819.744808	0.196991
819.934827	0.197320
820.124827	0.197423
820.314810	0.197528
820.504774	0.197452
820.694720	0.197684
820.884647	0.197835
821.074557	0.197764
821.264448	0.197721
821.454321	0.197754
821.644176	0.197852
821.834012	0.198304
822.023831	0.198690
822.213631	0.199175
822.403413	0.199702
822.593176	0.200132
822.782922	0.200207
822.972649	0.200427
823.162358	0.200611
823.352049	0.200769
823.541721	0.200810
823.731376	0.201003
823.921012	0.201392
824.110629	0.201501
824.300229	0.201794
824.489811	0.202159
824.679374	0.202531
824.868919	0.202958
825.058445	0.203344
825.247954	0.203413
825.437444	0.203525
825.626916	0.203597
825.816370	0.203661
826.005806	0.203822
826.195223	0.204127
826.384622	0.204380
826.574003	0.204428
826.763366	0.204596
826.952711	0.205011
827.142037	0.205208
827.331345	0.205664
827.520635	0.205822
827.709906	0.206110
827.899160	0.206514
828.088395	0.206753
828.277612	0.207164
828.466810	0.207621
828.655991	0.207601
828.845153	0.208123
829.034297	0.208222
829.223423	0.208453
829.412531	0.208380
829.601620	0.208762
829.790691	0.208863
829.979744	0.209325
830.168779	0.209448
830.357795	0.209820
830.546793	0.209771
830.735773	0.210068
830.924735	0.210468
831.113679	0.210648
831.302604	0.210656
831.491511	0.210825
831.680400	0.211054
831.869271	0.211185
832.058123	0.211575
832.246957	0.211823
832.435773	0.212020
832.624571	0.212330
832.813351	0.212811
833.002112	0.213170
833.190855	0.213759
833.379580	0.213884
833.568287	0.214587
833.756975	0.214986
833.945645	0.215450
834.134297	0.215636
834.322931	0.215922
834.511547	0.216204
834.700144	0.216533
834.888723	0.216779
835.077284	0.217420
835.265826	0.217714
835.454351	0.217896
835.642857	0.218364
835.831345	0.218833
836.019815	0.219213
836.208266	0.219692
836.396699	0.219847
836.585114	0.219793
836.773511	0.219625
836.961890	0.219933
837.150250	0.220122
837.338592	0.220318
837.526916	0.220517
837.715222	0.220869
837.903510	0.221208
838.091779	0.221846
838.280030	0.222495
838.468263	0.223292
838.656477	0.223377
838.844674	0.223751
839.032852	0.223934
839.221012	0.224144
839.409153	0.223999
839.597277	0.224291
839.785382	0.224426
839.973469	0.224851
840.161538	0.224929
840.349589	0.225298
840.537621	0.225837
840.725635	0.226323
840.913631	0.226832
841.101609	0.227679
841.289568	0.228033
841.477509	0.228057
841.665432	0.227991
841.853337	0.228300
842.041224	0.228555
842.229092	0.228449
842.416942	0.228570
842.604774	0.228500
842.792588	0.228511
842.980383	0.228471
843.168160	0.228983
843.355919	0.229670
843.543660	0.229580
843.731382	0.229784
843.919087	0.230335
844.106773	0.230721
844.294441	0.231456
844.482090	0.231679
844.669722	0.232247
844.857335	0.232302
845.044930	0.232124
845.232507	0.232769
845.420065	0.233029
845.607605	0.233444
845.795127	0.233799
845.982631	0.234054
846.170117	0.234424
846.357584	0.234785
846.545033	0.235591
846.732464	0.236353
846.919877	0.236572
847.107272	0.236942
847.294648	0.237090
847.482006	0.237447
847.669346	0.237680
847.856667	0.238144
848.043971	0.238353
848.231256	0.238529
848.418523	0.238493
848.605771	0.238616
848.793002	0.239318
848.980214	0.239577
849.167408	0.239911
849.354584	0.240126
849.541742	0.240459
849.728881	0.241146
849.916002	0.241135
850.103105	0.241669
850.290190	0.242243
850.477256	0.242341
850.664304	0.242701
850.851334	0.242750
851.038346	0.243067
851.225340	0.243519
851.412315	0.243430
851.599272	0.243671
851.786211	0.243871
851.973132	0.244176
852.160034	0.244337
852.346918	0.244464
852.533784	0.244909
852.720632	0.245105
852.907462	0.245146
853.094273	0.245349
853.281066	0.245494
853.467841	0.246070
853.654598	0.246299
853.841336	0.246452
854.028056	0.246970
854.214758	0.247626
854.401442	0.247930
854.588107	0.248081
854.774755	0.248573
854.961384	0.249324
855.147995	0.249156
855.334587	0.249689
855.521162	0.250434
855.707718	0.250844
855.894256	0.250839
856.080775	0.251378
856.267277	0.251622
856.453760	0.251784
856.640225	0.252007
856.826672	0.252430
857.013101	0.252649
857.199511	0.252825
857.385903	0.253190
857.572277	0.253514
857.758633	0.253935
857.944970	0.254393
858.131290	0.254872
858.317591	0.255147
858.503873	0.255611
858.690138	0.256046
858.876384	0.256043
859.062612	0.256246
859.248822	0.256423
859.435014	0.256512
859.621188	0.256882
859.807343	0.256995
859.993480	0.257444
860.179599	0.257386
860.365699	0.257060
860.551781	0.257492
860.737846	0.257910
860.923891	0.258258
861.109919	0.258214
861.295929	0.258171
861.481920	0.258390
861.667893	0.258322
861.853848	0.258822
862.039784	0.259040
862.225702	0.258799
862.411603	0.258688
862.597484	0.259041
862.783348	0.259407
862.969193	0.259789
863.155021	0.260489
863.340830	0.261020
863.526620	0.261151
863.712393	0.261713
863.898147	0.262403
864.083883	0.262664
864.269601	0.262463
864.455301	0.262870
864.640982	0.263399
864.826645	0.263033
865.012290	0.263202
865.197917	0.263943
865.383526	0.264432
865.569116	0.264754
865.754688	0.264931
865.940242	0.265562
866.125777	0.265989
866.311295	0.266245
866.496794	0.266377
866.682275	0.266594
866.867737	0.266693
867.053182	0.266660
867.238608	0.266960
867.424016	0.267060
867.609406	0.267087
867.794778	0.267094
867.980131	0.267085
868.165466	0.268081
868.350783	0.268278
868.536082	0.268644
868.721362	0.268947
868.906625	0.269058
869.091869	0.269304
869.277094	0.269639
869.462302	0.269924
869.647491	0.270183
869.832662	0.269800
870.017815	0.270227
870.202950	0.269674
870.388066	0.269874
870.573165	0.270010
870.758245	0.270748
870.943306	0.270581
871.128350	0.270780
871.313375	0.270865
871.498382	0.271658
871.683371	0.271710
871.868342	0.272468
872.053294	0.272449
872.238229	0.272726
872.423144	0.272663
872.608042	0.273293
872.792922	0.273141
872.977783	0.273564
873.162626	0.273182
873.347451	0.273086
873.532258	0.273144
873.717046	0.273582
873.901816	0.273434
874.086568	0.273789
874.271302	0.273622
874.456017	0.274098
874.640715	0.274093
874.825394	0.274335
875.010055	0.274582
875.194697	0.274736
875.379322	0.275093
875.563928	0.275290
875.748516	0.274949
875.933085	0.275439
876.117637	0.275571
876.302170	0.275710
876.486685	0.276062
876.671182	0.276192
876.855661	0.276454
877.040121	0.276149
877.224563	0.276623
877.408987	0.277240
877.593393	0.277130
877.777780	0.277599
877.962150	0.278001
878.146501	0.278461
878.330833	0.278954
878.515148	0.279306
878.699444	0.279891
878.883722	0.280232
879.067982	0.280592
879.252224	0.281326
879.436447	0.281381
879.620653	0.281398
879.804840	0.281298
879.989008	0.281094
880.173159	0.281297
880.357291	0.281505
880.541405	0.281515
880.725501	0.281268
880.909579	0.280870
881.093638	0.280968
881.277680	0.281507
881.461703	0.280999
881.645707	0.281177
881.829694	0.281089
882.013662	0.281014
882.197612	0.281117
882.381544	0.281418
882.565458	0.281712
882.749353	0.282045
882.933230	0.281672
883.117089	0.282332
883.300930	0.282764
883.484753	0.282970
883.668557	0.283177
883.852343	0.283172
884.036111	0.283166
884.219861	0.282907
884.403592	0.282476
884.587305	0.282446
884.771000	0.282444
884.954677	0.282506
885.138335	0.282172
885.321976	0.282697
885.505598	0.282682
885.689201	0.282741
885.872787	0.283337
886.056354	0.283366
886.239904	0.283622
886.423434	0.283186
886.606947	0.283185
886.790442	0.283274
886.973918	0.282459
887.157376	0.282894
887.340816	0.282814
887.524237	0.282190
887.707641	0.282539
887.891026	0.282782
888.074393	0.283502
888.257741	0.283439
888.441072	0.283879
888.624384	0.284325
888.807678	0.284258
888.990954	0.284335
889.174211	0.284855
889.357451	0.284717
889.540672	0.284400
889.723875	0.284339
889.907059	0.284083
890.090226	0.284229
890.273374	0.283778
890.456504	0.283628
890.639616	0.283992
890.822709	0.284103
891.005785	0.283999
891.188842	0.283591
891.371881	0.283263
891.554901	0.283496
891.737904	0.282635
891.920888	0.282671
892.103854	0.282774
892.286802	0.282435
892.469731	0.281841
892.652643	0.281901
892.835536	0.282367
893.018410	0.282596
893.201267	0.282712
893.384106	0.283001
893.566926	0.282759
893.749728	0.282073
893.932511	0.282140
894.115277	0.282512
894.298024	0.282971
894.480753	0.282756
894.663464	0.282445
894.846157	0.282404
895.028831	0.282607
895.211487	0.282701
895.394125	0.282903
895.576745	0.283020
895.759346	0.282874
895.941930	0.282243
896.124495	0.282424
896.307041	0.282833
896.489570	0.282492
896.672080	0.282109
896.854573	0.282369
897.037046	0.282160
897.219502	0.281542
897.401940	0.281502
897.584359	0.281547
897.766760	0.281459
897.949143	0.280964
898.131507	0.280936
898.313854	0.281006
898.496182	0.280508
898.678492	0.280895
898.860783	0.281227
899.043057	0.280974
899.225312	0.281188
899.407549	0.280726
899.589768	0.280886
899.771968	0.280530
899.954151	0.280822
900.136315	0.280509
900.318461	0.280056
900.500588	0.279625
900.682698	0.279834
900.864789	0.279361
901.046862	0.279076
901.228917	0.279079
901.410953	0.278967
901.592971	0.278199
901.774972	0.278265
901.956953	0.277942
902.138917	0.277791
902.320862	0.277195
902.502790	0.276567
902.684699	0.276745
902.866589	0.275987
903.048462	0.276059
903.230316	0.276442
903.412152	0.276244
903.593970	0.275874
903.775770	0.275562
903.957551	0.275547
904.139314	0.275476
904.321059	0.275184
904.502786	0.275470
904.684494	0.275014
904.866185	0.274194
905.047857	0.274011
905.229510	0.273957
905.411146	0.273833
905.592763	0.273347
905.774363	0.273238
905.955943	0.272958
906.137506	0.272618
906.319051	0.272987
906.500577	0.272752
906.682085	0.272749
906.863575	0.272812
907.045046	0.272361
907.226500	0.272780
907.407935	0.272297
907.589352	0.271729
907.770750	0.270875
907.952131	0.270577
908.133493	0.270288
908.314837	0.270333
908.496163	0.269803
908.677470	0.269749
908.858760	0.268728
909.040031	0.268438
909.221284	0.268407
909.402518	0.268518
909.583735	0.267838
909.764933	0.267588
909.946113	0.267002
910.127275	0.266814
910.308418	0.266106
910.489544	0.265697
910.670651	0.265527
910.851740	0.265850
911.032810	0.265576
911.213863	0.265046
911.394897	0.264301
911.575913	0.263195
911.756911	0.263034
911.937890	0.262867
912.118851	0.262876
912.299794	0.262274
912.480719	0.261479
912.661626	0.260981
912.842514	0.260424
913.023384	0.260668
913.204236	0.260437
913.385070	0.260153
913.565886	0.259502
913.746683	0.258938
913.927462	0.258722
914.108223	0.258558
914.288965	0.258081
914.469690	0.258284
914.650396	0.257529
914.831084	0.257607
915.011754	0.256950
915.192405	0.256396
915.373038	0.256338
915.553653	0.256244
915.734250	0.255054
915.914829	0.254668
916.095389	0.253678
916.275931	0.253182
916.456455	0.252855
916.636961	0.252477
916.817448	0.252569
916.997917	0.251560
917.178368	0.250743
917.358801	0.250427
917.539216	0.250121
917.719612	0.250005
917.899990	0.249929
918.080350	0.249678
918.260692	0.249671
918.441015	0.249513
918.621320	0.250043
918.801607	0.250600
918.981876	0.250569
919.162127	0.250272
919.342359	0.249221
919.522573	0.248768
919.702769	0.248334
919.882947	0.247489
920.063106	0.246418
920.243247	0.245337
920.423370	0.244692
920.603475	0.245193
920.783562	0.244588
920.963630	0.245015
921.143680	0.244597
921.323712	0.243497
921.503725	0.242794
921.683721	0.242843
921.863698	0.242229
922.043657	0.241054
922.223598	0.239524
922.403520	0.239043
922.583424	0.238398
922.763311	0.237828
922.943178	0.237238
923.123028	0.236835
923.302859	0.236108
923.482673	0.235443
923.662467	0.235428
923.842244	0.234747
924.022003	0.234136
924.201743	0.233889
924.381465	0.233564
924.561169	0.233803
924.740854	0.233724
924.920522	0.233544
925.100171	0.233284
925.279802	0.232394
925.459414	0.232462
925.639009	0.231489
925.818585	0.230544
925.998143	0.229789
926.177683	0.229197
926.357205	0.228780
926.536708	0.228333
926.716193	0.227856
926.895660	0.227396
927.075109	0.227037
927.254539	0.227026
927.433951	0.226094
927.613345	0.225620
927.792721	0.224749
927.972079	0.223339
928.151418	0.222848
928.330739	0.222652
928.510042	0.222510
928.689327	0.221280
928.868593	0.220978
929.047841	0.221067
929.227071	0.220540
929.406283	0.220342
929.585476	0.220839
929.764652	0.220006
929.943809	0.219386
930.122948	0.219055
930.302068	0.218362
930.481171	0.217768
930.660255	0.216092
930.839321	0.215375
931.018369	0.214021
931.197398	0.213437
931.376409	0.212144
931.555402	0.211440
931.734377	0.210705
931.913334	0.209938
932.092272	0.208526
932.271192	0.207917
932.450094	0.207126
932.628978	0.206812
932.807844	0.205866
932.986691	0.206121
933.165520	0.204993
933.344331	0.203623
933.523123	0.203418
933.701898	0.203523
933.880654	0.203505
934.059392	0.202832
934.238111	0.201938
934.416813	0.201059
934.595496	0.198887
934.774161	0.198964
934.952808	0.198856
935.131437	0.197527
935.310047	0.197217
935.488639	0.197126
935.667213	0.196063
935.845769	0.196380
936.024306	0.195621
936.202825	0.196111
936.381326	0.194502
936.559809	0.193777
936.738274	0.193710
936.916720	0.192611
937.095148	0.191492
937.273558	0.190765
937.451950	0.188912
937.630323	0.188572
937.808678	0.188646
937.987015	0.188230
938.165334	0.187054
938.343635	0.184709
938.521917	0.183819
938.700181	0.183384
938.878427	0.184117
939.056655	0.183931
939.234864	0.183288
939.413055	0.182203
939.591228	0.181082
939.769383	0.180092
939.947519	0.180966
940.125638	0.180123
940.303738	0.179948
940.481820	0.178605
940.659883	0.178046
940.837929	0.177398
941.015956	0.174979
941.193965	0.174663
941.371955	0.173939
941.549928	0.172983
941.727882	0.172529
941.905818	0.171193
942.083736	0.169446
942.261636	0.168799
942.439517	0.166623
942.617380	0.166893
942.795225	0.166117
942.973052	0.165479
943.150860	0.164910
943.328651	0.164751
943.506423	0.163765
943.684176	0.162738
943.861912	0.162424
944.039629	0.162242
944.217328	0.161320
944.395009	0.161228
944.572672	0.160892
944.750317	0.159838
944.927943	0.159872
945.105551	0.159005
945.283141	0.159498
945.460712	0.158220
945.638265	0.156866
945.815801	0.156027
945.993317	0.154750
946.170816	0.153860
946.348297	0.153831
946.525759	0.151571
946.703203	0.152696
946.880629	0.151895
947.058036	0.151453
947.235425	0.150837
947.412797	0.150428
947.590149	0.150188
947.767484	0.149857
947.944800	0.148553
948.122099	0.148062
948.299379	0.145519
948.476640	0.144359
948.653884	0.143964
948.831109	0.143632
949.008316	0.143238
949.185505	0.142959
949.362676	0.144182
949.539828	0.145512
949.716962	0.144718
949.894078	0.145449
950.071176	0.146140
950.248256	0.144712
950.425317	0.146256
950.602360	0.145599
950.779385	0.144163
950.956391	0.141810
951.133380	0.139952
951.310350	0.139347
951.487302	0.140110
951.664235	0.139212
951.841151	0.140194
952.018048	0.137065
952.194927	0.138093
952.371788	0.139401
952.548631	0.137729
952.725455	0.137312
952.902261	0.137489
953.079049	0.134126
953.255819	0.134255
953.432570	0.133519
953.609303	0.134173
953.786018	0.131180
953.962715	0.129478
954.139394	0.130442
954.316054	0.131148
954.492696	0.130473
954.669320	0.129954
954.845926	0.129174
955.022513	0.127948
955.199083	0.127914
955.375634	0.130099
955.552166	0.128543
955.728681	0.126968
955.905177	0.126459
956.081655	0.125627
956.258115	0.123603
956.434557	0.124345
956.610980	0.124777
956.787385	0.122997
956.963772	0.121742
957.140141	0.123007
957.316492	0.125098
957.492824	0.125903
957.669138	0.127044
957.845434	0.128422
958.021712	0.126035
958.197971	0.125041
958.374212	0.126567
958.550435	0.125908
958.726640	0.123129
958.902826	0.123427
959.078995	0.118255
959.255145	0.118532
959.431277	0.118361
959.607390	0.118803
959.783486	0.116260
959.959563	0.117857
960.135622	0.118982
960.311662	0.122158
960.487685	0.120701
960.663689	0.125806
960.839675	0.124084
961.015643	0.127733
961.191593	0.126707
961.367524	0.129283
961.543437	0.128288
961.719332	0.129978
961.895209	0.126867
962.071067	0.125764
962.246907	0.122467
962.422730	0.121657
962.598533	0.117254
962.774319	0.118817
962.950086	0.121350
963.125835	0.119798
963.301566	0.117713
963.477279	0.119235
963.652973	0.119768
963.828650	0.121487
964.004308	0.121189
964.179947	0.123946
964.355569	0.124065
964.531172	0.119232
964.706757	0.120390
964.882324	0.118524
965.057873	0.118731
965.233403	0.117835
965.408916	0.116975
965.584410	0.117458
965.759885	0.113440
965.935343	0.113014
966.110782	0.114243
966.286203	0.113768
966.461606	0.115844
966.636991	0.116088
966.812357	0.117840
966.987705	0.118059
967.163035	0.117567
967.338347	0.121307
967.513641	0.120938
967.688916	0.123165
967.864173	0.124639
968.039412	0.124440
968.214632	0.123621
968.389835	0.120085
968.565019	0.120859
968.740185	0.120763
968.915333	0.120538
969.090462	0.119112
969.265573	0.115751
969.440667	0.115697
969.615741	0.116799
969.790798	0.115444
969.965836	0.117691
970.140856	0.116037
970.315858	0.116784
970.490842	0.115009
970.665808	0.115404
970.840755	0.115898
971.015684	0.112899
971.190595	0.109662
971.365487	0.112603
971.540362	0.111178
971.715218	0.110090
971.890056	0.109771
972.064875	0.108598
972.239677	0.109197
972.414460	0.108915
972.589225	0.107862
972.763972	0.107824
972.938700	0.105999
973.113411	0.106372
973.288103	0.106752
973.462777	0.105029
973.637432	0.104412
973.812070	0.102358
973.986689	0.104644
974.161290	0.107872
974.335873	0.107453
974.510437	0.109334
974.684984	0.109137
974.859512	0.109497
975.034022	0.112221
975.208513	0.113290
975.382987	0.116467
975.557442	0.115279
975.731879	0.113505
975.906298	0.114797
976.080698	0.113655
976.255080	0.113617
976.429445	0.114336
976.603790	0.114753
976.778118	0.115753
976.952427	0.115569
977.126719	0.114029
977.300992	0.115426
977.475246	0.116726
977.649483	0.118854
977.823701	0.119879
977.997901	0.119995
978.172083	0.117033
978.346247	0.118813
978.520392	0.117746
978.694519	0.119866
978.868628	0.117915
979.042719	0.116854
979.216791	0.114617
979.390845	0.115444
979.564882	0.112361
979.738899	0.113635
979.912899	0.111523
980.086880	0.110867
980.260843	0.111166
980.434788	0.110629
980.608715	0.110121
980.782623	0.109220
980.956514	0.108072
981.130386	0.111299
981.304240	0.113007
981.478075	0.113221
981.651892	0.114884
981.825692	0.115311
981.999472	0.115458
982.173235	0.114938
982.346980	0.117743
982.520706	0.120475
982.694414	0.120622
982.868104	0.118489
983.041775	0.117812
983.215428	0.117228
983.389064	0.114945
983.562680	0.115764
983.736279	0.117959
983.909860	0.115926
984.083422	0.113068
984.256966	0.111785
984.430491	0.113504
984.603999	0.115664
984.777488	0.117050
984.950959	0.116267
985.124412	0.116538
985.297847	0.115075
985.471263	0.117540
985.644661	0.118405
985.818041	0.118161
985.991403	0.117005
986.164747	0.114860
986.338072	0.114280
986.511379	0.115420
986.684668	0.117406
986.857938	0.118331
987.031191	0.116011
987.204425	0.115537
987.377641	0.117412
987.550839	0.115044
987.724018	0.116111
987.897179	0.115247
988.070322	0.115271
988.243447	0.112669
988.416554	0.111612
988.589642	0.110210
988.762712	0.109906
988.935764	0.110529
989.108798	0.112803
989.281813	0.112780
989.454811	0.112738
989.627790	0.112008
989.800751	0.112346
989.973693	0.112434
990.146617	0.114168
990.319524	0.115468
990.492412	0.113508
990.665281	0.112511
990.838133	0.113918
991.010966	0.113832
991.183781	0.115969
991.356578	0.116172
991.529356	0.116710
991.702117	0.118477
991.874859	0.116793
992.047583	0.115867
992.220288	0.116801
992.392976	0.113655
992.565645	0.113985
992.738296	0.113551
992.910929	0.113155
993.083543	0.113774
993.256139	0.110262
993.428718	0.112025
993.601277	0.112372
993.773819	0.113749
993.946342	0.114327
994.118848	0.114962
994.291335	0.115433
994.463803	0.115407
994.636254	0.113315
994.808686	0.114269
994.981100	0.113066
995.153496	0.113038
995.325874	0.112693
995.498233	0.114504
995.670574	0.113303
995.842897	0.112638
996.015202	0.113613
996.187488	0.114881
996.359757	0.115380
996.532007	0.115210
996.704239	0.117136
996.876452	0.115746
997.048648	0.115251
997.220825	0.115075
997.392984	0.115652
997.565124	0.115614
997.737247	0.114773
997.909351	0.114726
998.081437	0.113987
998.253505	0.114586
998.425554	0.113535
998.597586	0.113573
998.769599	0.114608
998.941594	0.112359
999.113571	0.110728
999.285529	0.113423
999.457469	0.113088
999.629391	0.110639
999.801295	0.110688
999.973181	0.111955
1000.145048	0.111422
1000.316897	0.111588
1000.488728	0.113184
1000.660541	0.113828
1000.832335	0.112455
1001.004111	0.113678
1001.175869	0.117118
1001.347609	0.115964
1001.519331	0.115969
1001.691034	0.116022
1001.862719	0.114959
1002.034386	0.114375
1002.206035	0.115697
1002.377665	0.115186
1002.549277	0.112763
1002.720871	0.111462
1002.892447	0.111556
1003.064004	0.112388
1003.235544	0.111675
1003.407065	0.112671
1003.578568	0.113161
1003.750052	0.112829
1003.921519	0.112957
1004.092967	0.114853
1004.264397	0.117389
1004.435809	0.117078
1004.607202	0.117000
1004.778577	0.118050
1004.949934	0.116850
1005.121273	0.116353
1005.292594	0.115925
1005.463896	0.115619
1005.635180	0.114197
1005.806446	0.113571
1005.977694	0.113760
1006.148923	0.112495
1006.320135	0.110167
1006.491328	0.109972
1006.662503	0.110602
1006.833659	0.108717
1007.004798	0.109477
1007.175918	0.108352
1007.347020	0.106751
1007.518103	0.107986
1007.689169	0.108423
1007.860216	0.110221
1008.031245	0.111137
1008.202256	0.111196
1008.373248	0.113410
1008.544223	0.114289
1008.715179	0.117333
1008.886117	0.118034
1009.057036	0.114931
1009.227938	0.113793
1009.398821	0.114743
1009.569686	0.113799
1009.740533	0.112404
1009.911361	0.113257
1010.082172	0.112398
1010.252964	0.110071
1010.423738	0.110903
1010.594493	0.112872
1010.765231	0.115144
1010.935950	0.114057
1011.106651	0.115490
1011.277334	0.115631
1011.447998	0.113335
1011.618645	0.114185
1011.789273	0.115755
1011.959882	0.114839
1012.130474	0.115068
1012.301048	0.112619
1012.471603	0.111780
1012.642140	0.110697
1012.812658	0.110718
1012.983159	0.112786
1013.153641	0.111104
1013.324105	0.111371
1013.494551	0.111619
1013.664979	0.111168
1013.835388	0.112491
1014.005779	0.114664
1014.176152	0.115068
1014.346507	0.115138
1014.516843	0.113862
1014.687162	0.113678
1014.857462	0.112241
1015.027744	0.110856
1015.198007	0.109421
1015.368252	0.108320
1015.538480	0.106172
1015.708689	0.105820
1015.878879	0.107594
1016.049052	0.108670
1016.219206	0.107999
1016.389342	0.109572
1016.559460	0.111027
1016.729559	0.111865
1016.899641	0.112884
1017.069704	0.113122
1017.239749	0.112292
1017.409775	0.110451
1017.579784	0.109540
1017.749774	0.111365
1017.919746	0.110996
1018.089700	0.110671
1018.259635	0.110409
1018.429553	0.110757
1018.599452	0.113071
1018.769333	0.114133
1018.939195	0.115274
1019.109040	0.113755
1019.278866	0.113012
1019.448674	0.112379
1019.618464	0.114859
1019.788235	0.115581
1019.957989	0.113416
1020.127724	0.113110
1020.297441	0.112960
1020.467139	0.114068
1020.636820	0.115668
1020.806482	0.116703
1020.976126	0.117114
1021.145752	0.116510
1021.315359	0.115837
1021.484948	0.116816
1021.654519	0.116566
1021.824072	0.117157
1021.993607	0.116280
1022.163123	0.115332
1022.332621	0.113629
1022.502101	0.113532
1022.671563	0.110967
1022.841007	0.112394
1023.010432	0.112410
1023.179839	0.110667
1023.349228	0.109636
1023.518598	0.109879
1023.687951	0.111790
1023.857285	0.111550
1024.026601	0.112646
1024.195899	0.115024
1024.365178	0.114867
1024.534439	0.114721
1024.703682	0.114798
1024.872907	0.115699
1025.042114	0.113730
1025.211302	0.114323
1025.380472	0.114907
1025.549624	0.112621
1025.718758	0.110093
1025.887873	0.108279
1026.056970	0.109488
1026.226049	0.110354
1026.395110	0.111228
1026.564153	0.113236
1026.733177	0.110915
1026.902183	0.111541
1027.071171	0.111852
1027.240141	0.114794
1027.409092	0.115426
1027.578026	0.115482
1027.746940	0.116915
1027.915837	0.115358
1028.084716	0.114540
1028.253576	0.115020
1028.422418	0.114087
1028.591242	0.115070
1028.760048	0.113091
1028.928835	0.111817
1029.097604	0.109787
1029.266355	0.108589
1029.435088	0.107685
1029.603803	0.107977
1029.772499	0.107450
1029.941177	0.108147
1030.109837	0.108715
1030.278478	0.110507
1030.447102	0.110647
1030.615707	0.113525
1030.784294	0.112669
1030.952863	0.114100
1031.121413	0.113835
1031.289945	0.114299
1031.458460	0.114099
1031.626955	0.114087
1031.795433	0.109729
1031.963892	0.109785
1032.132334	0.106659
1032.300756	0.108312
1032.469161	0.106216
1032.637548	0.104114
1032.805916	0.106043
1032.974266	0.106551
1033.142598	0.106657
1033.310911	0.110798
1033.479207	0.110752
1033.647484	0.111180
1033.815743	0.110235
1033.983983	0.111704
1034.152206	0.111293
1034.320410	0.110455
1034.488596	0.109626
1034.656764	0.108256
1034.824914	0.105660
1034.993045	0.106245
1035.161158	0.108550
1035.329253	0.109151
1035.497330	0.108812
1035.665388	0.109688
1035.833428	0.108968
1036.001450	0.108722
1036.169454	0.109357
1036.337440	0.110897
1036.505407	0.112076
1036.673356	0.111850
1036.841287	0.111276
1037.009200	0.110954
1037.177094	0.112571
1037.344970	0.111833
1037.512828	0.112720
1037.680668	0.112871
1037.848489	0.111860
1038.016293	0.110370
1038.184078	0.109722
1038.351845	0.111064
1038.519593	0.114038
1038.687324	0.113350
1038.855036	0.112606
1039.022730	0.112231
1039.190406	0.111389
1039.358063	0.111349
1039.525702	0.112091
1039.693323	0.111948
1039.860926	0.112116
1040.028511	0.110570
1040.196077	0.110567
1040.363625	0.111959
1040.531155	0.110404
1040.698667	0.109440
1040.866161	0.108728
1041.033636	0.110570
1041.201093	0.111299
1041.368532	0.109994
1041.535952	0.109996
1041.703355	0.109237
1041.870739	0.108503
1042.038105	0.109023
1042.205452	0.110431
1042.372782	0.110827
1042.540093	0.109057
1042.707386	0.107924
1042.874661	0.107181
1043.041918	0.108189
1043.209156	0.109268
1043.376376	0.108648
1043.543578	0.108615
1043.710762	0.108610
1043.877927	0.110555
1044.045074	0.112522
1044.212203	0.114385
1044.379314	0.114167
1044.546407	0.113519
1044.713481	0.116781
1044.880537	0.118086
1045.047575	0.118425
1045.214595	0.119256
1045.381596	0.117591
1045.548579	0.115949
1045.715544	0.113591
1045.882491	0.112711
1046.049420	0.111917
1046.216330	0.107134
1046.383222	0.105443
1046.550096	0.106947
1046.716951	0.106253
1046.883789	0.105482
1047.050608	0.105027
1047.217409	0.106791
1047.384192	0.108385
1047.550956	0.108211
1047.717703	0.109590
1047.884431	0.110548
1048.051140	0.110960
1048.217832	0.110652
1048.384505	0.110051
1048.551161	0.112339
1048.717798	0.112381
1048.884416	0.111663
1049.051017	0.113434
1049.217599	0.113193
1049.384163	0.111617
1049.550709	0.110663
1049.717237	0.111537
1049.883746	0.113413
1050.050237	0.110504
1050.216710	0.109735
1050.383165	0.108996
1050.549601	0.106170
1050.716019	0.107932
1050.882420	0.112520
1051.048801	0.112404
1051.215165	0.113026
1051.381510	0.112735
1051.547837	0.111457
1051.714146	0.111742
1051.880437	0.112792
1052.046709	0.114501
1052.212964	0.111820
1052.379200	0.109191
1052.545417	0.108388
1052.711617	0.105848
1052.877798	0.106027
1053.043961	0.111352
1053.210106	0.109197
1053.376233	0.108027
1053.542341	0.106641
1053.708432	0.106788
1053.874504	0.107405
1054.040557	0.107022
1054.206593	0.108714
1054.372610	0.108624
1054.538609	0.105688
1054.704590	0.107395
1054.870553	0.109124
1055.036497	0.111232
1055.202424	0.112677
1055.368331	0.110285
1055.534221	0.111001
1055.700093	0.110993
1055.865946	0.110176
1056.031781	0.108493
1056.197598	0.108565
1056.363397	0.110500
1056.529177	0.107587
1056.694939	0.107187
1056.860683	0.108255
1057.026409	0.110138
1057.192116	0.111525
1057.357806	0.113242
1057.523477	0.114174
1057.689130	0.114319
1057.854764	0.112038
1058.020381	0.114771
1058.185979	0.116345
1058.351559	0.116208
1058.517120	0.114398
1058.682664	0.115477
1058.848189	0.113477
1059.013696	0.113178
1059.179185	0.112276
1059.344656	0.113020
1059.510108	0.111657
1059.675542	0.110285
1059.840958	0.109994
1060.006356	0.109635
1060.171735	0.105258
1060.337096	0.104041
1060.502439	0.105705
1060.667764	0.106131
1060.833071	0.106853
1060.998359	0.107369
1061.163629	0.108264
1061.328881	0.108495
1061.494115	0.106645
1061.659330	0.107554
1061.824527	0.110917
1061.989706	0.110021
1062.154867	0.109946
1062.320010	0.106967
1062.485134	0.109140
1062.650240	0.108936
1062.815328	0.109722
1062.980398	0.112356
1063.145449	0.111776
1063.310482	0.110505
1063.475497	0.111871
1063.640494	0.112615
1063.805473	0.113434
1063.970433	0.109754
1064.135375	0.110551
1064.300299	0.112111
1064.465204	0.110823
1064.630092	0.110868
1064.794961	0.109879
1064.959812	0.107742
1065.124645	0.107965
1065.289459	0.108798
1065.454256	0.109769
1065.619034	0.108803
1065.783793	0.106045
1065.948535	0.105132
1066.113258	0.105977
1066.277964	0.108219
1066.442651	0.107593
1066.607319	0.106692
1066.771970	0.104974
1066.936602	0.102382
1067.101216	0.102486
1067.265812	0.104400
1067.430389	0.106131
1067.594949	0.104450
1067.759490	0.103311
1067.924013	0.106260
1068.088518	0.104783
1068.253004	0.106922
1068.417472	0.111425
1068.581922	0.109636
1068.746354	0.110758
1068.910768	0.114113
1069.075163	0.116741
1069.239540	0.119517
1069.403899	0.116931
1069.568240	0.117796
1069.732562	0.117713
1069.896866	0.116281
1070.061152	0.118922
1070.225420	0.118238
1070.389670	0.115496
1070.553901	0.113402
1070.718114	0.112570
1070.882309	0.112339
1071.046486	0.111441
1071.210644	0.110185
1071.374784	0.111076
1071.538906	0.107521
1071.703010	0.105346
1071.867096	0.105460
1072.031163	0.106829
1072.195212	0.107019
1072.359243	0.107321
1072.523256	0.111176
1072.687250	0.111020
1072.851226	0.112015
1073.015184	0.112564
1073.179124	0.112416
1073.343045	0.113422
1073.506949	0.113701
1073.670834	0.111215
1073.834701	0.114584
1073.998549	0.112771
1074.162380	0.112976
1074.326192	0.111831
1074.489986	0.113975
1074.653761	0.116027
1074.817519	0.115265
1074.981258	0.116313
1075.144979	0.116247
1075.308682	0.113348
1075.472367	0.110449
1075.636033	0.110980
1075.799681	0.111112
1075.963311	0.109265
1076.126923	0.110661
1076.290516	0.108995
1076.454092	0.108476
1076.617649	0.108387
1076.781187	0.108638
1076.944708	0.111741
1077.108210	0.115240
1077.271695	0.114654
1077.435160	0.116402
1077.598608	0.115901
1077.762038	0.118215
1077.925449	0.119027
1078.088842	0.117968
1078.252217	0.118486
1078.415573	0.119868
1078.578912	0.115951
1078.742232	0.115120
1078.905534	0.112466
1079.068817	0.112856
1079.232083	0.113145
1079.395330	0.110295
1079.558559	0.110118
1079.721770	0.108500
1079.884962	0.106841
1080.048136	0.104561
1080.211293	0.105510
1080.374430	0.106678
1080.537550	0.105933
1080.700651	0.104903
1080.863735	0.108151
1081.026800	0.108819
1081.189846	0.110819
1081.352875	0.109997
1081.515885	0.113237
1081.678877	0.113283
1081.841851	0.113778
1082.004807	0.113362
1082.167744	0.111644
1082.330663	0.108354
1082.493564	0.111371
1082.656447	0.112745
1082.819312	0.114761
1082.982158	0.115073
1083.144986	0.111554
1083.307796	0.111061
1083.470587	0.110845
1083.633361	0.111634
1083.796116	0.114912
1083.958853	0.113917
1084.121571	0.114062
1084.284272	0.112315
1084.446954	0.112898
1084.609618	0.114461
1084.772264	0.114285
1084.934892	0.113371
1085.097501	0.111834
1085.260092	0.111566
1085.422665	0.111322
1085.585220	0.108298
1085.747756	0.110744
1085.910274	0.109517
1086.072774	0.111123
1086.235256	0.111692
1086.397720	0.111219
1086.560165	0.113965
1086.722592	0.115571
1086.885001	0.114392
1087.047392	0.113722
1087.209764	0.110364
1087.372119	0.112109
1087.534455	0.112453
1087.696772	0.110511
1087.859072	0.112876
1088.021353	0.113529
1088.183616	0.111883
1088.345861	0.112959
1088.508088	0.113876
1088.670296	0.113471
1088.832486	0.111850
1088.994658	0.111964
1089.156812	0.113823
1089.318948	0.115056
1089.481065	0.111152
1089.643164	0.110739
1089.805245	0.111271
1089.967308	0.112523
1090.129352	0.116317
1090.291378	0.113802
1090.453386	0.110194
1090.615376	0.110074
1090.777347	0.105879
1090.939301	0.106402
1091.101236	0.107978
1091.263153	0.107925
1091.425051	0.108109
1091.586932	0.105966
1091.748794	0.109615
1091.910638	0.110831
1092.072463	0.112099
1092.234271	0.114318
1092.396060	0.117455
1092.557831	0.115400
1092.719584	0.111513
1092.881319	0.111206
1093.043035	0.110847
1093.204733	0.111622
1093.366413	0.113870
1093.528075	0.114098
1093.689718	0.115895
1093.851343	0.118503
1094.012950	0.118563
1094.174539	0.120539
1094.336110	0.120731
1094.497662	0.121317
1094.659196	0.121339
1094.820712	0.118473
1094.982210	0.120837
1095.143689	0.116035
1095.305151	0.113329
1095.466594	0.111240
1095.628018	0.112968
1095.789425	0.115090
1095.950813	0.113902
1096.112183	0.111881
1096.273535	0.115567
1096.434869	0.114715
1096.596184	0.116059
1096.757482	0.114646
1096.918761	0.121540
1097.080021	0.122523
1097.241264	0.122572
1097.402488	0.121849
1097.563694	0.119731
1097.724882	0.120582
1097.886052	0.123801
1098.047203	0.128100
1098.208336	0.131689
1098.369451	0.130329
1098.530548	0.126836
1098.691627	0.120777
1098.852687	0.123375
1099.013729	0.128092
1099.174753	0.125861
1099.335758	0.119222
1099.496746	0.115442
1099.657715	0.109231
1099.818666	0.108806
1099.979599	0.113266
1100.140513	0.113729
1100.301409	0.116607
1100.462287	0.119734
1100.623147	0.121575
1100.783989	0.125134
1100.944812	0.123997
1101.105617	0.129826
1101.266404	0.122705
1101.427173	0.121305
1101.587923	0.125027
1101.748656	0.121588
1101.909370	0.118500
1102.070066	0.119744
1102.230743	0.117717
1102.391403	0.118536
1102.552044	0.118130
1102.712667	0.121255
1102.873271	0.122244
1103.033858	0.121768
1103.194426	0.124106
1103.354976	0.121245
1103.515508	0.113832
1103.676021	0.110457
1103.836517	0.112866
1103.996994	0.114899
1104.157453	0.116892
1104.317893	0.117040
1104.478316	0.123891
1104.638720	0.122124
1104.799106	0.127077
1104.959474	0.137385
1105.119823	0.145757
1105.280155	0.145950
1105.440468	0.140822
1105.600763	0.141576
1105.761039	0.140762
1105.921298	0.133220
1106.081538	0.136080
1106.241760	0.131825
1106.401964	0.126246
1106.562149	0.123977
1106.722316	0.122612
1106.882465	0.126398
1107.042596	0.122248
1107.202709	0.118681
1107.362803	0.119139
1107.522879	0.117729
1107.682937	0.113359
1107.842977	0.110493
1108.002999	0.108269
1108.163002	0.108242
1108.322987	0.102755
1108.482954	0.105703
1108.642902	0.107272
1108.802833	0.106176
1108.962745	0.107190
1109.122639	0.114121
1109.282515	0.118268
1109.442372	0.121679
1109.602211	0.124005
1109.762032	0.122497
1109.921835	0.118480
1110.081620	0.115690
1110.241386	0.116769
1110.401134	0.115540
1110.560864	0.113667
1110.720576	0.113390
1110.880269	0.110740
1111.039945	0.110436
1111.199602	0.113929
1111.359240	0.119801
1111.518861	0.122006
1111.678463	0.125347
1111.838047	0.126698
1111.997613	0.127497
1112.157161	0.126042
1112.316690	0.125386
1112.476202	0.125639
1112.635695	0.127599
1112.795169	0.125004
1112.954626	0.127966
1113.114064	0.123473
1113.273484	0.130229
1113.432886	0.128693
1113.592270	0.126634
1113.751635	0.126592
1113.910983	0.129755
1114.070312	0.128984
1114.229622	0.129918
1114.388915	0.127678
1114.548189	0.131787
1114.707445	0.126554
1114.866683	0.126642
1115.025903	0.131960
1115.185104	0.136790
1115.344287	0.130616
1115.503452	0.134240
1115.662599	0.136857
1115.821727	0.137130
1115.980838	0.130261
1116.139930	0.119568
1116.299004	0.121313
1116.458059	0.117422
1116.617097	0.120456
1116.776116	0.128767
1116.935117	0.125015
1117.094099	0.121538
1117.253064	0.121458
1117.412010	0.127327
1117.570938	0.129126
1117.729848	0.135525
1117.888740	0.139921
1118.047613	0.131439
1118.206468	0.123802
1118.365305	0.123050
1118.524124	0.118949
1118.682924	0.116412
1118.841707	0.117373
1119.000471	0.118998
1119.159216	0.113449
1119.317944	0.120268
1119.476653	0.116977
1119.635344	0.121197
1119.794017	0.122175
1119.952672	0.128005
1120.111308	0.130462
1120.269927	0.128297
1120.428527	0.128587
1120.587108	0.128155
1120.745672	0.118556
1120.904217	0.121204
1121.062744	0.121007
1121.221253	0.123712
1121.379744	0.125804
1121.538216	0.129121
1121.696671	0.128843
1121.855107	0.135629
1122.013524	0.140382
1122.171924	0.138548
1122.330305	0.140348
1122.488668	0.140797
1122.647013	0.139083
1122.805340	0.142393
1122.963648	0.144409
1123.121938	0.145730
1123.280210	0.141599
1123.438464	0.141144
1123.596700	0.147049
1123.754917	0.155721
1123.913116	0.157917
1124.071297	0.151844
1124.229459	0.134733
1124.387604	0.127059
1124.545730	0.126864
1124.703838	0.130779
1124.861928	0.126470
1125.019999	0.124397
1125.178052	0.114636
1125.336088	0.109067
1125.494104	0.114743
1125.652103	0.123486
1125.810083	0.124695
1125.968045	0.127049
1126.125989	0.121771
1126.283915	0.119178
1126.441823	0.120105
1126.599712	0.122333
1126.757583	0.119579
1126.915436	0.119164
1127.073270	0.124716
1127.231087	0.131732
1127.388885	0.130166
1127.546665	0.134048
1127.704426	0.132688
1127.862170	0.133279
1128.019895	0.138632
1128.177602	0.139831
1128.335291	0.145436
1128.492961	0.132251
1128.650614	0.130154
1128.808248	0.129101
1128.965864	0.129214
1129.123461	0.131864
1129.281041	0.135134
1129.438602	0.127218
1129.596145	0.132801
1129.753670	0.132971
1129.911176	0.141955
1130.068665	0.144217
1130.226135	0.146028
1130.383587	0.149561
1130.541020	0.147947
1130.698436	0.140826
1130.855833	0.141842
1131.013212	0.137722
1131.170573	0.132667
1131.327915	0.138720
1131.485239	0.146509
1131.642545	0.143600
1131.799833	0.132307
1131.957103	0.132643
1132.114354	0.142930
1132.271588	0.140891
1132.428803	0.140739
1132.585999	0.142527
1132.743178	0.136941
1132.900338	0.120437
1133.057480	0.126044
1133.214604	0.128402
1133.371710	0.134797
1133.528797	0.121620
1133.685866	0.132173
1133.842917	0.128220
1133.999950	0.117903
1134.156964	0.123604
1134.313960	0.136195
1134.470938	0.133643
1134.627898	0.137657
1134.784840	0.126851
1134.941763	0.127226
1135.098668	0.120392
1135.255555	0.124933
1135.412424	0.130890
1135.569274	0.121545
1135.726107	0.115169
1135.882921	0.108656
1136.039716	0.103876
1136.196494	0.110770
1136.353253	0.108115
1136.509995	0.106318
1136.666717	0.114300
1136.823422	0.109110
1136.980109	0.114568
1137.136777	0.107186
1137.293427	0.117421
1137.450059	0.131835
1137.606672	0.138464
1137.763267	0.147945
1137.919844	0.135575
1138.076403	0.130911
1138.232944	0.143280
1138.389466	0.143597
1138.545971	0.144087
1138.702457	0.136624
1138.858924	0.128243
1139.015374	0.117538
1139.171805	0.118378
1139.328218	0.134255
1139.484613	0.129635
1139.640990	0.125640
1139.797348	0.115608
1139.953688	0.121932
1140.110010	0.124577
1140.266314	0.124965
1140.422600	0.131682
1140.578867	0.130159
1140.735116	0.127771
1140.891347	0.130902
1141.047559	0.123761
1141.203754	0.132728
1141.359930	0.138301
1141.516088	0.149129
1141.672228	0.139248
1141.828349	0.127117
1141.984452	0.127508
1142.140537	0.130305
1142.296604	0.137639
1142.452653	0.149955
1142.608683	0.138858
1142.764695	0.134860
1142.920689	0.125589
1143.076665	0.131984
1143.232622	0.137925
1143.388562	0.132552
1143.544483	0.133010
1143.700385	0.132547
1143.856270	0.133563
1144.012136	0.150327
1144.167985	0.139299
1144.323814	0.138382
1144.479626	0.136579
1144.635420	0.145402
1144.791195	0.150110
1144.946952	0.147956
1145.102691	0.134640
1145.258411	0.130663
1145.414113	0.126166
1145.569798	0.137029
1145.725463	0.143395
1145.881111	0.144500
1146.036741	0.138003
1146.192352	0.139547
1146.347945	0.138749
1146.503519	0.128252
1146.659076	0.127002
1146.814614	0.129685
1146.970134	0.131362
1147.125636	0.123582
1147.281120	0.124350
1147.436585	0.120515
1147.592032	0.116923
1147.747461	0.121520
1147.902872	0.130512
1148.058265	0.140324
1148.213639	0.135459
1148.368995	0.132426
1148.524333	0.130469
1148.679653	0.131666
1148.834954	0.139552
1148.990237	0.155385
1149.145502	0.157610
1149.300749	0.175592
1149.455977	0.163473
1149.611188	0.158503
1149.766380	0.159819
1149.921553	0.150837
1150.076709	0.156687
1150.231846	0.153916
1150.386966	0.148750
1150.542066	0.143540
1150.697149	0.132047
1150.852214	0.133440
1151.007260	0.143529
1151.162288	0.151167
1151.317298	0.165117
1151.472289	0.165752
1151.627263	0.165351
1151.782218	0.159262
1151.937155	0.160817
1152.092073	0.165131
1152.246974	0.155065
1152.401856	0.138953
1152.556720	0.137629
1152.711566	0.137898
1152.866393	0.140608
1153.021203	0.128464
1153.175994	0.128435
1153.330767	0.127556
1153.485521	0.143445
1153.640258	0.147882
1153.794976	0.153107
1153.949676	0.140725
1154.104358	0.132180
1154.259021	0.135770
1154.413667	0.148591
1154.568294	0.154043
1154.722903	0.137450
1154.877493	0.131580
1155.032066	0.136155
1155.186620	0.134131
1155.341156	0.136406
1155.495674	0.158795
1155.650173	0.142773
1155.804654	0.141802
1155.959118	0.127758
1156.113562	0.162267
1156.267989	0.145108
1156.422397	0.154172
1156.576788	0.160355
1156.731160	0.160604
1156.885513	0.128440
1157.039849	0.128982
1157.194166	0.130707
1157.348465	0.155417
1157.502746	0.140872
1157.657009	0.149572
1157.811253	0.154193
1157.965479	0.154509
1158.119687	0.151483
1158.273877	0.161433
1158.428048	0.184387
1158.582201	0.192563
1158.736337	0.174017
1158.890453	0.167196
1159.044552	0.162900
1159.198632	0.151083
1159.352694	0.158550
1159.506738	0.178525
1159.660764	0.188522
1159.814771	0.158173
1159.968761	0.154741
1160.122732	0.144789
1160.276685	0.145795
1160.430619	0.151894
1160.584535	0.131325
1160.738434	0.123162
1160.892313	0.130711
1161.046175	0.135410
1161.200019	0.155795
1161.353844	0.168106
1161.507651	0.175284
1161.661440	0.193685
1161.815210	0.184031
1161.968962	0.225731
1162.122697	0.219212
1162.276412	0.205521
1162.430110	0.208361
1162.583789	0.204264
1162.737451	0.187333
1162.891094	0.184373
1163.044718	0.175018
1163.198325	0.163706
1163.351913	0.156713
1163.505483	0.165101
1163.659035	0.135456
1163.812569	0.111481
1163.966084	0.096948
1164.119581	0.094879
1164.273060	0.083335
1164.426521	0.084010
1164.579964	0.077494
1164.733388	0.048548
1164.886794	0.035239
1165.040182	0.049801
1165.193551	0.064171
1165.346903	0.063361
1165.500236	0.066722
1165.653551	0.085148
1165.806848	0.074140
1165.960126	0.080014
1166.113386	0.102150
1166.266628	0.114740
1166.419852	0.140319
1166.573058	0.140003
1166.726245	0.167723
1166.879414	0.168646
1167.032565	0.175213
1167.185698	0.169014
1167.338812	0.193537
1167.491909	0.216136
1167.644987	0.211894
1167.798046	0.173373
1167.951088	0.181788
1168.104111	0.159978
1168.257117	0.149368
1168.410103	0.163125
1168.563072	0.184067
1168.716023	0.181764
1168.868955	0.161971
1169.021869	0.141649
1169.174765	0.156973
1169.327642	0.138480
1169.480501	0.134728
1169.633343	0.162684
1169.786165	0.135324
1169.938970	0.130983
1170.091757	0.146331
1170.244525	0.161409
1170.397275	0.213646
1170.550007	0.197780
1170.702720	0.233696
1170.855415	0.228412
1171.008092	0.197502
1171.160751	0.202723
1171.313392	0.192542
1171.466014	0.034737
1171.618619	0.132867
1171.771205	0.132867
1171.923772	0.132867
