sample name	sample
index	828
start time	 03-31-2021  04:15:46 PM
880	0.365635
Peak Time (s)	91.538
Peak Height 	0.3656
calc peak height	90,93
Baseline Time (s)	8.537
Baseline Value 	-0.005382
subtract baseline	10,4
Abs	0.296699
Peak Time (s)	92.035
Peak Height 	0.2967
calc peak height	90,93
Baseline Time (s)	10.535
Baseline Value 	-3.0809E-5
subtract baseline	10,3
PK_550	0.168721
Peak Time (s)	91.538
Peak Height 	0.1687
calc peak height	90,93
Baseline Time (s)	10.037
Baseline Value 	-1.5376E-4
subtract baseline	10,2
PK_880	0.283015
Peak Time (s)	91.538
Peak Height 	0.283
calc peak height	90,93
Baseline Time (s)	8.537
Baseline Value 	-9.5203E-4
subtract baseline	10,1


Time (s)	A880-A510	A880-A775	A880-A975	A880	I510	I775	I975	I880	
0.034000	0.002085	0.001063	0.001216	0.004999	6629.661617	39082.004232	4038.398030	21372.045511
0.538000	-0.000860	0.000414	0.001307	0.005906	6598.913156	38953.538874	4036.663382	21333.991712
1.035000	-0.001555	0.000231	-0.003888	0.005585	6595.941238	38964.940641	4026.378481	21347.438808
1.538500	0.002326	0.000715	-0.002320	0.003876	6640.610036	39146.130168	4033.280910	21419.251284
2.038500	0.000907	0.000974	0.000797	0.003377	6633.220706	39208.930962	4040.958183	21440.261127
2.535500	0.001412	-0.000227	0.004943	0.003176	6638.890276	39126.044837	4050.274688	21448.733515
3.038500	0.002840	0.000495	0.005867	0.000219	6674.321028	39431.837397	4058.668811	21573.825462
3.536500	0.000500	0.000478	-0.000101	0.004194	6623.412634	39100.174211	4037.308468	21405.855505
4.036500	0.000810	0.000607	0.000343	0.001710	6645.844565	39316.921117	4043.547099	21510.629251
4.537000	-0.000328	-0.000028	-0.003694	0.001430	6638.935287	39287.364295	4035.550890	21522.480206
5.035000	0.001691	0.000485	-0.000549	0.001990	6650.686890	39283.432534	4041.044957	21498.780824
5.535000	-0.000131	0.001416	-0.001186	0.005576	6607.335568	39063.361782	4032.084794	21347.801879
6.035000	0.001901	0.000328	-0.000735	0.001206	6658.713293	39335.663488	4042.322288	21531.977502
6.535500	-0.000711	0.001112	-0.000148	0.001624	6634.300379	39366.149559	4042.683450	21514.275594
7.036000	0.002920	0.000012	-0.002953	0.000256	6674.665652	39388.433215	4039.618039	21572.239279
7.536000	-0.002731	-0.000570	0.002778	0.002332	6612.478148	39167.545972	4047.433176	21484.361677
8.036000	0.000686	0.000226	0.000502	-0.000451	6662.294813	39465.343265	4048.523651	21602.296714
8.536500	0.000000	0.000575	0.000986	0.000000	6653.099851	39456.780899	4048.593230	21583.112945
9.037000	-0.000840	-0.000103	-0.000137	-0.000426	6649.762408	39435.775767	4047.096062	21601.215499
9.537500	-0.000874	-0.000726	0.001799	0.001796	6631.617105	39199.026752	4046.483579	21507.007906
10.037500	0.000416	0.000000	-0.000163	-0.000310	6658.963893	39434.685586	4046.791929	21596.284140
10.535000	0.001518	0.000119	0.000000	-0.000694	6670.999594	39476.679443	4047.965427	21612.611633
11.035000	0.002328	0.000943	0.005411	0.000025	6671.737805	39485.468989	4058.099155	21582.043005
11.536000	-0.001003	-0.000039	-0.000906	0.000387	6641.894755	39373.254798	4043.706757	21566.671055
12.036000	-0.000028	0.000458	0.005757	-0.000021	6653.049306	39448.825055	4058.950927	21584.020990
12.536000	0.003693	0.001014	0.002416	-0.000064	6683.562829	39498.881250	4051.810552	21585.847966
13.036500	0.001573	0.000340	0.004830	0.000020	6665.662196	39435.528079	4056.849401	21582.271530
13.537000	-0.001009	-0.000142	-0.001708	-0.000120	6645.935526	39407.031829	4043.075425	21588.220695
14.037000	0.000426	0.000413	-0.000506	0.001816	6641.900288	39292.002023	4041.508748	21506.153255
14.534500	-0.001590	0.000481	-0.002539	0.002126	6623.240594	39271.878588	4036.525207	21493.065684
15.045500	-0.001471	-0.000522	0.001096	-0.000163	6642.554308	39378.829979	4049.179186	21590.027698
15.534500	-0.001389	0.000425	0.002271	-0.000014	6642.025638	39445.468104	4051.390192	21583.723856
16.038500	-0.000471	0.000046	0.002009	0.000236	6647.393866	39392.949526	4050.284310	21573.076394
16.536000	0.000716	0.000824	0.003527	0.000959	6651.142633	39397.619463	4051.999818	21542.451246
17.036000	0.000067	0.000056	0.003779	-0.000518	6657.822508	39456.713680	4055.738339	21605.125921
17.535500	-0.001997	0.000132	0.004295	0.000028	6636.793036	39417.547963	4055.673649	21581.944975
18.039500	-0.000778	-0.000006	-0.001140	0.000360	6643.921341	39378.262274	4043.264002	21567.818029
18.537000	-0.001112	-0.000218	-0.000423	0.000768	6637.962435	39326.711617	4043.926594	21550.544141
19.037000	-0.001883	0.000049	0.001886	0.000499	6633.922948	39371.314947	4049.454400	21561.925748
19.534500	-0.001228	-0.000017	0.001889	0.000349	6640.392787	39378.267877	4049.785507	21568.303263
20.035000	0.000572	0.000869	0.001525	0.001102	6648.826019	39389.371473	4047.383067	21536.362747
20.538000	-0.000451	-0.000056	0.001659	0.000407	6646.180395	39370.167343	4049.163264	21565.820315
21.038500	-0.000401	-0.000060	-0.004203	0.000663	6644.522049	39348.558783	4036.097634	21554.978505
21.536000	-0.001743	0.000153	0.000994	0.000820	6632.478294	39353.249301	4046.849251	21548.330596
22.036000	0.001157	-0.000399	0.001126	0.000268	6660.283839	39353.191898	4048.318395	21571.732903
22.536500	-0.000125	-0.000121	-0.000287	0.000628	6647.027255	39346.445328	4044.517284	21556.481996
23.039500	-0.001268	0.000733	0.002117	0.001002	6634.823219	39386.385001	4048.869115	21540.597043
23.537000	-0.001448	0.001129	-0.000907	0.001331	6630.741192	39391.971534	4041.687943	21526.689206
24.040500	-0.001445	0.000150	-0.004081	0.001127	6632.401365	39327.392390	4035.371850	21535.307426
24.535000	-0.000824	0.000617	0.002625	0.001252	6636.382105	39355.871208	4049.424190	21530.004182
25.038000	-0.001160	0.000078	-0.000222	0.000782	6637.457480	39350.142437	4044.325093	21549.934193
25.535500	-0.001741	0.000006	-0.000938	0.000523	6634.876531	39365.726161	4043.346490	21560.917742
26.038000	-0.000920	-0.000033	-0.003169	0.000701	6640.042382	39347.621862	4038.212311	21553.361008
26.536000	-0.002887	0.000565	0.002369	0.001082	6621.204669	39365.735079	4049.239744	21537.213786
27.036000	-0.000538	0.000529	0.003810	0.001115	6639.779381	39359.940518	4052.272466	21535.808721
27.536500	0.000022	0.000154	-0.005274	-0.001582	6666.071447	39553.918059	4038.590601	21650.433600
28.037000	-0.001111	0.000578	0.001379	0.000025	6643.940956	39454.898891	4049.382275	21582.031066
28.538000	-0.001937	0.000170	0.006003	0.000313	6634.984884	39396.868103	4058.759493	21569.815713
29.037500	0.000732	0.000028	-0.005940	-0.000037	6659.311432	39414.158473	4033.900072	21584.663361
29.535000	0.000157	0.000517	-0.004419	0.000318	6651.801199	39425.424631	4036.372761	21569.633304
30.038000	0.000418	0.000197	0.001816	-0.000028	6656.698219	39427.572711	4050.437961	21584.288498
30.535000	-0.000006	-0.000225	0.003492	-0.000044	6653.411618	39393.699879	4054.091428	21584.989885
31.036000	0.000171	0.000435	-0.000358	0.002067	6637.829032	39272.936963	4041.288463	21495.528141
31.537500	0.000201	0.000505	0.001744	0.000891	6647.534137	39376.601624	4048.305691	21545.296875
32.036000	-0.000044	0.001090	-0.000878	0.000566	6648.183512	39452.544027	4043.384515	21559.106409
32.536500	-0.001563	0.000796	0.004742	0.000620	6635.525067	39423.487617	4055.358241	21556.815226
33.036500	-0.003344	-0.000519	-0.000863	-0.000327	6628.836150	39392.841035	4045.326314	21597.009472
33.537500	-0.000292	-0.000291	0.004871	0.000103	6649.907175	39375.969301	4056.757962	21578.727821
34.035000	-0.001846	-0.000086	0.002417	0.000491	6634.288373	39360.747231	4050.617380	21562.287887
34.538000	-0.002389	-0.000358	0.002374	0.000511	6629.769328	39336.430028	4050.480031	21561.423551
35.035000	-0.003348	0.000040	0.002178	0.000930	6618.743782	39334.701463	4049.156120	21543.669181
35.536000	0.000042	-0.000579	-0.003289	0.000612	6648.507038	39309.646376	4038.147466	21557.155498
36.036000	-0.001599	-0.000124	0.002703	0.000916	6632.858492	39322.159674	4050.317447	21544.272386
36.536000	0.001028	0.000335	-0.000460	0.001761	6647.188277	39290.005573	4041.724230	21508.468168
37.036500	-0.001043	-0.000449	-0.001178	0.000688	6639.154266	39314.084848	4042.481722	21553.925650
37.537000	-0.003542	-0.000297	0.002644	0.000899	6617.438510	39309.189140	4050.225921	21544.974109
38.037000	-0.000228	-0.000162	0.005301	0.001286	6640.903078	39288.235627	4055.127284	21528.570782
38.534500	-0.003642	-0.000966	-0.002115	0.000311	6621.339307	39302.472930	4041.287034	21569.906738
39.037500	-0.002072	-0.001786	-0.000936	-0.000420	6639.784124	39294.984576	4045.368316	21600.943149
39.535500	-0.001162	0.000197	0.000819	0.001143	6634.540998	39329.974507	4045.781016	21534.623575
40.035500	-0.000466	-0.000435	0.000569	0.000821	6642.725953	39304.163829	4045.936766	21548.287581
40.535500	-0.001778	-0.000346	0.001373	0.000803	6632.325276	39313.064266	4047.697046	21549.021336
41.035500	-0.001353	0.000100	0.003018	0.001052	6633.744485	39329.484861	4050.701073	21538.489537
41.536500	-0.001908	-0.000052	0.002874	0.001308	6627.236453	39295.546000	4049.840350	21527.654793
42.036500	-0.003674	-0.000634	-0.004898	0.000575	6618.970666	39308.088705	4034.810233	21558.696077
42.534500	-0.002235	0.000333	0.000032	0.000680	6629.655342	39379.871234	4045.088592	21554.270344
43.037000	-0.000422	0.000136	0.000550	0.001030	6641.395581	39334.328695	4045.445847	21539.422635
43.537000	-0.000998	0.000074	0.000935	0.000453	6641.409366	39377.216405	4047.509520	21563.876683
44.035000	0.002376	0.000591	0.000593	-0.003395	6699.991535	39742.868330	4055.069428	21727.858910
44.535500	-0.002475	0.000034	-0.005537	-0.000732	6639.055053	39472.727192	4036.224981	21614.212167
45.036000	0.001858	0.000400	0.004003	0.000301	6665.696931	39417.076042	4054.450043	21570.355449
45.536000	-0.000286	0.000272	0.002615	-0.000142	6651.932378	39443.384935	4052.406958	21589.136111
46.036000	0.000262	-0.000636	0.002931	-0.000863	6662.191351	39427.752266	4054.647640	21619.783637
46.536500	-0.001101	-0.000362	-0.004147	-0.000669	6649.613343	39434.433173	4039.044184	21611.532130
47.037000	-0.002469	-0.000876	0.003414	-0.000711	6638.935040	39395.065361	4055.363870	21613.325057
47.534000	-0.000747	0.000220	0.002236	0.001360	6636.135508	39313.830439	4048.355576	21525.436442
48.037500	-0.001004	-0.000090	-0.001764	0.000155	6643.755378	39388.354681	4042.367818	21576.516834
48.535000	-0.001805	0.000426	0.000838	0.000574	6633.950666	39396.521793	4047.042648	21558.772812
49.035500	-0.000967	0.000595	0.001705	0.000433	6641.817332	39422.328661	4049.207968	21564.716746
49.535500	0.001529	0.000518	0.005247	-0.001912	6680.985487	39612.028810	4061.956382	21664.477074
50.035500	0.000021	0.000252	0.006881	-0.000282	6655.545668	39453.343087	4061.965403	21595.073904
50.536000	0.001594	0.000417	-0.001164	0.012499	6566.172794	38414.789331	4017.626140	21059.853414
51.036500	-0.050589	-0.009535	0.003152	-0.001012	6274.931956	38704.770345	4055.449749	21626.147373
51.536500	-0.038001	-0.004393	-0.004155	-0.074280	6958.514343	45734.268812	4209.702563	25023.530758
52.037000	-0.036148	-0.075097	-0.010474	-0.308316	9707.782980	65163.771228	4964.321468	40651.107591
52.534500	-0.025132	-0.121577	0.001832	-0.357389	10681.232897	65535.000000	5245.057877	45138.529608
53.037500	-0.022499	-0.103328	0.001420	-0.339141	10415.181525	65535.000000	5155.475354	43410.355517
53.534500	-0.016042	-0.080135	0.008423	-0.315878	10139.317537	65525.027895	5080.491312	41309.963464
54.035500	0.003033	-0.042682	0.015155	-0.266569	9669.145867	63846.075996	4896.947015	37213.160757
54.535500	0.014047	-0.022708	0.022332	-0.234921	9366.534860	62237.057704	4799.317863	34818.407889
55.035500	0.031231	-0.010193	0.034055	-0.216177	9344.240432	61395.981447	4772.307927	33480.227366
55.536000	0.048191	0.007156	0.046926	-0.173395	8986.546214	58084.670910	4662.006239	30633.847507
56.036500	0.057895	0.019782	0.058654	-0.118505	8409.566713	52993.090417	4515.650758	27369.436052
56.536500	0.077942	0.034504	0.082959	-0.066394	8035.074807	48884.008047	4428.783294	24629.708286
57.037000	0.097647	0.044800	0.095582	-0.029068	7840.746326	46126.108083	4356.141823	22859.857822
57.540000	0.118552	0.059522	0.115029	0.042700	7322.071516	40839.681117	4215.272750	19856.004373
58.037500	0.139110	0.071840	0.134427	0.079130	7172.261482	38805.707777	4172.957775	18510.929245
58.535000	0.158313	0.083103	0.153967	0.123332	6947.138541	36203.589315	4114.553848	17023.399908
59.035500	0.172196	0.093751	0.172733	0.159105	6760.378397	34347.230563	4076.168914	15925.600174
59.536000	0.188405	0.102144	0.188727	0.192436	6620.710733	32607.920607	4038.554090	14980.975784
60.035500	0.196487	0.109607	0.199319	0.217382	6488.433782	31446.731338	4008.527802	14319.941744
60.536000	0.209656	0.117178	0.212045	0.239660	6419.092874	30505.526066	3989.090409	13760.870624
61.036500	0.218989	0.122975	0.217758	0.259233	6342.862945	29652.320303	3961.635910	13292.803151
61.538000	0.224497	0.128855	0.222747	0.263782	6349.925587	29733.597486	3962.493328	13186.993008
62.040000	0.228567	0.129237	0.235934	0.245463	6519.344056	30902.035128	4026.261496	13619.895144
62.537000	0.232686	0.133306	0.237837	0.251342	6505.708114	30786.725425	4017.957918	13478.983255
63.035000	0.239068	0.134051	0.238821	0.256540	6514.870022	30505.126216	4009.236906	13355.957760
63.540500	0.242387	0.135970	0.243021	0.263454	6487.110525	30192.576503	4003.665980	13194.590382
64.036000	0.243123	0.137718	0.244221	0.270375	6439.888299	29872.720336	3992.036133	13035.606985
64.536000	0.253150	0.142523	0.250233	0.282061	6427.342603	29453.150787	3980.652874	12772.878058
65.036000	0.255604	0.145892	0.251017	0.289979	6386.333292	29179.329148	3966.549133	12598.818158
65.536500	0.258110	0.147804	0.261068	0.295388	6364.758745	28970.846822	3975.699457	12481.745410
66.036500	0.258732	0.148031	0.255204	0.298368	6347.340339	28807.895334	3958.349991	12417.861706
66.539500	0.262165	0.150356	0.265547	0.304360	6328.541263	28592.396337	3966.842748	12290.723346
67.037000	0.261666	0.151679	0.267707	0.309240	6289.385312	28385.119585	3961.523814	12188.462686
67.540500	0.264471	0.152641	0.268988	0.314190	6273.904952	28154.682225	3954.402529	12085.905793
68.037500	0.267710	0.154092	0.269412	0.318308	6267.588477	28001.801866	3947.293483	12001.475338
68.535000	0.267823	0.154861	0.271406	0.322215	6240.452910	27823.120480	3943.635574	11922.108534
69.035500	0.266810	0.157023	0.272269	0.328330	6190.102239	27599.765726	3933.674121	11799.295465
69.536000	0.270971	0.156728	0.272500	0.328154	6220.633797	27593.090751	3934.441683	11802.810600
70.036000	0.271431	0.158117	0.271548	0.330785	6205.318511	27523.424808	3927.709050	11750.492057
70.536500	0.270815	0.157613	0.274221	0.332965	6185.691398	27373.363910	3928.631226	11707.365069
71.037000	0.269830	0.159512	0.279297	0.338418	6140.988212	27176.182019	3927.926254	11600.457162
71.537000	0.274123	0.160914	0.279660	0.339304	6164.563652	27204.733859	3926.946824	11583.218286
72.034500	0.277141	0.162183	0.281273	0.341074	6173.240172	27177.001128	3926.653054	11548.865095
72.537500	0.274377	0.162803	0.279651	0.342461	6144.463948	27134.712452	3921.049215	11522.054441
73.035500	0.276271	0.161626	0.284839	0.344594	6142.813162	26952.771417	3926.739002	11480.978202
73.536000	0.276177	0.162894	0.284011	0.343655	6148.650425	27073.961942	3926.948701	11499.045379
74.035500	0.277794	0.162873	0.285209	0.344224	6155.897459	27041.465816	3928.124453	11488.092511
74.536500	0.279995	0.163219	0.284206	0.343961	6173.016697	27074.983495	3926.740207	11493.151502
75.036500	0.275992	0.164075	0.285024	0.348636	6113.155887	26865.730801	3919.561670	11403.701038
75.536500	0.280064	0.164580	0.286633	0.346670	6154.677713	27000.936979	3926.213380	11441.203613
76.036500	0.281178	0.165279	0.283146	0.347176	6158.890030	27011.516065	3918.788634	11431.537954
76.537000	0.281329	0.165233	0.282667	0.347750	6155.959763	26977.512787	3916.842393	11420.586437
77.034500	0.282640	0.166664	0.280755	0.349957	6149.765673	26935.028589	3909.274291	11378.614999
77.538000	0.282651	0.166037	0.289598	0.351046	6142.318337	26841.340722	3923.582617	11357.976078
78.035500	0.285595	0.168434	0.290047	0.352968	6149.368775	26867.216841	3920.844561	11321.678056
78.538500	0.282436	0.166731	0.281395	0.352580	6130.285600	26795.653107	3905.654786	11328.996733
79.036000	0.282338	0.165833	0.288302	0.353499	6123.308929	26697.041681	3916.631869	11311.684398
79.538500	0.282241	0.166310	0.287175	0.354650	6114.764923	26660.522864	3912.437975	11290.044245
80.036500	0.280906	0.166835	0.286603	0.355597	6099.214255	26637.754121	3909.653338	11272.301186
80.539500	0.280940	0.165080	0.290016	0.354953	6103.822482	26577.785624	3917.110842	11284.357623
81.037000	0.280309	0.166970	0.280200	0.356112	6091.670869	26617.250428	3897.095600	11262.659233
81.537500	0.282721	0.166658	0.288768	0.356955	6102.324764	26554.992949	3911.131639	11246.906792
82.035000	0.278647	0.165731	0.285965	0.355948	6081.526721	26559.280230	3907.844962	11265.720296
82.534500	0.280463	0.166531	0.289756	0.356978	6086.850679	26546.918563	3912.902592	11246.483858
83.035500	0.284742	0.168611	0.286297	0.358685	6104.302881	26566.930285	3903.466244	11214.662581
83.535500	0.281988	0.167822	0.290584	0.358487	6086.956907	26535.174386	3911.652011	11218.358530
84.036000	0.282634	0.167621	0.284784	0.358925	6088.356501	26500.800556	3900.291061	11210.200692
84.536500	0.283869	0.167511	0.283720	0.358629	6098.746307	26510.785039	3898.903821	11215.707974
85.039500	0.279395	0.167321	0.282810	0.364291	6030.665660	26198.513795	3887.130084	11111.098170
85.536500	0.282416	0.168364	0.288137	0.360453	6076.560332	26458.687387	3903.597723	11181.854934
86.037000	0.278652	0.167259	0.288702	0.360070	6053.854924	26420.051892	3905.322922	11188.966898
86.534500	0.281695	0.167159	0.290545	0.360074	6074.256662	26414.497201	3908.675338	11188.884840
87.035000	0.282140	0.167981	0.295248	0.361619	6066.854881	26375.797326	3914.466480	11160.293922
87.535000	0.284083	0.167687	0.290765	0.362061	6076.961380	26336.556169	3905.451543	11152.134342
88.035500	0.284443	0.169876	0.291620	0.363182	6071.836636	26393.601403	3904.969867	11131.492473
88.541500	0.280604	0.168057	0.292208	0.362187	6052.750250	26349.585407	3907.853311	11149.821354
89.039000	0.282535	0.168171	0.295164	0.362907	6060.860153	26317.275006	3911.946229	11136.549838
89.536500	0.280270	0.167566	0.293430	0.362779	6046.560804	26291.857660	3909.004568	11138.903137
90.037000	0.279803	0.167007	0.293043	0.362588	6044.711693	26272.245239	3908.644680	11142.414240
90.536500	0.279233	0.166489	0.295078	0.362608	6040.783326	26243.667525	3912.336999	11142.051468
91.034500	0.279324	0.167602	0.296315	0.363902	6032.780935	26234.086756	3912.231737	11118.239249
91.537500	0.283015	0.168721	0.291837	0.365635	6045.814440	26201.494664	3900.911738	11086.469625
92.035000	0.278422	0.167171	0.296699	0.364722	6021.358788	26167.732721	3911.430969	11103.186271
92.535000	0.280933	0.166982	0.289940	0.364465	6039.736953	26171.360872	3899.597742	11107.910795
93.036000	0.280833	0.166553	0.290478	0.364468	6039.053239	26148.490175	3900.565070	11107.851748
93.538000	0.280125	0.167879	0.297833	0.365064	6030.380771	26187.164617	3912.885085	11096.922373
94.049500	0.278546	0.165905	0.300585	0.364688	6022.409953	26102.664699	3918.654814	11103.823410
94.538000	0.278522	0.167545	0.294521	0.366033	6013.362524	26118.258018	3905.060101	11079.192100
95.034000	0.277425	0.166691	0.294574	0.365883	6007.116555	26081.056121	3905.428476	11081.926127
95.542500	0.280519	0.167672	0.298896	0.367142	6019.230865	26066.457420	3911.024122	11058.944798
96.034000	0.279714	0.167134	0.292778	0.366632	6017.275772	26064.937744	3900.810607	11068.247442
