sample name	sample
index	434
start time	 03-08-2021  12:18:08 PM
880	0.510869
Peak Time (s)	91.537
Peak Height 	0.5109
calc peak height	90,93
Baseline Time (s)	11.537
Baseline Value 	-0.00336
subtract baseline	10,4
Abs	0.335255
Peak Time (s)	90.035
Peak Height 	0.3353
calc peak height	90,93
Baseline Time (s)	8.536
Baseline Value 	0.001986
subtract baseline	10,3
PK_550	0.157221
Peak Time (s)	90.536
Peak Height 	0.1572
calc peak height	90,93
Baseline Time (s)	9.036
Baseline Value 	4.3308E-4
subtract baseline	10,2
PK_880	0.322231
Peak Time (s)	92.54
Peak Height 	0.3222
calc peak height	90,93
Baseline Time (s)	9.036
Baseline Value 	0.001704
subtract baseline	10,1


Time (s)	A880-A510	A880-A775	A880-A975	A880	I510	I775	I975	I880	
0.039000	-0.005418	-0.000509	-0.004012	0.006936	6858.471813	46384.312819	3978.551864	24442.308627
0.536500	-0.002372	-0.000827	-0.005676	0.004420	6909.752499	46604.888928	3980.766088	24567.627321
1.036000	-0.003498	-0.000800	-0.008889	0.003194	6910.685775	46731.227042	3975.610117	24628.981244
1.537500	0.000821	-0.000112	-0.005725	0.001111	6970.540607	47011.818102	3989.279744	24733.585694
2.037000	-0.002105	-0.000218	-0.000225	0.002811	6927.197290	46828.707271	3999.281460	24648.172681
2.537500	0.000007	-0.000427	-0.000132	0.000731	6966.450625	47018.281589	4005.040981	24752.692758
3.038000	-0.001394	-0.000170	0.000369	-0.001297	6972.360419	47251.043271	4011.779621	24855.122378
3.538500	-0.001910	-0.000489	-0.002682	0.000908	6946.801328	46994.177741	3997.817739	24743.813079
4.036000	-0.002358	-0.001409	-0.000186	-0.000017	6951.268742	46994.613444	4006.886762	24790.450592
4.536000	0.000228	-0.000030	-0.000814	0.000713	6968.708295	47060.578285	4003.279788	24753.641199
5.036000	0.001387	-0.000340	-0.002393	0.000290	6983.621692	47071.967015	4000.214756	24774.929204
5.536500	-0.000943	-0.000506	-0.001322	0.000103	6963.425494	47074.198079	4003.549218	24784.377284
6.036500	-0.001743	-0.000660	-0.000856	-0.000010	6956.964499	47070.005538	4005.084325	24790.055183
6.537000	-0.001607	-0.000546	0.001128	-0.000174	6959.787006	47098.238535	4010.807628	24798.350972
7.037500	-0.000077	-0.000117	-0.000319	0.000565	6967.224559	47066.730051	4004.984175	24761.058777
7.536000	-0.001493	-0.000770	0.000641	-0.000216	6961.251423	47079.750573	4009.619706	24800.456493
8.035500	-0.001086	0.000188	0.000663	0.000616	6957.257293	47092.553985	4007.462046	24758.487606
8.535500	0.000360	0.000226	0.000000	0.000465	6972.283046	47111.835441	4006.099593	24766.124000
9.035500	0.000000	0.000000	-0.001113	0.000149	6971.871621	47121.022421	4003.981525	24782.073469
9.536000	0.000020	0.000239	-0.002097	0.000071	6972.797635	47153.329214	4001.578345	24786.002992
10.036500	0.000576	-0.000625	0.001270	-0.000514	6983.554299	47124.835345	4012.095476	24815.521111
10.539500	-0.001771	-0.000539	-0.000674	-0.000681	6963.016243	47150.611854	4007.356870	24823.985470
11.037000	-0.000519	-0.000120	0.002222	-0.000053	6968.890414	47129.419936	4013.409696	24792.271044
11.537500	-0.001268	0.000165	0.002032	0.000000	6961.334330	47153.002790	4012.760100	24789.574616
12.035000	0.001058	-0.000308	-0.001520	-0.000157	6984.747168	47120.855849	4003.715486	24797.515149
12.538000	-0.001436	-0.000935	-0.000212	-0.000771	6967.012053	47119.496757	4008.825703	24828.523462
13.035500	-0.000459	-0.000162	-0.000910	-0.000151	6970.370395	47135.057025	4005.318071	24797.183691
13.536000	-0.001158	-0.000325	-0.004365	0.002755	6936.555942	46823.634426	3988.536453	24650.995206
14.036000	-0.002660	0.000353	-0.002122	0.003150	6918.877302	46852.153106	3993.385434	24631.175590
14.543000	-0.000710	-0.000050	-0.001940	0.002012	6947.701106	46926.613224	3996.863029	24688.272777
15.036500	-0.000064	0.000234	0.000325	-0.000334	6975.818319	47194.088052	4009.093481	24806.455233
15.537000	-0.001898	0.000645	0.001712	0.003303	6924.545044	46866.227225	4003.109165	24623.496912
16.034000	0.001874	-0.000049	0.000562	0.000036	6990.638187	47127.493341	4008.739445	24787.761449
16.534500	0.000376	-0.000037	-0.000071	-0.000230	6978.985450	47155.794161	4007.759879	24801.186398
17.037500	0.002400	0.000099	0.002036	-0.002810	7022.674627	47433.529103	4020.311230	24931.874064
17.535000	-0.002026	0.000255	-0.004444	0.001874	6936.678277	46971.570114	3990.636928	24695.202301
18.035500	-0.000373	-0.000252	-0.001294	0.001159	6958.858868	46992.598628	4000.824313	24731.139957
18.535500	-0.001295	0.000317	-0.001419	0.001672	6945.405045	46998.309216	3999.136761	24705.345787
19.036000	0.000822	0.000529	0.001312	0.001653	6965.448226	47021.828349	4006.430253	24706.313032
19.536500	-0.001116	0.000090	-0.001424	0.001997	6944.041076	46942.377912	3998.265073	24689.040916
20.036500	-0.001364	0.000226	0.000831	0.001589	6945.531333	46997.598890	4005.320842	24709.533316
20.536500	0.000105	-0.000387	0.000960	0.001065	6964.227640	46988.478195	4007.056937	24735.881329
21.037000	0.001201	0.000551	0.001777	0.001638	6969.153613	47025.635523	4007.705931	24707.064415
21.535000	-0.000172	0.000242	0.000505	0.002638	6946.868375	46892.784978	4001.670077	24656.823543
22.037500	-0.000956	0.000148	-0.000139	0.001397	6951.153422	47009.153972	4003.254174	24719.199603
22.535000	0.000758	0.001094	-0.003813	0.002101	6960.635300	47033.660178	3991.698261	24683.781735
23.035500	0.000524	-0.000390	0.001522	0.001301	6965.957133	46964.291143	4007.926215	24724.024326
23.535500	-0.002441	-0.000539	-0.007634	0.001388	6937.344699	46940.354308	3983.563429	24719.631680
24.036500	-0.000657	-0.000778	0.001990	0.001068	6957.042465	46948.561392	4009.793926	24735.744791
24.536500	-0.000179	-0.000208	0.002716	0.001543	6957.075421	46958.176512	4010.465246	24711.842967
25.037000	0.000211	0.000310	0.002139	0.001661	6959.621932	46998.767917	4008.608277	24705.882728
25.537000	-0.002057	0.000537	-0.004296	0.002039	6934.847299	46983.502323	3990.594479	24686.922519
26.037000	-0.001167	0.000131	0.004482	0.001772	6945.664687	46969.335296	4014.575670	24700.335348
26.537000	-0.001433	0.000012	0.002007	0.001313	6947.467255	47003.833731	4009.184766	24723.389685
27.035000	0.001144	-0.001240	0.000398	-0.001820	7001.308189	47195.341839	4013.259127	24881.643115
27.536000	-0.000314	0.000138	-0.000415	-0.000606	6976.027762	47212.031803	4007.844932	24820.192485
28.036000	0.000569	0.000492	0.004305	0.000085	6977.840805	47177.664710	4018.626002	24785.285810
28.536000	0.001879	0.000057	-0.001027	-0.000042	6991.418445	47146.292494	4004.716932	24791.709525
29.036000	0.000409	0.000285	0.001637	0.000039	6976.756635	47161.191014	4011.598170	24787.589084
29.536000	-0.002105	0.000403	0.002336	0.005264	6904.407394	46643.850664	3999.567794	24525.520758
30.036500	0.000897	-0.000081	0.003100	-0.000274	6984.321415	47155.799306	4016.352338	24803.384966
30.539500	-0.000453	0.000212	0.002466	0.002874	6942.041516	46865.876704	4006.253088	24645.029436
31.035000	0.000016	0.000128	-0.001160	0.002204	6952.699512	46925.206524	3998.414885	24678.601733
31.538000	-0.000912	0.001083	-0.000473	0.004730	6920.442067	46766.249657	3993.568003	24552.166776
32.037000	0.000788	0.000167	0.000174	-0.000408	6984.561589	47194.725025	4008.887690	24810.170491
32.535000	0.000607	0.000449	-0.000583	0.000262	6976.533309	47155.278038	4005.091090	24776.379056
33.036000	-0.000598	0.001041	0.006956	0.000317	6964.657543	47209.952332	4025.149539	24773.591092
33.536500	0.000114	-0.000105	0.000493	0.003434	6942.102436	46777.219896	3999.533831	24616.974199
34.036500	0.001272	0.000489	0.003671	0.001872	6967.622544	46995.510923	4012.135068	24695.298016
34.536500	0.001369	0.001020	0.000263	0.002802	6959.786363	46955.023010	4000.597022	24648.622629
35.036500	-0.001377	0.000677	0.001965	0.002297	6938.787722	46971.413924	4006.451667	24673.946726
35.537000	0.000653	0.000786	-0.001712	0.002651	6954.483305	46946.575251	3995.779301	24656.185290
36.040000	-0.000608	0.000487	0.006489	0.002284	6946.105015	46953.523146	4018.587908	24674.625168
36.535500	0.000367	-0.000116	0.002123	0.002064	6957.308184	46914.751585	4007.495854	24685.673660
37.035500	-0.000949	0.000695	0.002094	0.002684	6939.176962	46934.111135	4005.767815	24654.559582
37.536000	-0.000628	-0.000281	0.000272	0.002679	6942.218250	46835.676480	4000.945343	24654.784014
38.036000	0.000544	0.000504	-0.001770	0.002454	6955.314899	46938.000415	3996.146557	24666.089007
38.536500	0.000925	0.000898	0.001417	0.002721	6956.380441	46950.931782	4003.871615	24652.689049
39.036500	0.000163	-0.000204	0.001433	0.001571	6960.018830	46955.676628	4006.967684	24710.420542
39.537000	-0.001409	0.000561	-0.000489	0.003261	6929.489891	46861.960855	3997.395709	24625.613926
40.037000	0.000949	-0.000207	-0.000753	0.002382	6959.781966	46873.260942	3999.020447	24669.674646
40.535000	0.000917	0.000002	0.002422	0.002251	6960.723247	46907.641603	4007.791655	24676.265793
41.035000	-0.000690	-0.000064	0.000358	0.002266	6945.503467	46899.407053	4002.266259	24675.501113
41.535500	-0.001365	-0.000034	0.002607	0.003125	6931.168741	46815.519225	4005.958044	24632.403727
42.035500	0.000311	-0.000763	-0.000963	0.001684	6960.349916	46887.561509	4000.310551	24704.741863
42.536000	-0.000191	0.000600	0.001597	0.002429	6948.653701	46950.300705	4005.123693	24667.340540
43.038500	-0.002534	-0.000563	-0.001210	0.001873	6931.945837	46888.745807	3999.157573	24695.234157
43.536500	-0.001402	-0.000099	-0.002401	0.002797	6933.886206	46842.139582	3993.580552	24648.856356
44.039500	0.001189	-0.000374	0.002870	-0.003198	7014.833308	47424.764752	4023.605102	24951.561054
44.536000	0.002618	-0.000014	0.004685	0.000304	6995.138506	47103.753162	4019.060718	24774.245499
45.037000	-0.000157	-0.000597	0.000903	-0.000234	6973.996728	47099.275689	4010.369073	24801.400274
45.538000	-0.000293	0.000773	0.002939	0.003808	6934.804462	46828.093699	4005.027072	24598.249338
46.035000	0.001093	0.000739	0.001556	0.000986	6974.277023	47110.962534	4008.855380	24739.855220
46.535500	0.000257	0.000289	0.000549	0.000270	6973.146804	47138.080466	4008.079418	24775.953327
47.035500	0.003017	0.000839	0.002514	0.002163	6981.331364	47001.577416	4008.272350	24680.700553
47.535500	-0.000264	0.000125	-0.002409	0.004810	6925.724523	46661.508603	3988.276043	24548.146441
48.036500	0.001866	0.000745	0.006031	0.000846	6982.897364	47125.880061	4021.222131	24746.907589
48.537000	0.000044	-0.000059	0.000095	0.000129	6972.473120	47117.066692	4007.247924	24783.087097
49.039500	0.000205	0.000187	-0.002120	0.000368	6971.728930	47117.708902	4000.730016	24770.989271
49.537500	-0.002078	-0.000279	0.003323	0.004896	6908.064657	46612.238102	4003.157019	24543.882213
50.034500	0.001548	0.000427	0.006204	0.000132	6986.642723	47166.157932	4023.614948	24782.902915
50.535000	0.002157	0.000655	0.002592	0.001605	6978.477334	47039.544864	4009.968319	24708.723209
51.035500	-0.011883	-0.010380	-0.000502	0.211978	5324.562654	29410.851857	3559.958000	16324.635193
51.535500	-0.042509	-0.025230	-0.017650	0.015378	6462.467517	43187.555937	3922.663144	24027.067760
52.035500	-0.031808	-0.023332	-0.009813	-0.075796	7409.605703	52816.158525	4197.059101	28968.999935
52.536500	-0.006440	-0.032827	0.020052	-0.146940	8536.843874	60429.313382	4549.510089	33614.263668
53.036000	0.004174	-0.014845	0.033982	-0.069479	7729.827563	53066.149548	4318.372971	28592.153290
53.536500	0.018783	0.000094	0.043462	-0.026145	7419.417777	49891.238605	4208.337116	26149.623306
54.036500	0.058783	0.019236	0.070449	-0.021130	7800.237028	51444.836716	4278.771196	25882.346008
54.537000	0.091072	0.038536	0.097808	0.023549	7661.839853	48689.245967	4222.951675	23632.726943
55.042000	0.128169	0.059005	0.126779	0.071793	7540.666909	45852.569510	4163.402343	21449.923358
55.535000	0.153356	0.077238	0.152928	0.118164	7318.778887	43157.970824	4103.699137	19568.480797
56.034500	0.183897	0.093795	0.180571	0.164850	7156.792635	40459.830872	4049.957335	17866.674753
56.535500	0.203677	0.105754	0.200453	0.212280	6892.979219	37514.100042	3976.270988	16315.267875
57.035500	0.214856	0.113506	0.216652	0.260673	6563.433491	34421.991690	3895.878673	14897.698467
57.536000	0.230678	0.124351	0.235624	0.304721	6331.640309	32101.892484	3837.261518	13737.753994
58.036000	0.242658	0.130197	0.247139	0.334231	6195.087700	30553.357531	3797.233961	13023.926525
58.536500	0.250235	0.137088	0.259966	0.356299	6086.293846	29603.703035	3777.313085	12520.932557
59.037000	0.261859	0.141181	0.271459	0.381437	5988.050722	28340.541653	3748.664053	11978.242929
59.540500	0.264887	0.146423	0.275655	0.411029	5803.641432	26953.440453	3697.682169	11378.401939
60.034000	0.273742	0.151045	0.289762	0.419093	5808.964501	26763.547310	3709.541631	11221.887858
60.535000	0.281267	0.156364	0.293648	0.425434	5816.964718	26707.501912	3704.705335	11100.863567
61.034500	0.285732	0.159379	0.292184	0.419701	5886.748375	27191.864712	3713.136416	11210.208726
61.535500	0.288889	0.161537	0.301114	0.417317	5925.354114	27447.277307	3735.888888	11256.114500
62.038500	0.291108	0.163955	0.289770	0.424033	5893.981427	27205.518948	3699.848694	11127.445307
62.536000	0.292187	0.165246	0.299299	0.433785	5834.382679	26736.575955	3699.412394	10944.120814
63.036500	0.290835	0.165852	0.305206	0.441141	5775.739689	26368.998351	3696.587407	10808.547996
63.539500	0.291143	0.164025	0.295849	0.449318	5723.739961	25834.623669	3663.131551	10660.509890
64.045500	0.294842	0.166247	0.311356	0.450222	5742.101328	25904.284246	3690.901148	10644.304432
64.537500	0.294291	0.166254	0.306399	0.454196	5712.431799	25695.079801	3673.805793	10573.496739
65.035000	0.296596	0.167691	0.306302	0.459672	5691.821755	25484.073513	3663.315325	10476.990684
65.535500	0.290974	0.166355	0.304834	0.468417	5600.329605	24965.935440	3644.437587	10325.384651
66.035500	0.297031	0.166971	0.303740	0.463830	5667.824959	25231.847030	3650.844896	10404.522632
66.535500	0.298769	0.166514	0.304971	0.464913	5672.031101	25152.816256	3651.117252	10385.758788
67.036500	0.299055	0.166871	0.311041	0.465661	5669.064222	25132.801623	3660.981861	10372.834975
67.537000	0.296831	0.166673	0.311833	0.473541	5604.922219	24723.095451	3647.871148	10237.956960
68.037000	0.298872	0.166154	0.311069	0.466221	5664.294676	25067.533960	3659.989057	10363.166551
68.537000	0.302803	0.166740	0.310308	0.467012	5684.501794	25057.075304	3657.105613	10349.545560
69.040000	0.301476	0.166261	0.306495	0.466964	5676.254239	25035.082860	3650.146620	10350.365077
69.535000	0.297290	0.166811	0.309700	0.472487	5614.431963	24783.098646	3645.893286	10255.856889
70.035000	0.300645	0.165449	0.307629	0.466684	5672.706119	25007.998217	3652.753714	10355.188387
70.534500	0.304983	0.168166	0.313694	0.468996	5685.767540	25028.576637	3659.709712	10315.446855
71.036000	0.302599	0.167395	0.320744	0.467891	5677.518206	25045.654201	3675.038712	10334.421176
71.535500	0.300287	0.167276	0.312126	0.474234	5622.310832	24718.561946	3647.137102	10226.206295
72.039000	0.304544	0.167008	0.317338	0.468593	5685.538532	24990.182513	3667.282703	10322.368046
72.536500	0.310126	0.168181	0.317242	0.470462	5709.624609	24954.810604	3663.597373	10290.374892
73.036500	0.309837	0.169150	0.323021	0.472155	5696.734536	24918.037543	3671.276900	10261.494118
73.537000	0.304418	0.166777	0.316367	0.476834	5631.994592	24563.422434	3650.149099	10182.303407
74.034000	0.307472	0.167784	0.317578	0.472062	5682.036708	24853.635243	3661.235127	10263.079759
74.537500	0.308542	0.165116	0.318297	0.470771	5697.316864	24784.135452	3664.994460	10285.094386
75.034500	0.310737	0.166714	0.324703	0.472541	5700.075684	24775.478035	3673.730052	10254.943130
75.535500	0.306113	0.164763	0.315072	0.477803	5636.600350	24415.150947	3645.994641	10166.009031
76.035500	0.313221	0.165809	0.322959	0.474026	5706.572253	24655.435498	3667.635827	10229.736646
76.536000	0.311655	0.165718	0.321186	0.473756	5698.142727	24664.388413	3664.812493	10234.301712
77.036500	0.312669	0.164971	0.324524	0.474257	5701.480169	24601.940540	3670.147660	10225.822405
77.536500	0.311491	0.164483	0.321601	0.474963	5689.265016	24542.322948	3663.330577	10213.868724
78.037000	0.311027	0.163667	0.327299	0.475271	5684.273873	24486.396021	3673.474755	10208.669888
78.539500	0.312510	0.163318	0.326893	0.475515	5692.286887	24456.957961	3672.244228	10204.544092
79.035000	0.314338	0.163349	0.320278	0.477103	5693.841523	24379.802585	3656.879923	10177.776392
79.535500	0.315352	0.163439	0.327134	0.479099	5687.491500	24285.765221	3665.948275	10144.288622
80.035000	0.314859	0.162087	0.322984	0.478636	5687.292581	24242.008138	3659.058532	10152.034204
80.535500	0.312097	0.161664	0.327753	0.479392	5664.644834	24184.192153	3666.560672	10139.378922
81.036000	0.311852	0.162431	0.324427	0.480445	5656.329984	24170.132756	3658.379036	10121.772943
81.536500	0.314649	0.160618	0.323011	0.481727	5666.032964	24019.091925	3653.378591	10100.397227
82.036000	0.314589	0.161162	0.324947	0.483873	5651.918057	23941.400815	3652.991281	10064.779658
82.537000	0.313676	0.160219	0.324546	0.484029	5645.105076	23888.201922	3651.963327	10062.190798
83.039500	0.316521	0.160011	0.326817	0.485440	5654.246627	23810.093292	3653.549816	10038.855480
83.537500	0.314866	0.159840	0.331158	0.489182	5619.985819	23622.562703	3654.657574	9977.370679
84.035000	0.314581	0.159695	0.328656	0.488320	5623.625986	23656.779099	3651.630412	9991.490011
84.535000	0.318008	0.159975	0.322204	0.489949	5635.007075	23592.394835	3636.870913	9964.831688
85.035500	0.315636	0.159316	0.329188	0.490802	5614.631227	23520.506397	3648.043958	9950.918947
85.536000	0.317320	0.159215	0.325129	0.493348	5609.205537	23395.215617	3636.013805	9909.537508
86.039000	0.316332	0.157676	0.331474	0.492708	5607.021634	23352.850292	3648.742010	9919.918754
86.542000	0.316127	0.156955	0.331309	0.493439	5601.152700	23284.560690	3647.097355	9908.066928
87.036500	0.319505	0.157398	0.330069	0.495125	5611.774826	23226.319622	3641.753254	9880.801575
87.537000	0.316689	0.157081	0.329661	0.502464	5548.630972	22871.132799	3627.773332	9763.346892
88.037500	0.317261	0.157832	0.334512	0.497797	5581.025130	23121.836254	3644.983349	9837.807335
88.535000	0.317975	0.156636	0.332717	0.498182	5583.069800	23048.359274	3641.007261	9831.635151
89.035500	0.319606	0.157363	0.327680	0.499956	5582.183116	22999.872213	3628.717077	9803.263403
89.535000	0.320072	0.157910	0.334590	0.502104	5571.737872	22925.896962	3637.290154	9769.064317
90.035500	0.319482	0.157032	0.335255	0.502410	5566.181151	22871.320832	3637.938924	9764.191493
90.536000	0.317008	0.157221	0.334605	0.502715	5549.048572	22866.010259	3636.209594	9759.352182
91.036000	0.321398	0.156530	0.335212	0.504143	5567.317990	22768.867404	3634.727833	9736.746892
91.536500	0.316798	0.155759	0.331403	0.510869	5498.137807	22428.832978	3615.946560	9631.244744
92.036500	0.318010	0.154925	0.329559	0.505350	5539.029922	22640.628201	3622.446738	9717.695536
92.539500	0.322231	0.155480	0.333519	0.506241	5559.500486	22625.351877	3627.918341	9703.667857
93.034500	0.320894	0.155452	0.330476	0.507472	5543.705691	22568.258687	3620.310784	9684.330075
93.534500	0.318100	0.153694	0.332860	0.513228	5491.772664	22230.904085	3614.360363	9594.629341
94.035000	0.322586	0.154864	0.336380	0.510029	5538.405202	22426.355251	3626.261894	9644.334210
94.535500	0.323887	0.155017	0.333648	0.510922	5540.901761	22393.100331	3619.816870	9630.420025
95.036000	0.323153	0.154397	0.333480	0.510561	5538.617658	22381.507675	3620.159544	9636.045072
95.536000	0.322843	0.152752	0.335903	0.515385	5507.367602	22093.461331	3615.919741	9561.315586
96.036000	0.323140	0.152768	0.332956	0.511729	5531.391968	22256.411666	3617.167998	9617.862475
