sample name	sample
index	919
start time	 04-12-2021  11:28:12 AM


Wavelength (nm)	Absorbance
494.344910	NaN
494.563924	NaN
494.782919	NaN
495.001897	-0.228812
495.220856	0.042324
495.439797	0.020104
495.658719	-0.049829
495.877624	-0.075426
496.096510	-0.073609
496.315378	-0.028959
496.534227	0.059068
496.753059	-0.023536
496.971872	-0.022907
497.190667	0.168969
497.409444	0.175197
497.628203	0.174713
497.846943	0.177511
498.065665	0.177040
498.284369	0.177339
498.503055	0.175657
498.721723	0.177269
498.940372	0.177087
499.159003	0.176389
499.377616	0.175533
499.596210	0.176566
499.814787	0.176599
500.033345	0.177574
500.251885	0.177567
500.470406	0.178406
500.688910	0.178195
500.907395	0.178657
501.125862	0.179480
501.344311	0.179920
501.562742	0.180150
501.781154	0.180990
501.999548	0.180886
502.217924	0.180096
502.436282	0.179467
502.654621	0.179406
502.872942	0.178734
503.091245	0.179397
503.309530	0.180355
503.527797	0.179625
503.746045	0.178795
503.964275	0.179774
504.182487	0.180492
504.400681	0.181850
504.618856	0.180881
504.837013	0.182595
505.055152	0.182478
505.273273	0.182357
505.491376	0.182703
505.709460	0.183623
505.927526	0.182475
506.145574	0.183100
506.363604	0.182403
506.581615	0.183687
506.799608	0.182846
507.017583	0.182820
507.235540	0.183315
507.453478	0.183340
507.671399	0.183860
507.889301	0.184325
508.107185	0.183950
508.325050	0.184381
508.542898	0.185799
508.760727	0.186071
508.978538	0.186503
509.196330	0.186871
509.414105	0.187627
509.631861	0.186936
509.849599	0.187811
510.067319	0.188617
510.285021	0.188572
510.502704	0.188436
510.720369	0.188431
510.938016	0.188842
511.155645	0.189002
511.373255	0.189524
511.590848	0.189826
511.808422	0.189722
512.025977	0.189242
512.243515	0.189942
512.461034	0.189349
512.678536	0.189368
512.896018	0.188945
513.113483	0.188625
513.330930	0.189247
513.548358	0.189840
513.765768	0.190111
513.983160	0.191057
514.200533	0.191439
514.417889	0.192052
514.635226	0.192202
514.852545	0.191923
515.069845	0.192159
515.287128	0.191651
515.504392	0.190878
515.721638	0.191044
515.938866	0.191235
516.156075	0.191971
516.373267	0.191151
516.590440	0.192183
516.807594	0.193022
517.024731	0.193401
517.241850	0.194350
517.458950	0.195249
517.676032	0.194281
517.893095	0.193916
518.110141	0.193317
518.327168	0.194737
518.544177	0.194375
518.761168	0.194984
518.978141	0.195334
519.195095	0.194905
519.412031	0.194575
519.628949	0.196270
519.845849	0.196808
520.062731	0.197184
520.279594	0.196814
520.496439	0.197249
520.713266	0.197284
520.930074	0.196890
521.146865	0.197265
521.363637	0.197938
521.580391	0.198049
521.797127	0.198550
522.013844	0.198743
522.230543	0.199109
522.447224	0.199289
522.663887	0.199539
522.880532	0.200150
523.097158	0.200756
523.313766	0.201174
523.530356	0.201413
523.746928	0.201347
523.963481	0.202275
524.180017	0.202590
524.396534	0.202866
524.613032	0.203743
524.829513	0.204861
525.045975	0.205263
525.262420	0.205755
525.478845	0.205703
525.695253	0.206040
525.911643	0.205893
526.128014	0.206598
526.344367	0.207073
526.560702	0.206904
526.777018	0.206724
526.993316	0.207236
527.209597	0.207375
527.425858	0.208341
527.642102	0.209074
527.858328	0.209788
528.074535	0.209945
528.290724	0.210362
528.506894	0.211166
528.723047	0.211920
528.939181	0.211252
529.155297	0.211721
529.371395	0.212190
529.587475	0.212417
529.803536	0.212035
530.019579	0.212787
530.235604	0.213265
530.451611	0.213396
530.667600	0.213200
530.883570	0.213824
531.099522	0.214679
531.315456	0.214589
531.531372	0.214959
531.747269	0.215458
531.963148	0.215775
532.179009	0.216566
532.394852	0.216430
532.610676	0.217772
532.826482	0.219318
533.042271	0.219383
533.258040	0.219850
533.473792	0.220083
533.689525	0.220765
533.905240	0.220753
534.120937	0.220180
534.336616	0.221221
534.552277	0.221047
534.767919	0.221190
534.983543	0.221662
535.199149	0.221533
535.414736	0.221844
535.630306	0.222107
535.845857	0.222819
536.061390	0.223403
536.276904	0.223708
536.492401	0.224230
536.707879	0.224196
536.923339	0.224508
537.138781	0.224869
537.354204	0.225760
537.569610	0.225933
537.784997	0.226187
538.000366	0.226655
538.215716	0.226938
538.431049	0.227525
538.646363	0.227219
538.861659	0.227236
539.076937	0.227576
539.292196	0.227369
539.507438	0.227955
539.722661	0.228098
539.937866	0.229062
540.153052	0.229123
540.368221	0.229314
540.583371	0.230156
540.798503	0.231304
541.013617	0.231853
541.228712	0.232630
541.443789	0.232541
541.658848	0.233097
541.873889	0.233157
542.088912	0.233267
542.303916	0.233511
542.518902	0.233666
542.733870	0.233045
542.948820	0.233622
543.163752	0.234015
543.378665	0.234671
543.593560	0.235118
543.808437	0.235890
544.023295	0.236751
544.238136	0.236706
544.452958	0.237309
544.667762	0.238132
544.882548	0.238095
545.097315	0.238113
545.312064	0.238369
545.526795	0.238858
545.741508	0.238600
545.956203	0.238454
546.170879	0.239089
546.385537	0.238990
546.600177	0.239258
546.814799	0.240118
547.029402	0.240467
547.243988	0.241265
547.458555	0.241647
547.673103	0.242114
547.887634	0.243070
548.102146	0.243464
548.316640	0.244117
548.531116	0.244746
548.745574	0.245015
548.960013	0.245542
549.174435	0.245654
549.388838	0.245313
549.603222	0.245223
549.817589	0.244818
550.031937	0.244890
550.246267	0.245319
550.460579	0.245158
550.674873	0.245519
550.889148	0.245410
551.103405	0.245646
551.317644	0.246411
551.531865	0.247099
551.746068	0.247661
551.960252	0.247888
552.174418	0.248410
552.388566	0.248779
552.602696	0.248671
552.816807	0.249438
553.030900	0.249479
553.244975	0.249252
553.459032	0.248865
553.673070	0.249007
553.887091	0.249003
554.101093	0.249306
554.315077	0.249417
554.529042	0.249752
554.742990	0.249676
554.956919	0.249972
555.170830	0.250386
555.384722	0.250593
555.598597	0.250812
555.812453	0.251436
556.026291	0.251222
556.240111	0.251264
556.453913	0.251941
556.667696	0.252183
556.881461	0.252252
557.095208	0.252252
557.308937	0.253367
557.522647	0.253579
557.736339	0.253691
557.950013	0.254093
558.163669	0.254734
558.377307	0.254560
558.590926	0.254767
558.804527	0.255113
559.018110	0.255564
559.231675	0.255328
559.445221	0.255683
559.658749	0.255710
559.872259	0.255968
560.085751	0.256039
560.299225	0.256310
560.512680	0.256647
560.726117	0.256930
560.939536	0.257182
561.152937	0.257664
561.366319	0.258049
561.579683	0.258056
561.793029	0.258033
562.006357	0.257777
562.219667	0.257692
562.432958	0.257378
562.646231	0.257962
562.859486	0.258020
563.072723	0.257944
563.285941	0.257853
563.499141	0.258258
563.712323	0.258662
563.925487	0.259880
564.138632	0.260135
564.351760	0.260695
564.564869	0.260544
564.777960	0.260756
564.991032	0.261073
565.204087	0.261671
565.417123	0.262237
565.630141	0.262545
565.843140	0.262285
566.056122	0.262685
566.269085	0.262813
566.482030	0.263159
566.694957	0.263732
566.907866	0.264057
567.120756	0.264191
567.333628	0.264453
567.546482	0.264311
567.759318	0.264828
567.972135	0.264618
568.184935	0.265129
568.397716	0.265005
568.610478	0.264824
568.823223	0.264905
569.035949	0.264997
569.248657	0.264874
569.461347	0.265072
569.674019	0.265113
569.886672	0.265688
570.099308	0.265704
570.311925	0.266271
570.524523	0.266763
570.737104	0.266897
570.949666	0.266826
571.162210	0.267037
571.374736	0.267246
571.587244	0.267710
571.799733	0.267756
572.012205	0.267861
572.224658	0.267711
572.437092	0.267799
572.649509	0.268014
572.861907	0.268320
573.074287	0.268341
573.286649	0.268181
573.498993	0.267427
573.711318	0.267830
573.923625	0.268339
574.135914	0.268822
574.348185	0.268941
574.560438	0.269176
574.772672	0.269472
574.984888	0.269715
575.197086	0.270108
575.409266	0.270314
575.621427	0.270397
575.833570	0.270235
576.045695	0.270391
576.257802	0.270365
576.469890	0.270452
576.681961	0.270758
576.894013	0.271091
577.106046	0.271705
577.318062	0.272198
577.530059	0.272438
577.742039	0.272561
577.954000	0.272868
578.165942	0.273673
578.377867	0.274085
578.589773	0.274046
578.801661	0.274206
579.013531	0.273892
579.225382	0.273795
579.437216	0.274082
579.649031	0.274246
579.860828	0.273992
580.072606	0.273722
580.284367	0.273601
580.496109	0.274045
580.707833	0.274105
580.919539	0.274792
581.131227	0.275141
581.342896	0.275264
581.554547	0.275247
581.766180	0.275755
581.977795	0.276023
582.189391	0.276360
582.400969	0.276224
582.612529	0.276476
582.824071	0.276518
583.035595	0.276382
583.247100	0.276611
583.458587	0.277187
583.670056	0.277189
583.881506	0.277411
584.092939	0.277617
584.304353	0.277776
584.515749	0.278194
584.727127	0.278550
584.938486	0.279253
585.149828	0.279444
585.361151	0.279609
585.572456	0.280079
585.783742	0.280347
585.995011	0.280502
586.206261	0.280848
586.417493	0.280596
586.628706	0.280593
586.839902	0.280924
587.051079	0.281271
587.262238	0.281367
587.473379	0.281205
587.684502	0.281552
587.895606	0.281487
588.106692	0.281544
588.317760	0.282076
588.528810	0.282427
588.739841	0.282756
588.950855	0.282730
589.161850	0.283135
589.372827	0.284018
589.583785	0.284229
589.794726	0.284413
590.005648	0.285052
590.216552	0.285227
590.427437	0.285181
590.638305	0.285021
590.849154	0.285086
591.059985	0.285193
591.270798	0.285113
591.481592	0.284691
591.692369	0.285025
591.903127	0.285101
592.113867	0.285042
592.324588	0.285086
592.535292	0.285212
592.745977	0.285525
592.956644	0.285781
593.167293	0.285780
593.377923	0.285895
593.588536	0.286213
593.799130	0.286475
594.009706	0.286648
594.220263	0.286827
594.430803	0.287089
594.641324	0.287286
594.851827	0.287467
595.062312	0.287465
595.272778	0.287979
595.483227	0.287700
595.693657	0.287624
595.904069	0.288172
596.114462	0.288608
596.324838	0.288864
596.535195	0.288727
596.745534	0.288863
596.955855	0.288777
597.166157	0.288898
597.376441	0.289184
597.586707	0.289517
597.796955	0.289582
598.007185	0.289630
598.217396	0.289680
598.427589	0.290150
598.637764	0.290007
598.847921	0.290288
599.058060	0.290548
599.268180	0.291090
599.478282	0.291112
599.688366	0.290986
599.898431	0.291063
600.108479	0.291468
600.318508	0.291338
600.528519	0.291677
600.738511	0.291985
600.948486	0.291870
601.158442	0.292213
601.368380	0.292280
601.578300	0.292746
601.788202	0.292990
601.998085	0.293023
602.207950	0.293565
602.417797	0.293458
602.627626	0.293720
602.837436	0.294655
603.047228	0.294418
603.257002	0.294559
603.466758	0.294704
603.676496	0.295018
603.886215	0.295330
604.095916	0.295500
604.305599	0.295986
604.515264	0.295930
604.724910	0.295984
604.934538	0.295924
605.144148	0.296550
605.353740	0.296694
605.563314	0.297177
605.772869	0.297429
605.982406	0.297354
606.191925	0.297779
606.401425	0.298394
606.610908	0.298305
606.820372	0.298632
607.029818	0.298416
607.239246	0.298419
607.448655	0.298277
607.658047	0.298304
607.867420	0.298708
608.076775	0.298541
608.286111	0.298544
608.495430	0.298649
608.704730	0.298715
608.914012	0.298824
609.123275	0.299366
609.332521	0.299100
609.541748	0.298831
609.750957	0.298601
609.960148	0.298977
610.169321	0.299000
610.378475	0.298943
610.587611	0.299236
610.796729	0.299194
611.005829	0.299144
611.214910	0.299731
611.423974	0.300332
611.633019	0.300670
611.842045	0.300737
612.051054	0.300716
612.260044	0.300699
612.469017	0.300881
612.677970	0.301088
612.886906	0.301010
613.095824	0.300902
613.304723	0.301037
613.513604	0.301064
613.722467	0.301087
613.931311	0.301279
614.140138	0.301649
614.348946	0.301696
614.557736	0.302272
614.766507	0.302633
614.975261	0.302614
615.183996	0.302990
615.392713	0.303158
615.601412	0.303261
615.810092	0.303594
616.018754	0.303766
616.227399	0.304039
616.436024	0.303988
616.644632	0.303923
616.853222	0.304354
617.061793	0.304021
617.270346	0.304141
617.478880	0.304371
617.687397	0.304474
617.895895	0.304774
618.104375	0.304850
618.312837	0.305140
618.521281	0.305444
618.729706	0.305358
618.938113	0.305622
619.146502	0.305994
619.354873	0.306330
619.563226	0.306086
619.771560	0.305986
619.979876	0.306414
620.188174	0.306345
620.396453	0.306579
620.604715	0.307226
620.812958	0.307685
621.021183	0.307905
621.229390	0.308107
621.437578	0.308600
621.645748	0.308904
621.853900	0.308717
622.062034	0.308866
622.270150	0.308812
622.478247	0.308663
622.686326	0.308183
622.894387	0.308147
623.102430	0.307876
623.310454	0.307975
623.518461	0.308344
623.726449	0.308683
623.934418	0.308904
624.142370	0.309239
624.350303	0.309537
624.558218	0.310120
624.766115	0.310357
624.973994	0.310743
625.181855	0.310885
625.389697	0.311060
625.597521	0.311403
625.805327	0.311794
626.013114	0.311978
626.220883	0.312344
626.428634	0.312617
626.636367	0.312539
626.844082	0.312637
627.051778	0.313195
627.259457	0.312953
627.467117	0.313023
627.674758	0.312900
627.882382	0.313351
628.089987	0.313421
628.297574	0.313304
628.505143	0.313651
628.712694	0.314114
628.920226	0.314043
629.127740	0.314714
629.335236	0.314734
629.542714	0.315248
629.750174	0.314856
629.957615	0.315034
630.165038	0.315331
630.372443	0.315645
630.579829	0.315664
630.787198	0.315671
630.994548	0.315664
631.201880	0.316013
631.409194	0.315778
631.616489	0.316422
631.823766	0.316507
632.031025	0.317092
632.238266	0.317400
632.445489	0.317607
632.652693	0.317954
632.859879	0.317797
633.067047	0.317859
633.274197	0.318241
633.481329	0.318300
633.688442	0.318660
633.895537	0.318438
634.102614	0.318774
634.309672	0.318907
634.516713	0.319317
634.723735	0.320039
634.930739	0.320331
635.137724	0.320626
635.344692	0.320694
635.551641	0.320813
635.758572	0.320861
635.965485	0.320818
636.172379	0.321324
636.379256	0.321168
636.586114	0.320888
636.792954	0.321097
636.999775	0.321162
637.206579	0.321305
637.413364	0.321336
637.620131	0.321788
637.826880	0.321774
638.033610	0.321794
638.240323	0.322163
638.447017	0.322613
638.653692	0.322532
638.860350	0.322894
639.066990	0.323280
639.273611	0.323298
639.480214	0.323458
639.686798	0.323770
639.893365	0.323939
640.099913	0.324229
640.306443	0.324202
640.512955	0.324604
640.719449	0.324726
640.925924	0.324492
641.132381	0.324849
641.338820	0.324951
641.545241	0.325211
641.751644	0.325274
641.958028	0.325516
642.164394	0.325984
642.370742	0.326137
642.577071	0.326463
642.783383	0.327006
642.989676	0.327367
643.195951	0.327665
643.402207	0.327705
643.608446	0.327993
643.814666	0.327920
644.020868	0.327744
644.227052	0.327745
644.433218	0.327742
644.639365	0.328228
644.845494	0.328305
645.051605	0.328517
645.257698	0.328864
645.463772	0.329132
645.669828	0.329452
645.875866	0.330109
646.081886	0.330755
646.287888	0.330887
646.493871	0.330878
646.699836	0.331267
646.905783	0.331347
647.111712	0.331576
647.317622	0.331691
647.523514	0.332024
647.729388	0.332142
647.935244	0.332367
648.141082	0.332838
648.346901	0.333304
648.552702	0.333526
648.758485	0.333747
648.964250	0.334024
649.169996	0.334625
649.375724	0.334928
649.581434	0.335257
649.787126	0.335539
649.992800	0.335515
650.198455	0.335564
650.404092	0.335531
650.609711	0.335882
650.815311	0.336021
651.020894	0.335830
651.226458	0.335673
651.432004	0.335703
651.637532	0.335770
651.843041	0.335987
652.048532	0.336233
652.254006	0.336522
652.459460	0.336624
652.664897	0.336709
652.870315	0.336879
653.075716	0.337395
653.281097	0.337661
653.486461	0.337792
653.691807	0.338174
653.897134	0.338095
654.102443	0.338425
654.307734	0.338278
654.513006	0.338710
654.718261	0.338989
654.923497	0.339218
655.128715	0.339285
655.333915	0.339491
655.539096	0.339793
655.744259	0.339924
655.949404	0.340109
656.154531	0.340728
656.359640	0.340783
656.564730	0.341074
656.769802	0.341327
656.974856	0.341924
657.179892	0.342117
657.384909	0.342304
657.589908	0.342699
657.794889	0.342956
657.999852	0.343000
658.204797	0.343621
658.409723	0.343815
658.614631	0.343804
658.819521	0.343872
659.024393	0.344122
659.229246	0.344528
659.434081	0.345096
659.638898	0.345159
659.843697	0.345562
660.048478	0.345734
660.253240	0.345962
660.457984	0.346488
660.662710	0.346687
660.867417	0.347020
661.072107	0.347110
661.276778	0.347215
661.481431	0.347745
661.686066	0.348109
661.890682	0.348257
662.095281	0.348513
662.299861	0.348802
662.504422	0.349134
662.708966	0.349536
662.913491	0.349668
663.117999	0.349840
663.322488	0.350017
663.526958	0.350113
663.731411	0.350320
663.935845	0.350502
664.140261	0.350585
664.344659	0.350854
664.549038	0.350753
664.753400	0.350948
664.957743	0.351565
665.162068	0.351909
665.366375	0.352171
665.570663	0.352421
665.774933	0.352864
665.979185	0.352841
666.183419	0.353193
666.387635	0.353623
666.591832	0.353858
666.796011	0.353841
667.000172	0.353789
667.204315	0.354043
667.408439	0.354080
667.612545	0.354145
667.816634	0.354830
668.020703	0.354897
668.224755	0.355351
668.428788	0.355660
668.632803	0.355901
668.836800	0.356261
669.040779	0.356573
669.244739	0.357038
669.448681	0.357382
669.652605	0.357494
669.856511	0.357944
670.060399	0.357993
670.264268	0.358323
670.468119	0.358563
670.671952	0.358911
670.875767	0.359350
671.079563	0.359446
671.283341	0.359760
671.487101	0.360069
671.690843	0.360177
671.894567	0.360581
672.098272	0.360920
672.301959	0.361178
672.505628	0.361350
672.709278	0.361740
672.912911	0.362323
673.116525	0.362875
673.320121	0.363019
673.523699	0.363475
673.727258	0.363665
673.930799	0.363952
674.134322	0.364530
674.337827	0.364904
674.541314	0.365123
674.744782	0.365180
674.948232	0.365254
675.151664	0.365865
675.355078	0.365854
675.558474	0.366207
675.761851	0.366704
675.965210	0.367001
676.168551	0.367195
676.371873	0.367539
676.575178	0.367673
676.778464	0.367913
676.981732	0.367841
677.184981	0.368166
677.388213	0.368288
677.591426	0.368290
677.794621	0.368204
677.997798	0.368472
678.200956	0.368630
678.404097	0.369083
678.607219	0.369317
678.810323	0.369905
679.013408	0.370339
679.216476	0.370548
679.419525	0.370641
679.622556	0.370999
679.825569	0.371410
680.028563	0.371676
680.231540	0.372045
680.434498	0.372032
680.637438	0.371988
680.840359	0.371913
681.043263	0.372073
681.246148	0.372371
681.449015	0.372743
681.651864	0.372746
681.854694	0.372866
682.057506	0.373116
682.260301	0.373488
682.463076	0.373869
682.665834	0.373991
682.868573	0.374440
683.071295	0.375013
683.273998	0.375175
683.476682	0.375625
683.679349	0.375695
683.881997	0.375628
684.084627	0.375656
684.287239	0.375824
684.489833	0.376472
684.692408	0.376469
684.894965	0.376634
685.097504	0.377056
685.300025	0.377361
685.502527	0.378007
685.705012	0.378780
685.907478	0.379397
686.109925	0.379865
686.312355	0.379928
686.514766	0.380321
686.717159	0.380409
686.919534	0.380259
687.121891	0.380574
687.324230	0.380698
687.526550	0.380632
687.728852	0.380822
687.931136	0.380682
688.133401	0.381069
688.335649	0.381312
688.537878	0.381359
688.740089	0.381705
688.942281	0.381483
689.144456	0.381564
689.346612	0.381699
689.548750	0.381912
689.750870	0.382528
689.952971	0.382688
690.155055	0.382899
690.357120	0.383119
690.559167	0.383466
690.761195	0.383835
690.963206	0.384091
691.165198	0.384341
691.367172	0.384516
691.569128	0.384544
691.771065	0.384617
691.972984	0.385061
692.174885	0.385706
692.376768	0.385574
692.578633	0.385709
692.780479	0.386061
692.982308	0.386185
693.184118	0.386538
693.385909	0.386486
693.587683	0.386708
693.789438	0.386815
693.991175	0.386654
694.192894	0.387113
694.394595	0.387339
694.596277	0.387426
694.797941	0.387724
694.999587	0.387715
695.201215	0.387735
695.402824	0.388317
695.604416	0.388276
695.805989	0.388467
696.007543	0.388558
696.209080	0.388799
696.410598	0.388970
696.612099	0.389140
696.813580	0.389482
697.015044	0.389958
697.216490	0.389938
697.417917	0.390208
697.619326	0.390630
697.820717	0.390728
698.022089	0.391047
698.223444	0.390947
698.424780	0.391200
698.626098	0.391135
698.827397	0.391524
699.028679	0.391612
699.229942	0.391884
699.431187	0.391885
699.632414	0.392193
699.833622	0.392442
700.034813	0.393094
700.235985	0.393340
700.437139	0.393642
700.638274	0.393501
700.839392	0.393650
701.040491	0.393723
701.241572	0.393761
701.442635	0.393889
701.643679	0.393912
701.844706	0.393728
702.045714	0.393458
702.246704	0.393694
702.447675	0.394105
702.648629	0.394037
702.849564	0.394203
703.050481	0.394441
703.251380	0.394239
703.452260	0.394203
703.653122	0.394115
703.853966	0.394307
704.054792	0.394113
704.255600	0.394021
704.456389	0.394230
704.657160	0.394265
704.857913	0.394127
705.058648	0.394350
705.259365	0.394467
705.460063	0.394575
705.660743	0.394731
705.861405	0.395051
706.062048	0.395024
706.262674	0.395036
706.463281	0.395111
706.663870	0.395185
706.864441	0.395278
707.064993	0.395252
707.265527	0.395279
707.466043	0.395297
707.666541	0.395680
707.867021	0.396054
708.067482	0.396208
708.267925	0.396249
708.468350	0.396696
708.668757	0.396985
708.869145	0.397175
709.069516	0.397427
709.269868	0.397520
709.470201	0.397062
709.670517	0.397237
709.870814	0.397350
710.071093	0.397241
710.271354	0.397137
710.471597	0.397208
710.671821	0.397210
710.872028	0.396977
711.072216	0.397132
711.272385	0.397601
711.472537	0.397381
711.672670	0.396920
711.872785	0.397034
712.072882	0.396976
712.272961	0.396621
712.473021	0.396411
712.673063	0.396672
712.873087	0.396290
713.073093	0.395885
713.273081	0.395510
713.473050	0.395749
713.673001	0.395713
713.872934	0.395371
714.072849	0.395477
714.272745	0.395857
714.472623	0.395763
714.672483	0.396043
714.872325	0.395764
715.072148	0.395815
715.271954	0.396056
715.471741	0.395830
715.671509	0.395911
715.871260	0.395715
716.070992	0.395385
716.270707	0.395424
716.470403	0.395105
716.670080	0.395383
716.869740	0.395539
717.069381	0.395090
717.269004	0.394738
717.468609	0.394692
717.668195	0.394515
717.867764	0.394397
718.067314	0.393952
718.266846	0.394116
718.466360	0.393812
718.665855	0.393575
718.865332	0.393479
719.064791	0.393704
719.264232	0.393675
719.463655	0.393851
719.663059	0.393713
719.862445	0.393702
720.061813	0.393060
720.261163	0.392997
720.460494	0.392566
720.659807	0.392413
720.859102	0.392429
721.058379	0.392038
721.257638	0.391748
721.456878	0.391267
721.656100	0.391054
721.855304	0.391189
722.054490	0.390678
722.253657	0.390712
722.452806	0.390338
722.651937	0.389905
722.851050	0.389948
723.050145	0.389823
723.249221	0.389998
723.448279	0.390045
723.647319	0.390087
723.846340	0.390209
724.045344	0.390187
724.244329	0.390368
724.443296	0.390216
724.642245	0.389935
724.841175	0.389711
725.040088	0.389631
725.238982	0.389164
725.437857	0.388785
725.636715	0.388486
725.835554	0.388277
726.034376	0.388034
726.233179	0.388185
726.431963	0.387918
726.630730	0.387921
726.829478	0.387880
727.028208	0.387986
727.226920	0.387908
727.425614	0.387874
727.624289	0.387735
727.822946	0.387617
728.021585	0.387381
728.220206	0.387391
728.418808	0.386829
728.617392	0.386550
728.815958	0.386168
729.014506	0.385882
729.213036	0.385710
729.411547	0.385605
729.610040	0.385144
729.808515	0.384694
730.006972	0.384420
730.205410	0.384557
730.403831	0.383803
730.602233	0.383822
730.800616	0.383513
730.998982	0.383251
731.197329	0.382799
731.395658	0.382875
731.593969	0.382919
731.792262	0.383018
731.990536	0.382857
732.188793	0.383069
732.387031	0.382701
732.585250	0.382625
732.783452	0.382606
732.981635	0.382703
733.179800	0.382504
733.377947	0.382339
733.576076	0.381818
733.774186	0.381543
733.972278	0.381188
734.170352	0.381243
734.368408	0.380950
734.566446	0.380522
734.764465	0.380214
734.962466	0.379902
735.160449	0.379634
735.358413	0.379680
735.556360	0.379405
735.754288	0.379421
735.952198	0.379065
736.150090	0.378993
736.347963	0.379202
736.545818	0.379043
736.743655	0.379009
736.941474	0.378792
737.139275	0.378399
737.337057	0.378058
737.534821	0.377627
737.732567	0.377284
737.930295	0.376944
738.128005	0.376336
738.325696	0.375660
738.523369	0.375183
738.721024	0.374945
738.918660	0.374478
739.116279	0.374151
739.313879	0.374170
739.511461	0.373955
739.709024	0.373788
739.906570	0.373355
740.104097	0.373375
740.301606	0.373003
740.499097	0.372554
740.696569	0.372428
740.894024	0.372141
741.091460	0.371410
741.288878	0.371268
741.486277	0.370979
741.683659	0.370811
741.881022	0.370427
742.078367	0.370293
742.275694	0.370363
742.473002	0.370096
742.670293	0.369976
742.867565	0.369742
743.064819	0.369205
743.262054	0.368881
743.459272	0.368641
743.656471	0.368108
743.853652	0.367812
744.050815	0.367293
744.247959	0.367246
744.445085	0.366741
744.642194	0.366607
744.839283	0.366271
745.036355	0.366172
745.233408	0.365724
745.430444	0.365658
745.627461	0.365501
745.824459	0.365109
746.021440	0.364690
746.218402	0.364735
746.415346	0.364433
746.612272	0.364368
746.809180	0.364212
747.006069	0.364223
747.202940	0.364308
747.399793	0.364095
747.596628	0.363913
747.793444	0.363576
747.990243	0.363228
748.187023	0.363085
748.383784	0.363015
748.580528	0.362549
748.777253	0.362158
748.973960	0.361988
749.170649	0.361827
749.367320	0.361667
749.563973	0.361579
749.760607	0.361469
749.957223	0.361469
750.153821	0.361128
750.350400	0.361039
750.546962	0.361012
750.743505	0.360302
750.940030	0.359824
751.136536	0.359388
751.333025	0.359072
751.529495	0.358617
751.725947	0.358284
751.922381	0.358040
752.118796	0.357694
752.315194	0.357381
752.511573	0.357084
752.707934	0.356932
752.904276	0.356872
753.100601	0.356547
753.296907	0.356341
753.493195	0.356032
753.689465	0.355371
753.885716	0.354918
754.081949	0.354608
754.278164	0.354307
754.474361	0.353938
754.670540	0.353643
754.866700	0.353495
755.062843	0.353311
755.258967	0.353028
755.455072	0.353325
755.651160	0.353155
755.847229	0.352888
756.043280	0.353001
756.239313	0.352583
756.435328	0.352656
756.631324	0.352584
756.827302	0.352440
757.023262	0.352262
757.219204	0.351704
757.415127	0.351702
757.611033	0.351602
757.806920	0.351318
758.002788	0.351437
758.198639	0.351225
758.394471	0.350826
758.590286	0.350529
758.786081	0.350241
758.981859	0.350160
759.177619	0.349913
759.373360	0.349799
759.569083	0.349298
759.764788	0.348972
759.960474	0.348401
760.156143	0.348118
760.351793	0.348066
760.547425	0.347792
760.743038	0.347788
760.938634	0.347245
761.134211	0.347007
761.329770	0.346991
761.525311	0.346754
761.720833	0.346652
761.916338	0.346578
762.111824	0.346074
762.307292	0.346215
762.502741	0.345787
762.698173	0.345956
762.893586	0.345518
763.088981	0.345373
763.284358	0.345171
763.479716	0.345209
763.675057	0.344832
763.870379	0.344677
764.065683	0.344040
764.260968	0.343755
764.456236	0.343240
764.651485	0.343033
764.846716	0.343061
765.041929	0.342893
765.237123	0.342341
765.432299	0.342271
765.627457	0.342102
765.822597	0.342275
766.017719	0.342183
766.212822	0.342183
766.407907	0.342377
766.602974	0.342128
766.798023	0.342208
766.993054	0.342266
767.188066	0.342493
767.383060	0.342622
767.578036	0.342262
767.772993	0.342518
767.967933	0.342628
768.162854	0.342521
768.357757	0.342532
768.552642	0.342303
768.747508	0.342075
768.942356	0.342028
769.137186	0.341759
769.331998	0.341767
769.526792	0.341449
769.721567	0.341180
769.916324	0.340891
770.111063	0.340648
770.305784	0.340359
770.500486	0.340266
770.695171	0.339765
770.889837	0.339601
771.084484	0.339418
771.279114	0.339373
771.473725	0.339101
771.668318	0.339000
771.862893	0.338802
772.057450	0.338954
772.251988	0.338958
772.446509	0.338957
772.641011	0.338872
772.835494	0.338802
773.029960	0.338467
773.224407	0.338472
773.418836	0.338433
773.613247	0.338472
773.807640	0.338328
774.002014	0.338330
774.196370	0.338163
774.390708	0.338307
774.585028	0.338218
774.779330	0.338378
774.973613	0.338445
775.167878	0.338348
775.362125	0.338272
775.556354	0.338396
775.750564	0.338288
775.944756	0.338213
776.138930	0.337831
776.333086	0.337780
776.527223	0.337899
776.721343	0.337867
776.915444	0.337752
777.109526	0.337761
777.303591	0.337683
777.497637	0.337704
777.691666	0.337798
777.885676	0.338210
778.079667	0.338319
778.273641	0.338154
778.467596	0.338121
778.661533	0.338353
778.855452	0.338229
779.049352	0.338048
779.243235	0.338043
779.437099	0.338114
779.630945	0.337956
779.824773	0.337970
780.018582	0.337863
780.212373	0.337881
780.406146	0.337680
780.599901	0.337761
780.793638	0.338014
780.987356	0.338077
781.181056	0.337738
781.374738	0.337726
781.568402	0.337663
781.762047	0.337653
781.955674	0.337414
782.149283	0.337224
782.342874	0.337092
782.536447	0.336917
782.730001	0.336861
782.923537	0.337143
783.117055	0.337029
783.310555	0.337212
783.504036	0.337259
783.697499	0.337395
783.890944	0.337611
784.084371	0.337966
784.277780	0.337873
784.471170	0.337961
784.664542	0.338291
784.857896	0.338490
785.051231	0.338458
785.244549	0.338751
785.437848	0.338816
785.631129	0.339076
785.824392	0.339184
786.017636	0.339422
786.210863	0.339579
786.404071	0.339507
786.597260	0.339604
786.790432	0.339795
786.983585	0.339791
787.176721	0.339808
787.369838	0.339986
787.562936	0.339828
787.756017	0.339914
787.949079	0.339765
788.142123	0.339538
788.335149	0.339400
788.528156	0.339546
788.721146	0.339522
788.914117	0.340056
789.107070	0.339730
789.300005	0.339745
789.492921	0.339884
789.685819	0.339997
789.878699	0.340335
790.071561	0.340727
790.264405	0.340568
790.457230	0.340455
790.650037	0.340366
790.842826	0.340609
791.035597	0.340829
791.228349	0.340896
791.421084	0.341386
791.613800	0.341287
791.806497	0.341413
791.999177	0.341611
792.191838	0.342259
792.384481	0.342484
792.577106	0.343057
792.769713	0.343328
792.962301	0.343530
793.154871	0.343513
793.347423	0.343551
793.539957	0.343454
793.732473	0.343499
793.924970	0.343339
794.117449	0.343091
794.309910	0.342822
794.502353	0.343085
794.694777	0.343658
794.887183	0.343940
795.079571	0.344478
795.271941	0.344877
795.464293	0.345425
795.656626	0.345676
795.848941	0.346089
796.041238	0.346553
796.233516	0.346644
796.425777	0.346496
796.618019	0.346650
796.810243	0.346881
797.002449	0.347074
797.194636	0.347335
797.386805	0.347462
797.578956	0.347751
797.771089	0.347869
797.963204	0.347874
798.155300	0.348212
798.347378	0.348338
798.539438	0.348638
798.731480	0.349012
798.923503	0.349384
799.115509	0.349893
799.307496	0.350422
799.499465	0.350827
799.691415	0.351363
799.883348	0.351265
800.075262	0.351898
800.267158	0.352087
800.459035	0.352385
800.650895	0.352514
800.842736	0.352996
801.034559	0.353042
801.226364	0.353461
801.418150	0.353918
801.609919	0.354579
801.801669	0.354559
801.993401	0.355067
802.185114	0.355219
802.376810	0.355669
802.568487	0.355664
802.760146	0.356457
802.951787	0.356799
803.143409	0.357024
803.335014	0.357537
803.526600	0.357902
803.718168	0.358333
803.909717	0.358695
804.101249	0.358612
804.292762	0.358978
804.484257	0.358893
804.675734	0.358814
804.867192	0.358998
805.058632	0.358904
805.250054	0.359134
805.441458	0.359378
805.632844	0.359863
805.824211	0.360260
806.015561	0.360670
806.206891	0.361068
806.398204	0.361543
806.589499	0.361959
806.780775	0.362455
806.972033	0.362938
807.163273	0.363486
807.354495	0.363737
807.545698	0.364179
807.736883	0.364510
807.928050	0.365249
808.119199	0.365926
808.310329	0.366032
808.501441	0.366504
808.692535	0.366800
808.883611	0.367008
809.074669	0.367178
809.265708	0.367454
809.456729	0.367940
809.647732	0.367846
809.838717	0.368036
810.029683	0.368732
810.220632	0.369086
810.411562	0.369284
810.602474	0.369267
810.793367	0.369776
810.984242	0.370217
811.175100	0.370564
811.365938	0.371053
811.556759	0.371288
811.747562	0.371403
811.938346	0.371879
812.129112	0.372238
812.319860	0.372832
812.510589	0.373415
812.701300	0.373637
812.891994	0.373633
813.082668	0.374072
813.273325	0.374386
813.463964	0.375146
813.654584	0.375540
813.845186	0.376236
814.035769	0.376736
814.226335	0.376998
814.416882	0.377803
814.607411	0.378675
814.797922	0.379283
814.988415	0.380124
815.178889	0.380461
815.369345	0.381117
815.559783	0.381638
815.750203	0.382055
815.940605	0.382614
816.130988	0.382907
816.321353	0.383355
816.511700	0.383730
816.702028	0.384166
816.892339	0.384635
817.082631	0.385025
817.272905	0.385570
817.463161	0.386135
817.653398	0.386436
817.843617	0.387106
818.033819	0.387704
818.224001	0.388014
818.414166	0.388572
818.604312	0.389209
818.794440	0.389531
818.984550	0.389732
819.174642	0.390112
819.364716	0.390864
819.554771	0.391399
819.744808	0.391701
819.934827	0.392425
820.124827	0.392641
820.314810	0.393056
820.504774	0.393520
820.694720	0.394080
820.884647	0.394385
821.074557	0.395143
821.264448	0.395705
821.454321	0.396151
821.644176	0.396613
821.834012	0.397006
822.023831	0.397592
822.213631	0.398126
822.403413	0.398868
822.593176	0.399656
822.782922	0.400069
822.972649	0.400312
823.162358	0.401145
823.352049	0.401579
823.541721	0.402524
823.731376	0.402979
823.921012	0.403378
824.110629	0.403945
824.300229	0.404492
824.489811	0.404500
824.679374	0.405089
824.868919	0.405276
825.058445	0.405869
825.247954	0.406306
825.437444	0.406826
825.626916	0.407370
825.816370	0.407705
826.005806	0.407884
826.195223	0.408691
826.384622	0.409196
826.574003	0.409859
826.763366	0.410358
826.952711	0.410708
827.142037	0.411154
827.331345	0.411977
827.520635	0.412476
827.709906	0.413230
827.899160	0.413846
828.088395	0.414469
828.277612	0.414918
828.466810	0.415320
828.655991	0.416058
828.845153	0.416610
829.034297	0.416836
829.223423	0.417414
829.412531	0.418009
829.601620	0.418325
829.790691	0.418780
829.979744	0.419631
830.168779	0.420592
830.357795	0.420828
830.546793	0.421505
830.735773	0.422248
830.924735	0.422883
831.113679	0.423434
831.302604	0.424507
831.491511	0.424788
831.680400	0.425080
831.869271	0.425568
832.058123	0.426071
832.246957	0.426788
832.435773	0.427417
832.624571	0.427749
832.813351	0.428516
833.002112	0.428474
833.190855	0.429360
833.379580	0.430086
833.568287	0.430414
833.756975	0.430829
833.945645	0.431338
834.134297	0.431943
834.322931	0.432559
834.511547	0.432999
834.700144	0.433806
834.888723	0.434385
835.077284	0.434911
835.265826	0.435287
835.454351	0.436312
835.642857	0.436761
835.831345	0.437040
836.019815	0.437669
836.208266	0.438235
836.396699	0.438921
836.585114	0.439189
836.773511	0.439852
836.961890	0.440994
837.150250	0.441508
837.338592	0.442033
837.526916	0.442691
837.715222	0.443635
837.903510	0.444147
838.091779	0.444651
838.280030	0.445541
838.468263	0.446131
838.656477	0.446448
838.844674	0.447644
839.032852	0.448291
839.221012	0.449256
839.409153	0.450040
839.597277	0.450959
839.785382	0.451497
839.973469	0.452545
840.161538	0.453318
840.349589	0.454651
840.537621	0.455476
840.725635	0.456285
840.913631	0.456854
841.101609	0.457300
841.289568	0.457881
841.477509	0.458950
841.665432	0.459214
841.853337	0.459375
842.041224	0.459692
842.229092	0.460011
842.416942	0.460669
842.604774	0.461409
842.792588	0.461582
842.980383	0.461876
843.168160	0.462338
843.355919	0.463302
843.543660	0.463945
843.731382	0.464390
843.919087	0.464474
844.106773	0.465200
844.294441	0.465492
844.482090	0.466607
844.669722	0.467460
844.857335	0.468361
845.044930	0.469138
845.232507	0.470133
845.420065	0.470486
845.607605	0.471099
845.795127	0.471800
845.982631	0.472403
846.170117	0.473090
846.357584	0.473746
846.545033	0.474100
846.732464	0.474662
846.919877	0.475005
847.107272	0.475916
847.294648	0.476833
847.482006	0.476840
847.669346	0.477603
847.856667	0.477849
848.043971	0.478242
848.231256	0.478707
848.418523	0.478905
848.605771	0.480005
848.793002	0.479942
848.980214	0.480416
849.167408	0.481508
849.354584	0.482274
849.541742	0.483461
849.728881	0.484644
849.916002	0.485957
850.103105	0.486688
850.290190	0.487369
850.477256	0.488710
850.664304	0.489448
850.851334	0.489796
851.038346	0.490352
851.225340	0.490789
851.412315	0.491310
851.599272	0.491431
851.786211	0.492481
851.973132	0.492748
852.160034	0.493218
852.346918	0.493760
852.533784	0.494575
852.720632	0.495239
852.907462	0.495840
853.094273	0.496726
853.281066	0.497585
853.467841	0.498115
853.654598	0.498858
853.841336	0.499385
854.028056	0.500066
854.214758	0.500581
854.401442	0.501250
854.588107	0.501813
854.774755	0.501938
854.961384	0.502173
855.147995	0.502852
855.334587	0.503637
855.521162	0.504631
855.707718	0.504931
855.894256	0.505517
856.080775	0.505851
856.267277	0.506478
856.453760	0.507481
856.640225	0.508280
856.826672	0.508241
857.013101	0.508932
857.199511	0.509051
857.385903	0.509848
857.572277	0.510428
857.758633	0.511335
857.944970	0.512105
858.131290	0.511946
858.317591	0.512740
858.503873	0.513417
858.690138	0.513819
858.876384	0.514800
859.062612	0.515378
859.248822	0.516037
859.435014	0.516231
859.621188	0.516618
859.807343	0.517584
859.993480	0.517994
860.179599	0.518651
860.365699	0.518812
860.551781	0.519487
860.737846	0.520271
860.923891	0.520895
861.109919	0.521843
861.295929	0.522333
861.481920	0.522538
861.667893	0.523451
861.853848	0.524196
862.039784	0.525503
862.225702	0.525885
862.411603	0.526303
862.597484	0.526618
862.783348	0.526753
862.969193	0.527005
863.155021	0.527773
863.340830	0.527980
863.526620	0.528847
863.712393	0.528868
863.898147	0.529472
864.083883	0.530130
864.269601	0.530887
864.455301	0.532024
864.640982	0.533170
864.826645	0.534198
865.012290	0.534729
865.197917	0.535178
865.383526	0.536154
865.569116	0.535994
865.754688	0.536735
865.940242	0.536625
866.125777	0.536476
866.311295	0.536542
866.496794	0.536776
866.682275	0.536667
866.867737	0.536757
867.053182	0.536751
867.238608	0.537334
867.424016	0.537967
867.609406	0.539214
867.794778	0.539826
867.980131	0.540418
868.165466	0.540773
868.350783	0.541740
868.536082	0.542553
868.721362	0.542819
868.906625	0.544091
869.091869	0.544297
869.277094	0.544526
869.462302	0.545614
869.647491	0.545861
869.832662	0.546769
870.017815	0.547065
870.202950	0.546976
870.388066	0.547124
870.573165	0.547059
870.758245	0.547065
870.943306	0.547569
871.128350	0.547079
871.313375	0.547860
871.498382	0.548096
871.683371	0.548535
871.868342	0.549483
872.053294	0.550414
872.238229	0.550942
872.423144	0.551542
872.608042	0.551595
872.792922	0.553011
872.977783	0.553560
873.162626	0.553688
873.347451	0.553998
873.532258	0.553801
873.717046	0.554306
873.901816	0.554018
874.086568	0.554298
874.271302	0.555260
874.456017	0.555460
874.640715	0.555138
874.825394	0.555911
875.010055	0.556366
875.194697	0.556800
875.379322	0.556772
875.563928	0.557607
875.748516	0.557851
875.933085	0.558026
876.117637	0.558270
876.302170	0.559027
876.486685	0.559364
876.671182	0.560077
876.855661	0.560244
877.040121	0.560781
877.224563	0.561028
877.408987	0.561291
877.593393	0.562101
877.777780	0.562170
877.962150	0.562452
878.146501	0.562286
878.330833	0.562715
878.515148	0.563080
878.699444	0.563496
878.883722	0.563348
879.067982	0.564214
879.252224	0.563601
879.436447	0.563693
879.620653	0.563325
879.804840	0.563564
879.989008	0.563323
880.173159	0.563473
880.357291	0.563636
880.541405	0.564475
880.725501	0.564452
880.909579	0.564336
881.093638	0.565031
881.277680	0.565373
881.461703	0.565617
881.645707	0.565394
881.829694	0.565646
882.013662	0.565418
882.197612	0.564894
882.381544	0.564764
882.565458	0.565729
882.749353	0.565419
882.933230	0.565754
883.117089	0.565844
883.300930	0.566654
883.484753	0.566788
883.668557	0.567809
883.852343	0.568189
884.036111	0.568550
884.219861	0.568539
884.403592	0.568628
884.587305	0.569225
884.771000	0.569769
884.954677	0.570170
885.138335	0.570174
885.321976	0.570044
885.505598	0.570721
885.689201	0.571332
885.872787	0.571523
886.056354	0.571693
886.239904	0.571815
886.423434	0.571240
886.606947	0.570925
886.790442	0.572099
886.973918	0.571799
887.157376	0.571800
887.340816	0.571558
887.524237	0.571808
887.707641	0.572107
887.891026	0.571867
888.074393	0.572399
888.257741	0.571835
888.441072	0.570864
888.624384	0.571556
888.807678	0.571469
888.990954	0.571226
889.174211	0.570441
889.357451	0.570193
889.540672	0.569717
889.723875	0.569651
889.907059	0.569839
890.090226	0.570288
890.273374	0.569756
890.456504	0.569733
890.639616	0.569441
890.822709	0.569668
891.005785	0.569379
891.188842	0.569570
891.371881	0.569756
891.554901	0.569518
891.737904	0.569284
891.920888	0.569273
892.103854	0.569446
892.286802	0.569461
892.469731	0.569260
892.652643	0.569826
892.835536	0.569531
893.018410	0.569200
893.201267	0.569510
893.384106	0.569650
893.566926	0.569330
893.749728	0.569301
893.932511	0.569135
894.115277	0.569768
894.298024	0.568846
894.480753	0.569575
894.663464	0.569191
894.846157	0.568640
895.028831	0.568266
895.211487	0.568210
895.394125	0.567473
895.576745	0.567650
895.759346	0.567952
895.941930	0.567940
896.124495	0.567349
896.307041	0.567187
896.489570	0.567219
896.672080	0.567051
896.854573	0.567172
897.037046	0.566872
897.219502	0.566703
897.401940	0.565472
897.584359	0.565241
897.766760	0.564746
897.949143	0.564990
898.131507	0.564522
898.313854	0.564217
898.496182	0.563647
898.678492	0.563304
898.860783	0.562518
899.043057	0.561946
899.225312	0.562253
899.407549	0.562157
899.589768	0.561292
899.771968	0.561148
899.954151	0.560549
900.136315	0.559929
900.318461	0.560043
900.500588	0.559528
900.682698	0.558719
900.864789	0.557846
901.046862	0.557192
901.228917	0.557671
901.410953	0.557447
901.592971	0.557075
901.774972	0.556909
901.956953	0.556892
902.138917	0.557044
902.320862	0.557258
902.502790	0.556536
902.684699	0.556151
902.866589	0.555040
903.048462	0.554403
903.230316	0.554034
903.412152	0.553781
903.593970	0.552667
903.775770	0.551405
903.957551	0.550974
904.139314	0.550933
904.321059	0.550630
904.502786	0.550424
904.684494	0.549880
904.866185	0.549501
905.047857	0.548671
905.229510	0.548031
905.411146	0.547945
905.592763	0.547565
905.774363	0.547101
905.955943	0.546260
906.137506	0.545423
906.319051	0.544954
906.500577	0.543917
906.682085	0.543370
906.863575	0.543135
907.045046	0.542889
907.226500	0.541804
907.407935	0.540901
907.589352	0.540720
907.770750	0.540317
907.952131	0.539778
908.133493	0.539679
908.314837	0.539573
908.496163	0.539256
908.677470	0.538588
908.858760	0.538630
909.040031	0.538148
909.221284	0.537101
909.402518	0.535835
909.583735	0.535315
909.764933	0.534373
909.946113	0.533498
910.127275	0.532615
910.308418	0.531855
910.489544	0.529924
910.670651	0.529285
910.851740	0.528224
911.032810	0.528111
911.213863	0.527460
911.394897	0.527138
911.575913	0.526561
911.756911	0.525884
911.937890	0.525489
912.118851	0.525983
912.299794	0.525517
912.480719	0.525720
912.661626	0.524705
912.842514	0.523343
913.023384	0.522594
913.204236	0.521172
913.385070	0.520309
913.565886	0.519376
913.746683	0.518922
913.927462	0.518149
914.108223	0.516648
914.288965	0.515993
914.469690	0.515843
914.650396	0.515515
914.831084	0.515376
915.011754	0.514625
915.192405	0.513580
915.373038	0.512243
915.553653	0.511404
915.734250	0.511014
915.914829	0.509824
916.095389	0.508772
916.275931	0.507787
916.456455	0.506431
916.636961	0.505942
916.817448	0.505397
916.997917	0.505046
917.178368	0.503723
917.358801	0.502972
917.539216	0.502940
917.719612	0.502283
917.899990	0.501182
918.080350	0.500570
918.260692	0.499927
918.441015	0.498519
918.621320	0.497299
918.801607	0.496441
918.981876	0.494985
919.162127	0.493749
919.342359	0.492812
919.522573	0.491379
919.702769	0.490386
919.882947	0.489105
920.063106	0.488528
920.243247	0.488003
920.423370	0.486596
920.603475	0.485781
920.783562	0.484756
920.963630	0.483931
921.143680	0.483712
921.323712	0.482669
921.503725	0.481509
921.683721	0.480323
921.863698	0.477923
922.043657	0.478193
922.223598	0.478095
922.403520	0.476488
922.583424	0.475929
922.763311	0.475134
922.943178	0.473645
923.123028	0.472507
923.302859	0.472510
923.482673	0.472618
923.662467	0.471606
923.842244	0.469445
924.022003	0.468790
924.201743	0.467116
924.381465	0.465569
924.561169	0.465086
924.740854	0.464097
924.920522	0.462241
925.100171	0.461235
925.279802	0.459795
925.459414	0.459247
925.639009	0.457626
925.818585	0.455477
925.998143	0.454153
926.177683	0.452770
926.357205	0.450606
926.536708	0.449957
926.716193	0.447850
926.895660	0.446417
927.075109	0.444603
927.254539	0.444178
927.433951	0.443361
927.613345	0.441422
927.792721	0.440110
927.972079	0.439596
928.151418	0.437700
928.330739	0.436214
928.510042	0.434277
928.689327	0.434211
928.868593	0.431918
929.047841	0.430853
929.227071	0.430053
929.406283	0.428200
929.585476	0.426544
929.764652	0.425526
929.943809	0.424873
930.122948	0.424246
930.302068	0.422193
930.481171	0.421212
930.660255	0.420255
930.839321	0.419334
931.018369	0.418592
931.197398	0.418334
931.376409	0.417937
931.555402	0.417190
931.734377	0.416298
931.913334	0.414677
932.092272	0.414016
932.271192	0.412821
932.450094	0.411850
932.628978	0.411236
932.807844	0.409161
932.986691	0.406122
933.165520	0.405152
933.344331	0.403451
933.523123	0.402640
933.701898	0.401228
933.880654	0.399936
934.059392	0.398616
934.238111	0.397304
934.416813	0.396100
934.595496	0.395073
934.774161	0.391880
934.952808	0.390768
935.131437	0.389018
935.310047	0.387142
935.488639	0.386256
935.667213	0.384238
935.845769	0.381901
936.024306	0.380586
936.202825	0.379910
936.381326	0.379496
936.559809	0.376915
936.738274	0.375569
936.916720	0.374537
937.095148	0.371905
937.273558	0.370186
937.451950	0.368461
937.630323	0.367224
937.808678	0.364999
937.987015	0.364122
938.165334	0.362419
938.343635	0.362111
938.521917	0.360293
938.700181	0.358875
938.878427	0.357801
939.056655	0.357136
939.234864	0.355124
939.413055	0.353363
939.591228	0.351514
939.769383	0.351402
939.947519	0.348661
940.125638	0.346636
940.303738	0.345912
940.481820	0.344867
940.659883	0.342797
940.837929	0.340928
941.015956	0.339962
941.193965	0.338266
941.371955	0.335353
941.549928	0.334705
941.727882	0.333337
941.905818	0.331404
942.083736	0.329196
942.261636	0.328930
942.439517	0.327483
942.617380	0.326436
942.795225	0.325341
942.973052	0.325721
943.150860	0.323605
943.328651	0.323407
943.506423	0.321390
943.684176	0.320402
943.861912	0.318461
944.039629	0.318621
944.217328	0.316371
944.395009	0.314640
944.572672	0.313104
944.750317	0.312851
944.927943	0.310631
945.105551	0.309907
945.283141	0.307883
945.460712	0.306581
945.638265	0.302633
945.815801	0.300890
945.993317	0.298620
946.170816	0.295871
946.348297	0.291405
946.525759	0.290440
946.703203	0.287015
946.880629	0.284580
947.058036	0.282351
947.235425	0.283354
947.412797	0.282262
947.590149	0.283120
947.767484	0.282831
947.944800	0.284890
948.122099	0.282176
948.299379	0.281715
948.476640	0.281343
948.653884	0.279660
948.831109	0.277280
949.008316	0.276844
949.185505	0.273473
949.362676	0.271103
949.539828	0.267551
949.716962	0.266406
949.894078	0.266009
950.071176	0.263656
950.248256	0.262979
950.425317	0.260777
950.602360	0.258705
950.779385	0.256473
950.956391	0.252640
951.133380	0.249780
951.310350	0.246571
951.487302	0.245691
951.664235	0.244879
951.841151	0.243868
952.018048	0.243271
952.194927	0.241993
952.371788	0.241517
952.548631	0.243525
952.725455	0.241973
952.902261	0.242883
953.079049	0.240260
953.255819	0.236690
953.432570	0.233848
953.609303	0.231849
953.786018	0.229196
953.962715	0.227439
954.139394	0.222337
954.316054	0.222230
954.492696	0.219461
954.669320	0.220340
954.845926	0.219918
955.022513	0.219253
955.199083	0.218146
955.375634	0.216474
955.552166	0.215934
955.728681	0.216793
955.905177	0.215190
956.081655	0.216722
956.258115	0.212932
956.434557	0.212856
956.610980	0.211142
956.787385	0.208733
956.963772	0.208561
957.140141	0.206616
957.316492	0.206704
957.492824	0.205976
957.669138	0.201463
957.845434	0.201058
958.021712	0.199975
958.197971	0.199627
958.374212	0.200231
958.550435	0.197909
958.726640	0.198591
958.902826	0.195736
959.078995	0.195694
959.255145	0.194952
959.431277	0.195940
959.607390	0.195301
959.783486	0.193312
959.959563	0.191155
960.135622	0.191680
960.311662	0.188511
960.487685	0.189419
960.663689	0.186972
960.839675	0.186301
961.015643	0.182857
961.191593	0.183329
961.367524	0.182722
961.543437	0.180907
961.719332	0.178928
961.895209	0.176771
962.071067	0.176910
962.246907	0.177930
962.422730	0.178541
962.598533	0.178958
962.774319	0.176247
962.950086	0.176367
963.125835	0.177318
963.301566	0.175736
963.477279	0.175666
963.652973	0.173889
963.828650	0.173218
964.004308	0.173923
964.179947	0.172391
964.355569	0.171534
964.531172	0.169709
964.706757	0.169314
964.882324	0.167750
965.057873	0.168053
965.233403	0.165683
965.408916	0.162996
965.584410	0.161535
965.759885	0.161606
965.935343	0.163326
966.110782	0.167866
966.286203	0.169748
966.461606	0.173297
966.636991	0.175692
966.812357	0.178116
966.987705	0.180481
967.163035	0.179047
967.338347	0.177733
967.513641	0.176060
967.688916	0.173303
967.864173	0.171459
968.039412	0.172299
968.214632	0.168919
968.389835	0.166766
968.565019	0.164913
968.740185	0.166848
968.915333	0.169676
969.090462	0.167295
969.265573	0.164981
969.440667	0.163891
969.615741	0.163905
969.790798	0.163995
969.965836	0.163412
970.140856	0.165328
970.315858	0.164343
970.490842	0.164307
970.665808	0.164665
970.840755	0.167290
971.015684	0.167028
971.190595	0.165906
971.365487	0.168680
971.540362	0.170293
971.715218	0.168252
971.890056	0.167965
972.064875	0.167652
972.239677	0.168125
972.414460	0.166300
972.589225	0.167113
972.763972	0.164874
972.938700	0.163065
973.113411	0.162652
973.288103	0.161821
973.462777	0.162553
973.637432	0.163269
973.812070	0.164908
973.986689	0.165155
974.161290	0.165486
974.335873	0.165558
974.510437	0.165671
974.684984	0.165909
974.859512	0.167815
975.034022	0.166360
975.208513	0.163970
975.382987	0.164129
975.557442	0.166723
975.731879	0.167045
975.906298	0.169064
976.080698	0.168849
976.255080	0.169008
976.429445	0.167656
976.603790	0.167804
976.778118	0.168686
976.952427	0.168051
977.126719	0.165065
977.300992	0.163883
977.475246	0.163180
977.649483	0.162393
977.823701	0.162686
977.997901	0.163014
978.172083	0.163697
978.346247	0.162835
978.520392	0.163307
978.694519	0.163867
978.868628	0.165129
979.042719	0.166430
979.216791	0.167469
979.390845	0.165783
979.564882	0.166574
979.738899	0.167294
979.912899	0.166395
980.086880	0.165727
980.260843	0.164068
980.434788	0.164198
980.608715	0.163672
980.782623	0.163094
980.956514	0.165280
981.130386	0.165262
981.304240	0.165038
981.478075	0.164531
981.651892	0.164724
981.825692	0.165125
981.999472	0.162721
982.173235	0.160457
982.346980	0.160811
982.520706	0.160081
982.694414	0.158933
982.868104	0.159015
983.041775	0.161405
983.215428	0.160924
983.389064	0.162030
983.562680	0.160614
983.736279	0.160741
983.909860	0.159301
984.083422	0.160083
984.256966	0.162086
984.430491	0.162171
984.603999	0.160328
984.777488	0.160225
984.950959	0.159237
985.124412	0.162844
985.297847	0.165118
985.471263	0.165853
985.644661	0.163563
985.818041	0.161094
985.991403	0.157404
986.164747	0.156576
986.338072	0.156088
986.511379	0.156819
986.684668	0.154813
986.857938	0.153057
987.031191	0.153818
987.204425	0.153960
987.377641	0.157000
987.550839	0.161260
987.724018	0.162178
987.897179	0.163550
988.070322	0.163400
988.243447	0.162955
988.416554	0.163944
988.589642	0.162958
988.762712	0.161633
988.935764	0.160018
989.108798	0.159351
989.281813	0.161243
989.454811	0.160187
989.627790	0.161234
989.800751	0.161370
989.973693	0.162028
990.146617	0.162924
990.319524	0.164641
990.492412	0.164125
990.665281	0.163069
990.838133	0.163449
991.010966	0.165439
991.183781	0.165906
991.356578	0.166720
991.529356	0.167792
991.702117	0.167213
991.874859	0.167924
992.047583	0.169062
992.220288	0.171379
992.392976	0.169383
992.565645	0.168828
992.738296	0.165769
992.910929	0.166034
993.083543	0.164124
993.256139	0.165611
993.428718	0.164129
993.601277	0.162121
993.773819	0.160344
993.946342	0.157727
994.118848	0.157197
994.291335	0.158644
994.463803	0.157626
994.636254	0.157348
994.808686	0.156176
994.981100	0.155659
995.153496	0.155210
995.325874	0.155255
995.498233	0.158162
995.670574	0.156400
995.842897	0.157143
996.015202	0.158279
996.187488	0.157692
996.359757	0.158651
996.532007	0.161419
996.704239	0.161576
996.876452	0.161035
997.048648	0.161097
997.220825	0.163787
997.392984	0.165527
997.565124	0.164859
997.737247	0.167848
997.909351	0.166791
998.081437	0.165815
998.253505	0.169069
998.425554	0.169647
998.597586	0.168428
998.769599	0.168258
998.941594	0.166042
999.113571	0.166652
999.285529	0.163973
999.457469	0.163879
999.629391	0.164947
999.801295	0.163231
999.973181	0.164038
1000.145048	0.165270
1000.316897	0.164545
1000.488728	0.163692
1000.660541	0.163827
1000.832335	0.163311
1001.004111	0.163141
1001.175869	0.161276
1001.347609	0.162127
1001.519331	0.163588
1001.691034	0.163717
1001.862719	0.161892
1002.034386	0.161823
1002.206035	0.159755
1002.377665	0.161353
1002.549277	0.162283
1002.720871	0.161496
1002.892447	0.160038
1003.064004	0.157438
1003.235544	0.155982
1003.407065	0.159308
1003.578568	0.160597
1003.750052	0.163131
1003.921519	0.161863
1004.092967	0.161411
1004.264397	0.163909
1004.435809	0.163009
1004.607202	0.164290
1004.778577	0.165406
1004.949934	0.165316
1005.121273	0.163188
1005.292594	0.161626
1005.463896	0.163246
1005.635180	0.162443
1005.806446	0.160651
1005.977694	0.162549
1006.148923	0.160318
1006.320135	0.160799
1006.491328	0.157656
1006.662503	0.158887
1006.833659	0.160545
1007.004798	0.158367
1007.175918	0.159331
1007.347020	0.160458
1007.518103	0.159124
1007.689169	0.158986
1007.860216	0.158962
1008.031245	0.160543
1008.202256	0.160034
1008.373248	0.157881
1008.544223	0.159495
1008.715179	0.160076
1008.886117	0.161489
1009.057036	0.163582
1009.227938	0.165679
1009.398821	0.164060
1009.569686	0.165453
1009.740533	0.164742
1009.911361	0.165040
1010.082172	0.164980
1010.252964	0.163210
1010.423738	0.161568
1010.594493	0.159543
1010.765231	0.158868
1010.935950	0.161393
1011.106651	0.159333
1011.277334	0.161065
1011.447998	0.162835
1011.618645	0.164328
1011.789273	0.165846
1011.959882	0.167555
1012.130474	0.167993
1012.301048	0.168622
1012.471603	0.167489
1012.642140	0.165781
1012.812658	0.164126
1012.983159	0.162863
1013.153641	0.159043
1013.324105	0.158002
1013.494551	0.155198
1013.664979	0.155284
1013.835388	0.155323
1014.005779	0.155413
1014.176152	0.157636
1014.346507	0.158557
1014.516843	0.157878
1014.687162	0.159648
1014.857462	0.159511
1015.027744	0.161370
1015.198007	0.162349
1015.368252	0.162683
1015.538480	0.163389
1015.708689	0.162985
1015.878879	0.162651
1016.049052	0.163132
1016.219206	0.162461
1016.389342	0.164182
1016.559460	0.161993
1016.729559	0.161843
1016.899641	0.161398
1017.069704	0.159085
1017.239749	0.160474
1017.409775	0.161153
1017.579784	0.160610
1017.749774	0.162463
1017.919746	0.163469
1018.089700	0.162676
1018.259635	0.161187
1018.429553	0.160404
1018.599452	0.162280
1018.769333	0.161471
1018.939195	0.160298
1019.109040	0.160432
1019.278866	0.158474
1019.448674	0.154982
1019.618464	0.159665
1019.788235	0.159528
1019.957989	0.159467
1020.127724	0.158227
1020.297441	0.159947
1020.467139	0.162093
1020.636820	0.162537
1020.806482	0.163182
1020.976126	0.162712
1021.145752	0.159610
1021.315359	0.159775
1021.484948	0.160061
1021.654519	0.159033
1021.824072	0.157982
1021.993607	0.156230
1022.163123	0.155670
1022.332621	0.155621
1022.502101	0.157487
1022.671563	0.156984
1022.841007	0.158834
1023.010432	0.159197
1023.179839	0.160079
1023.349228	0.159477
1023.518598	0.159268
1023.687951	0.157801
1023.857285	0.157552
1024.026601	0.156659
1024.195899	0.156543
1024.365178	0.154872
1024.534439	0.156450
1024.703682	0.157495
1024.872907	0.157229
1025.042114	0.156083
1025.211302	0.157271
1025.380472	0.157575
1025.549624	0.158377
1025.718758	0.158581
1025.887873	0.159903
1026.056970	0.157792
1026.226049	0.156565
1026.395110	0.157025
1026.564153	0.160976
1026.733177	0.163170
1026.902183	0.163651
1027.071171	0.164317
1027.240141	0.165184
1027.409092	0.163207
1027.578026	0.163991
1027.746940	0.164719
1027.915837	0.163958
1028.084716	0.159577
1028.253576	0.157966
1028.422418	0.155417
1028.591242	0.154304
1028.760048	0.154802
1028.928835	0.156279
1029.097604	0.154952
1029.266355	0.153727
1029.435088	0.154539
1029.603803	0.158909
1029.772499	0.160600
1029.941177	0.160869
1030.109837	0.161317
1030.278478	0.161564
1030.447102	0.160983
1030.615707	0.160406
1030.784294	0.161310
1030.952863	0.161332
1031.121413	0.158823
1031.289945	0.157872
1031.458460	0.158061
1031.626955	0.156291
1031.795433	0.152872
1031.963892	0.151480
1032.132334	0.152943
1032.300756	0.155474
1032.469161	0.155203
1032.637548	0.155066
1032.805916	0.155659
1032.974266	0.156141
1033.142598	0.156096
1033.310911	0.158140
1033.479207	0.159378
1033.647484	0.156368
1033.815743	0.153922
1033.983983	0.152474
1034.152206	0.153780
1034.320410	0.152433
1034.488596	0.152468
1034.656764	0.153886
1034.824914	0.154678
1034.993045	0.155379
1035.161158	0.158104
1035.329253	0.158299
1035.497330	0.159399
1035.665388	0.158358
1035.833428	0.159848
1036.001450	0.159952
1036.169454	0.160360
1036.337440	0.159587
1036.505407	0.157958
1036.673356	0.156508
1036.841287	0.154678
1037.009200	0.154033
1037.177094	0.154817
1037.344970	0.152361
1037.512828	0.152469
1037.680668	0.151768
1037.848489	0.152285
1038.016293	0.154396
1038.184078	0.154199
1038.351845	0.155732
1038.519593	0.155916
1038.687324	0.155134
1038.855036	0.155578
1039.022730	0.157099
1039.190406	0.157985
1039.358063	0.156383
1039.525702	0.156157
1039.693323	0.157883
1039.860926	0.156358
1040.028511	0.156623
1040.196077	0.157137
1040.363625	0.160590
1040.531155	0.158851
1040.698667	0.159163
1040.866161	0.160061
1041.033636	0.158130
1041.201093	0.157987
1041.368532	0.160479
1041.535952	0.159535
1041.703355	0.157567
1041.870739	0.155050
1042.038105	0.155883
1042.205452	0.157147
1042.372782	0.156023
1042.540093	0.157304
1042.707386	0.157772
1042.874661	0.154505
1043.041918	0.155684
1043.209156	0.158417
1043.376376	0.159763
1043.543578	0.159826
1043.710762	0.158021
1043.877927	0.160156
1044.045074	0.159248
1044.212203	0.158876
1044.379314	0.162268
1044.546407	0.161725
1044.713481	0.162114
1044.880537	0.160810
1045.047575	0.161883
1045.214595	0.159632
1045.381596	0.158649
1045.548579	0.159552
1045.715544	0.158871
1045.882491	0.159842
1046.049420	0.160548
1046.216330	0.157627
1046.383222	0.157536
1046.550096	0.155727
1046.716951	0.158554
1046.883789	0.158006
1047.050608	0.159150
1047.217409	0.159980
1047.384192	0.158834
1047.550956	0.160506
1047.717703	0.162416
1047.884431	0.161788
1048.051140	0.163563
1048.217832	0.160554
1048.384505	0.162461
1048.551161	0.161575
1048.717798	0.160123
1048.884416	0.159527
1049.051017	0.157249
1049.217599	0.156027
1049.384163	0.156064
1049.550709	0.154681
1049.717237	0.156980
1049.883746	0.155478
1050.050237	0.155065
1050.216710	0.157253
1050.383165	0.157269
1050.549601	0.156248
1050.716019	0.156458
1050.882420	0.157292
1051.048801	0.157488
1051.215165	0.159462
1051.381510	0.158793
1051.547837	0.158845
1051.714146	0.158043
1051.880437	0.157050
1052.046709	0.156695
1052.212964	0.155808
1052.379200	0.155544
1052.545417	0.156247
1052.711617	0.156243
1052.877798	0.157383
1053.043961	0.158222
1053.210106	0.158350
1053.376233	0.158219
1053.542341	0.159352
1053.708432	0.161994
1053.874504	0.162727
1054.040557	0.161143
1054.206593	0.157974
1054.372610	0.158146
1054.538609	0.157827
1054.704590	0.157226
1054.870553	0.158297
1055.036497	0.158964
1055.202424	0.159241
1055.368331	0.158572
1055.534221	0.159105
1055.700093	0.161029
1055.865946	0.159914
1056.031781	0.159403
1056.197598	0.158159
1056.363397	0.157886
1056.529177	0.157757
1056.694939	0.155908
1056.860683	0.154571
1057.026409	0.154216
1057.192116	0.155412
1057.357806	0.155897
1057.523477	0.156365
1057.689130	0.155224
1057.854764	0.156565
1058.020381	0.156852
1058.185979	0.156323
1058.351559	0.160016
1058.517120	0.159578
1058.682664	0.156914
1058.848189	0.158077
1059.013696	0.156759
1059.179185	0.160468
1059.344656	0.161666
1059.510108	0.161073
1059.675542	0.161688
1059.840958	0.159282
1060.006356	0.159146
1060.171735	0.159282
1060.337096	0.159120
1060.502439	0.159617
1060.667764	0.156827
1060.833071	0.154681
1060.998359	0.156316
1061.163629	0.156361
1061.328881	0.156386
1061.494115	0.157580
1061.659330	0.159277
1061.824527	0.158412
1061.989706	0.158368
1062.154867	0.160301
1062.320010	0.160686
1062.485134	0.160599
1062.650240	0.163900
1062.815328	0.166147
1062.980398	0.166074
1063.145449	0.164746
1063.310482	0.166614
1063.475497	0.166290
1063.640494	0.166748
1063.805473	0.166874
1063.970433	0.167832
1064.135375	0.165590
1064.300299	0.161365
1064.465204	0.163474
1064.630092	0.163174
1064.794961	0.161337
1064.959812	0.161816
1065.124645	0.163094
1065.289459	0.162395
1065.454256	0.159843
1065.619034	0.160582
1065.783793	0.161210
1065.948535	0.160886
1066.113258	0.160120
1066.277964	0.160712
1066.442651	0.160720
1066.607319	0.159482
1066.771970	0.161135
1066.936602	0.162361
1067.101216	0.161282
1067.265812	0.166432
1067.430389	0.164723
1067.594949	0.168112
1067.759490	0.168831
1067.924013	0.168763
1068.088518	0.170464
1068.253004	0.167925
1068.417472	0.169101
1068.581922	0.169733
1068.746354	0.167423
1068.910768	0.167435
1069.075163	0.164977
1069.239540	0.165800
1069.403899	0.166017
1069.568240	0.164972
1069.732562	0.167705
1069.896866	0.164653
1070.061152	0.163569
1070.225420	0.165933
1070.389670	0.165404
1070.553901	0.168172
1070.718114	0.166517
1070.882309	0.166925
1071.046486	0.166602
1071.210644	0.165701
1071.374784	0.167996
1071.538906	0.170222
1071.703010	0.168364
1071.867096	0.167459
1072.031163	0.165369
1072.195212	0.166771
1072.359243	0.167103
1072.523256	0.166800
1072.687250	0.165637
1072.851226	0.166435
1073.015184	0.164999
1073.179124	0.163551
1073.343045	0.168698
1073.506949	0.169866
1073.670834	0.167746
1073.834701	0.166091
1073.998549	0.166849
1074.162380	0.168021
1074.326192	0.165246
1074.489986	0.165766
1074.653761	0.165916
1074.817519	0.163202
1074.981258	0.163599
1075.144979	0.170631
1075.308682	0.170678
1075.472367	0.169773
1075.636033	0.169120
1075.799681	0.170134
1075.963311	0.169539
1076.126923	0.169270
1076.290516	0.169081
1076.454092	0.167408
1076.617649	0.163971
1076.781187	0.165748
1076.944708	0.167091
1077.108210	0.169711
1077.271695	0.170388
1077.435160	0.169551
1077.598608	0.168741
1077.762038	0.168413
1077.925449	0.168829
1078.088842	0.169205
1078.252217	0.172617
1078.415573	0.171320
1078.578912	0.169534
1078.742232	0.171157
1078.905534	0.172170
1079.068817	0.174756
1079.232083	0.176657
1079.395330	0.177254
1079.558559	0.175988
1079.721770	0.173105
1079.884962	0.173148
1080.048136	0.174887
1080.211293	0.175895
1080.374430	0.175486
1080.537550	0.175176
1080.700651	0.174322
1080.863735	0.172404
1081.026800	0.172083
1081.189846	0.173100
1081.352875	0.175745
1081.515885	0.175711
1081.678877	0.173549
1081.841851	0.175489
1082.004807	0.173348
1082.167744	0.177314
1082.330663	0.178450
1082.493564	0.177312
1082.656447	0.174025
1082.819312	0.172429
1082.982158	0.173152
1083.144986	0.173597
1083.307796	0.175293
1083.470587	0.177131
1083.633361	0.172670
1083.796116	0.173413
1083.958853	0.174136
1084.121571	0.174361
1084.284272	0.173098
1084.446954	0.174786
1084.609618	0.176683
1084.772264	0.174363
1084.934892	0.173475
1085.097501	0.175660
1085.260092	0.174708
1085.422665	0.176229
1085.585220	0.180294
1085.747756	0.179986
1085.910274	0.175283
1086.072774	0.173992
1086.235256	0.171267
1086.397720	0.172452
1086.560165	0.173658
1086.722592	0.177170
1086.885001	0.176864
1087.047392	0.179050
1087.209764	0.180706
1087.372119	0.184097
1087.534455	0.182375
1087.696772	0.185762
1087.859072	0.186222
1088.021353	0.185943
1088.183616	0.184349
1088.345861	0.185123
1088.508088	0.182610
1088.670296	0.183615
1088.832486	0.179715
1088.994658	0.179187
1089.156812	0.181526
1089.318948	0.182541
1089.481065	0.178523
1089.643164	0.179073
1089.805245	0.177695
1089.967308	0.174667
1090.129352	0.172812
1090.291378	0.174570
1090.453386	0.174108
1090.615376	0.170536
1090.777347	0.169313
1090.939301	0.175298
1091.101236	0.174421
1091.263153	0.174514
1091.425051	0.174183
1091.586932	0.174452
1091.748794	0.174551
1091.910638	0.178377
1092.072463	0.180461
1092.234271	0.179947
1092.396060	0.176758
1092.557831	0.174876
1092.719584	0.175826
1092.881319	0.179852
1093.043035	0.182981
1093.204733	0.182880
1093.366413	0.181294
1093.528075	0.176953
1093.689718	0.177228
1093.851343	0.180926
1094.012950	0.181096
1094.174539	0.178776
1094.336110	0.178319
1094.497662	0.173851
1094.659196	0.177572
1094.820712	0.176078
1094.982210	0.179214
1095.143689	0.178638
1095.305151	0.177329
1095.466594	0.177457
1095.628018	0.179005
1095.789425	0.176307
1095.950813	0.179439
1096.112183	0.177714
1096.273535	0.176450
1096.434869	0.179417
1096.596184	0.178679
1096.757482	0.176594
1096.918761	0.178352
1097.080021	0.179821
1097.241264	0.182145
1097.402488	0.183548
1097.563694	0.182546
1097.724882	0.182468
1097.886052	0.179933
1098.047203	0.183069
1098.208336	0.185615
1098.369451	0.187005
1098.530548	0.189796
1098.691627	0.193091
1098.852687	0.187549
1099.013729	0.189173
1099.174753	0.194666
1099.335758	0.194174
1099.496746	0.194662
1099.657715	0.191244
1099.818666	0.193207
1099.979599	0.189132
1100.140513	0.179818
1100.301409	0.185222
1100.462287	0.185889
1100.623147	0.183995
1100.783989	0.189940
1100.944812	0.188644
1101.105617	0.189110
1101.266404	0.186353
1101.427173	0.186786
1101.587923	0.194116
1101.748656	0.194266
1101.909370	0.199812
1102.070066	0.197987
1102.230743	0.193922
1102.391403	0.196975
1102.552044	0.196120
1102.712667	0.195239
1102.873271	0.196967
1103.033858	0.198041
1103.194426	0.199608
1103.354976	0.196618
1103.515508	0.200378
1103.676021	0.201820
1103.836517	0.199809
1103.996994	0.197543
1104.157453	0.202997
1104.317893	0.201064
1104.478316	0.201059
1104.638720	0.199222
1104.799106	0.195965
1104.959474	0.196412
1105.119823	0.197487
1105.280155	0.192826
1105.440468	0.194192
1105.600763	0.190980
1105.761039	0.192265
1105.921298	0.189946
1106.081538	0.188113
1106.241760	0.188196
1106.401964	0.187155
1106.562149	0.183924
1106.722316	0.187852
1106.882465	0.188712
1107.042596	0.186431
1107.202709	0.187642
1107.362803	0.189717
1107.522879	0.189527
1107.682937	0.184462
1107.842977	0.183527
1108.002999	0.182503
1108.163002	0.185196
1108.322987	0.185241
1108.482954	0.191056
1108.642902	0.190596
1108.802833	0.189427
1108.962745	0.190570
1109.122639	0.195903
1109.282515	0.199213
1109.442372	0.207081
1109.602211	0.203039
1109.762032	0.203912
1109.921835	0.199567
1110.081620	0.194817
1110.241386	0.190936
1110.401134	0.189544
1110.560864	0.189046
1110.720576	0.186861
1110.880269	0.180014
1111.039945	0.182141
1111.199602	0.180143
1111.359240	0.177434
1111.518861	0.179810
1111.678463	0.187053
1111.838047	0.194088
1111.997613	0.192371
1112.157161	0.188954
1112.316690	0.192734
1112.476202	0.190230
1112.635695	0.198334
1112.795169	0.199755
1112.954626	0.201537
1113.114064	0.197869
1113.273484	0.193665
1113.432886	0.198768
1113.592270	0.201759
1113.751635	0.198648
1113.910983	0.202689
1114.070312	0.194958
1114.229622	0.196028
1114.388915	0.194914
1114.548189	0.197508
1114.707445	0.194172
1114.866683	0.191802
1115.025903	0.191463
1115.185104	0.190621
1115.344287	0.187189
1115.503452	0.190712
1115.662599	0.197019
1115.821727	0.195385
1115.980838	0.193698
1116.139930	0.198290
1116.299004	0.196190
1116.458059	0.203160
1116.617097	0.202995
1116.776116	0.209863
1116.935117	0.215274
1117.094099	0.210640
1117.253064	0.211267
1117.412010	0.211503
1117.570938	0.217119
1117.729848	0.218108
1117.888740	0.215484
1118.047613	0.217713
1118.206468	0.216864
1118.365305	0.207702
1118.524124	0.214695
1118.682924	0.218591
1118.841707	0.218124
1119.000471	0.217327
1119.159216	0.214756
1119.317944	0.215184
1119.476653	0.217814
1119.635344	0.211721
1119.794017	0.217808
1119.952672	0.210582
1120.111308	0.206080
1120.269927	0.202380
1120.428527	0.195138
1120.587108	0.198403
1120.745672	0.198117
1120.904217	0.196901
1121.062744	0.198887
1121.221253	0.194323
1121.379744	0.194657
1121.538216	0.196774
1121.696671	0.205681
1121.855107	0.208248
1122.013524	0.214300
1122.171924	0.213487
1122.330305	0.209167
1122.488668	0.213185
1122.647013	0.216177
1122.805340	0.223463
1122.963648	0.224954
1123.121938	0.219618
1123.280210	0.214471
1123.438464	0.211773
1123.596700	0.208709
1123.754917	0.215432
1123.913116	0.209386
1124.071297	0.209607
1124.229459	0.205630
1124.387604	0.206578
1124.545730	0.204548
1124.703838	0.209103
1124.861928	0.214344
1125.019999	0.218062
1125.178052	0.215629
1125.336088	0.217332
1125.494104	0.211196
1125.652103	0.203592
1125.810083	0.198673
1125.968045	0.205671
1126.125989	0.203072
1126.283915	0.199573
1126.441823	0.191579
1126.599712	0.191853
1126.757583	0.197564
1126.915436	0.199699
1127.073270	0.205597
1127.231087	0.209667
1127.388885	0.204996
1127.546665	0.209795
1127.704426	0.205128
1127.862170	0.210546
1128.019895	0.209567
1128.177602	0.203388
1128.335291	0.218114
1128.492961	0.212697
1128.650614	0.209828
1128.808248	0.219528
1128.965864	0.220060
1129.123461	0.223009
1129.281041	0.226574
1129.438602	0.226514
1129.596145	0.229758
1129.753670	0.218418
1129.911176	0.219283
1130.068665	0.217326
1130.226135	0.213395
1130.383587	0.211262
1130.541020	0.206401
1130.698436	0.204204
1130.855833	0.207671
1131.013212	0.209192
1131.170573	0.214710
1131.327915	0.221768
1131.485239	0.226758
1131.642545	0.225050
1131.799833	0.228853
1131.957103	0.227751
1132.114354	0.226207
1132.271588	0.218044
1132.428803	0.213279
1132.585999	0.211973
1132.743178	0.217280
1132.900338	0.218869
1133.057480	0.207577
1133.214604	0.204543
1133.371710	0.215293
1133.528797	0.213012
1133.685866	0.217226
1133.842917	0.220612
1133.999950	0.219207
1134.156964	0.210638
1134.313960	0.210450
1134.470938	0.217621
1134.627898	0.214925
1134.784840	0.199650
1134.941763	0.199587
1135.098668	0.196220
1135.255555	0.192563
1135.412424	0.180788
1135.569274	0.183490
1135.726107	0.185528
1135.882921	0.185470
1136.039716	0.188765
1136.196494	0.193232
1136.353253	0.204368
1136.509995	0.211342
1136.666717	0.221862
1136.823422	0.225800
1136.980109	0.223071
1137.136777	0.225875
1137.293427	0.222773
1137.450059	0.216527
1137.606672	0.225491
1137.763267	0.216671
1137.919844	0.214800
1138.076403	0.214700
1138.232944	0.225694
1138.389466	0.224214
1138.545971	0.222484
1138.702457	0.224680
1138.858924	0.228768
1139.015374	0.223153
1139.171805	0.229399
1139.328218	0.231342
1139.484613	0.222979
1139.640990	0.212810
1139.797348	0.209668
1139.953688	0.208774
1140.110010	0.210790
1140.266314	0.209706
1140.422600	0.211905
1140.578867	0.206268
1140.735116	0.196142
1140.891347	0.195689
1141.047559	0.206949
1141.203754	0.204989
1141.359930	0.198277
1141.516088	0.197794
1141.672228	0.197673
1141.828349	0.192471
1141.984452	0.187849
1142.140537	0.191058
1142.296604	0.187043
1142.452653	0.180713
1142.608683	0.191036
1142.764695	0.203343
1142.920689	0.215987
1143.076665	0.222839
1143.232622	0.220189
1143.388562	0.236099
1143.544483	0.234936
1143.700385	0.239736
1143.856270	0.247391
1144.012136	0.240967
1144.167985	0.230789
1144.323814	0.223966
1144.479626	0.216231
1144.635420	0.222790
1144.791195	0.209108
1144.946952	0.213742
1145.102691	0.212759
1145.258411	0.200216
1145.414113	0.195091
1145.569798	0.198927
1145.725463	0.198210
1145.881111	0.200068
1146.036741	0.206816
1146.192352	0.211522
1146.347945	0.220994
1146.503519	0.222941
1146.659076	0.235588
1146.814614	0.241802
1146.970134	0.242864
1147.125636	0.241748
1147.281120	0.240670
1147.436585	0.227781
1147.592032	0.218005
1147.747461	0.206061
1147.902872	0.206769
1148.058265	0.193391
1148.213639	0.203886
1148.368995	0.198548
1148.524333	0.210253
1148.679653	0.210649
1148.834954	0.205107
1148.990237	0.211116
1149.145502	0.213237
1149.300749	0.205806
1149.455977	0.211222
1149.611188	0.193564
1149.766380	0.188518
1149.921553	0.169126
1150.076709	0.181623
1150.231846	0.186780
1150.386966	0.184665
1150.542066	0.175014
1150.697149	0.183736
1150.852214	0.189619
1151.007260	0.203742
1151.162288	0.215365
1151.317298	0.209205
1151.472289	0.193299
1151.627263	0.202701
1151.782218	0.212554
1151.937155	0.230120
1152.092073	0.230845
1152.246974	0.241169
1152.401856	0.229363
1152.556720	0.227795
1152.711566	0.245091
1152.866393	0.248645
1153.021203	0.248096
1153.175994	0.237049
1153.330767	0.223640
1153.485521	0.217657
1153.640258	0.206524
1153.794976	0.216466
1153.949676	0.204999
1154.104358	0.191492
1154.259021	0.192118
1154.413667	0.183070
1154.568294	0.197293
1154.722903	0.201431
1154.877493	0.202750
1155.032066	0.192881
1155.186620	0.194284
1155.341156	0.202757
1155.495674	0.207385
1155.650173	0.207456
1155.804654	0.210757
1155.959118	0.191130
1156.113562	0.198731
1156.267989	0.193761
1156.422397	0.190940
1156.576788	0.195265
1156.731160	0.184601
1156.885513	0.189092
1157.039849	0.188575
1157.194166	0.186379
1157.348465	0.192043
1157.502746	0.189940
1157.657009	0.196017
1157.811253	0.202791
1157.965479	0.190910
1158.119687	0.209468
1158.273877	0.203838
1158.428048	0.204247
1158.582201	0.211139
1158.736337	0.219663
1158.890453	0.204394
1159.044552	0.203880
1159.198632	0.203291
1159.352694	0.192367
1159.506738	0.184855
1159.660764	0.187324
1159.814771	0.183583
1159.968761	0.177214
1160.122732	0.171562
1160.276685	0.188113
1160.430619	0.183841
1160.584535	0.195069
1160.738434	0.211230
1160.892313	0.208979
1161.046175	0.220372
1161.200019	0.223737
1161.353844	0.228166
1161.507651	0.245857
1161.661440	0.231516
1161.815210	0.228901
1161.968962	0.233669
1162.122697	0.228154
1162.276412	0.231153
1162.430110	0.233251
1162.583789	0.222454
1162.737451	0.220697
1162.891094	0.217917
1163.044718	0.220027
1163.198325	0.237678
1163.351913	0.220554
1163.505483	0.228929
1163.659035	0.230216
1163.812569	0.215317
1163.966084	0.222664
1164.119581	0.224267
1164.273060	0.208243
1164.426521	0.216229
1164.579964	0.213802
1164.733388	0.213620
1164.886794	0.205456
1165.040182	0.205925
1165.193551	0.216552
1165.346903	0.227236
1165.500236	0.220715
1165.653551	0.223133
1165.806848	0.238881
1165.960126	0.231628
1166.113386	0.228814
1166.266628	0.232523
1166.419852	0.220468
1166.573058	0.213402
1166.726245	0.199160
1166.879414	0.217353
1167.032565	0.226003
1167.185698	0.201781
1167.338812	0.194219
1167.491909	0.201956
1167.644987	0.188730
1167.798046	0.203897
1167.951088	0.185563
1168.104111	0.192441
1168.257117	0.188546
1168.410103	0.184455
1168.563072	0.190409
1168.716023	0.199810
1168.868955	0.200409
1169.021869	0.207745
1169.174765	0.190970
1169.327642	0.194295
1169.480501	0.179688
1169.633343	0.161589
1169.786165	0.160577
1169.938970	0.157560
1170.091757	0.161229
1170.244525	0.169611
1170.397275	0.163900
1170.550007	0.172002
1170.702720	0.169854
1170.855415	0.171330
1171.008092	0.177718
1171.160751	0.170085
1171.313392	0.169435
1171.466014	0.087932
1171.618619	0.169284
1171.771205	0.169284
1171.923772	0.169284
