sample name	sample
index	405
start time	 03-08-2021  10:40:24 AM


Wavelength (nm)	Absorbance
494.344910	0.042051
494.563924	0.042051
494.782919	0.042051
495.001897	-0.129385
495.220856	-0.018463
495.439797	-0.022802
495.658719	-0.046678
495.877624	-0.072647
496.096510	-0.055551
496.315378	-0.047647
496.534227	-0.071480
496.753059	-0.123519
496.971872	-0.094874
497.190667	0.022976
497.409444	0.046675
497.628203	0.055847
497.846943	0.059002
498.065665	0.060334
498.284369	0.062582
498.503055	0.066123
498.721723	0.067730
498.940372	0.067899
499.159003	0.068977
499.377616	0.069668
499.596210	0.068800
499.814787	0.069203
500.033345	0.069594
500.251885	0.068000
500.470406	0.066323
500.688910	0.066243
500.907395	0.066307
501.125862	0.066792
501.344311	0.066012
501.562742	0.066764
501.781154	0.067180
501.999548	0.066962
502.217924	0.067716
502.436282	0.068414
502.654621	0.068266
502.872942	0.068209
503.091245	0.068315
503.309530	0.068643
503.527797	0.069197
503.746045	0.069246
503.964275	0.068859
504.182487	0.070042
504.400681	0.069720
504.618856	0.070114
504.837013	0.069648
505.055152	0.068627
505.273273	0.069065
505.491376	0.069180
505.709460	0.069626
505.927526	0.070391
506.145574	0.069359
506.363604	0.068492
506.581615	0.068644
506.799608	0.069425
507.017583	0.070378
507.235540	0.069982
507.453478	0.070150
507.671399	0.069606
507.889301	0.069742
508.107185	0.069590
508.325050	0.070706
508.542898	0.071613
508.760727	0.071970
508.978538	0.071659
509.196330	0.072760
509.414105	0.071819
509.631861	0.071947
509.849599	0.071779
510.067319	0.071958
510.285021	0.071732
510.502704	0.070322
510.720369	0.069827
510.938016	0.069731
511.155645	0.069113
511.373255	0.069506
511.590848	0.069315
511.808422	0.069579
512.025977	0.069679
512.243515	0.069749
512.461034	0.070813
512.678536	0.071204
512.896018	0.071867
513.113483	0.072128
513.330930	0.072261
513.548358	0.073077
513.765768	0.073158
513.983160	0.073015
514.200533	0.073674
514.417889	0.073148
514.635226	0.072545
514.852545	0.072621
515.069845	0.072495
515.287128	0.072434
515.504392	0.071685
515.721638	0.071063
515.938866	0.071152
516.156075	0.070944
516.373267	0.071218
516.590440	0.071529
516.807594	0.071330
517.024731	0.071471
517.241850	0.071847
517.458950	0.072470
517.676032	0.073187
517.893095	0.073318
518.110141	0.073361
518.327168	0.073544
518.544177	0.073406
518.761168	0.073111
518.978141	0.073608
519.195095	0.074119
519.412031	0.073743
519.628949	0.074006
519.845849	0.074368
520.062731	0.074918
520.279594	0.075021
520.496439	0.075139
520.713266	0.075741
520.930074	0.075868
521.146865	0.075846
521.363637	0.075928
521.580391	0.076082
521.797127	0.075989
522.013844	0.075475
522.230543	0.076181
522.447224	0.076934
522.663887	0.077302
522.880532	0.077273
523.097158	0.077151
523.313766	0.077422
523.530356	0.077481
523.746928	0.078247
523.963481	0.078108
524.180017	0.077917
524.396534	0.077306
524.613032	0.076992
524.829513	0.077099
525.045975	0.076627
525.262420	0.076858
525.478845	0.077129
525.695253	0.076216
525.911643	0.076432
526.128014	0.075862
526.344367	0.076830
526.560702	0.077323
526.777018	0.077510
526.993316	0.078558
527.209597	0.078336
527.425858	0.078457
527.642102	0.079046
527.858328	0.079323
528.074535	0.079736
528.290724	0.079190
528.506894	0.078828
528.723047	0.078192
528.939181	0.077848
529.155297	0.078200
529.371395	0.078002
529.587475	0.078391
529.803536	0.078911
530.019579	0.079453
530.235604	0.079722
530.451611	0.080523
530.667600	0.081146
530.883570	0.080833
531.099522	0.080786
531.315456	0.081203
531.531372	0.081341
531.747269	0.081379
531.963148	0.081523
532.179009	0.081730
532.394852	0.081420
532.610676	0.081258
532.826482	0.081498
533.042271	0.082252
533.258040	0.082230
533.473792	0.082148
533.689525	0.082281
533.905240	0.082347
534.120937	0.082180
534.336616	0.082775
534.552277	0.083611
534.767919	0.084247
534.983543	0.084250
535.199149	0.084896
535.414736	0.084764
535.630306	0.085521
535.845857	0.085560
536.061390	0.086536
536.276904	0.086100
536.492401	0.086029
536.707879	0.086476
536.923339	0.086324
537.138781	0.085661
537.354204	0.086673
537.569610	0.086619
537.784997	0.087296
538.000366	0.087060
538.215716	0.087780
538.431049	0.088368
538.646363	0.088067
538.861659	0.088357
539.076937	0.088831
539.292196	0.088744
539.507438	0.088332
539.722661	0.087658
539.937866	0.088078
540.153052	0.087860
540.368221	0.087580
540.583371	0.087468
540.798503	0.088015
541.013617	0.088156
541.228712	0.088057
541.443789	0.088129
541.658848	0.088439
541.873889	0.088200
542.088912	0.088082
542.303916	0.088429
542.518902	0.089106
542.733870	0.088629
542.948820	0.088930
543.163752	0.089088
543.378665	0.089536
543.593560	0.089863
543.808437	0.090042
544.023295	0.090456
544.238136	0.089912
544.452958	0.089934
544.667762	0.090595
544.882548	0.090392
545.097315	0.090859
545.312064	0.090635
545.526795	0.090651
545.741508	0.090677
545.956203	0.090864
546.170879	0.091382
546.385537	0.090944
546.600177	0.091027
546.814799	0.091252
547.029402	0.091149
547.243988	0.091932
547.458555	0.091911
547.673103	0.092114
547.887634	0.092009
548.102146	0.092340
548.316640	0.092908
548.531116	0.092704
548.745574	0.092930
548.960013	0.093144
549.174435	0.092921
549.388838	0.093312
549.603222	0.093205
549.817589	0.093500
550.031937	0.092960
550.246267	0.093140
550.460579	0.093697
550.674873	0.093898
550.889148	0.093774
551.103405	0.093577
551.317644	0.093503
551.531865	0.093786
551.746068	0.093717
551.960252	0.094199
552.174418	0.093956
552.388566	0.093815
552.602696	0.093805
552.816807	0.093713
553.030900	0.094067
553.244975	0.094127
553.459032	0.093991
553.673070	0.094038
553.887091	0.094194
554.101093	0.094509
554.315077	0.094377
554.529042	0.094248
554.742990	0.094619
554.956919	0.094817
555.170830	0.094921
555.384722	0.095375
555.598597	0.095590
555.812453	0.095893
556.026291	0.095826
556.240111	0.096027
556.453913	0.096240
556.667696	0.096145
556.881461	0.095749
557.095208	0.095747
557.308937	0.095818
557.522647	0.096150
557.736339	0.095781
557.950013	0.096281
558.163669	0.096405
558.377307	0.096677
558.590926	0.097102
558.804527	0.097549
559.018110	0.097584
559.231675	0.097810
559.445221	0.097694
559.658749	0.098052
559.872259	0.097751
560.085751	0.097821
560.299225	0.097635
560.512680	0.097721
560.726117	0.097723
560.939536	0.097944
561.152937	0.097949
561.366319	0.098144
561.579683	0.098262
561.793029	0.098517
562.006357	0.098396
562.219667	0.098512
562.432958	0.098432
562.646231	0.098954
562.859486	0.099326
563.072723	0.099415
563.285941	0.099661
563.499141	0.099771
563.712323	0.099638
563.925487	0.100018
564.138632	0.100175
564.351760	0.100422
564.564869	0.100026
564.777960	0.100007
564.991032	0.100070
565.204087	0.100129
565.417123	0.100366
565.630141	0.100908
565.843140	0.100658
566.056122	0.100943
566.269085	0.100834
566.482030	0.101235
566.694957	0.101244
566.907866	0.101536
567.120756	0.101519
567.333628	0.101374
567.546482	0.101233
567.759318	0.101626
567.972135	0.101570
568.184935	0.101621
568.397716	0.101353
568.610478	0.101728
568.823223	0.101629
569.035949	0.101608
569.248657	0.101796
569.461347	0.101621
569.674019	0.101792
569.886672	0.101768
570.099308	0.101885
570.311925	0.102305
570.524523	0.102028
570.737104	0.101984
570.949666	0.101854
571.162210	0.101932
571.374736	0.102517
571.587244	0.102727
571.799733	0.103051
572.012205	0.103176
572.224658	0.103045
572.437092	0.103174
572.649509	0.102928
572.861907	0.103441
573.074287	0.103526
573.286649	0.103384
573.498993	0.103020
573.711318	0.102839
573.923625	0.102920
574.135914	0.102880
574.348185	0.102916
574.560438	0.103433
574.772672	0.103279
574.984888	0.103281
575.197086	0.103329
575.409266	0.103844
575.621427	0.104227
575.833570	0.104101
576.045695	0.104429
576.257802	0.104732
576.469890	0.104571
576.681961	0.105179
576.894013	0.105185
577.106046	0.105347
577.318062	0.105181
577.530059	0.105362
577.742039	0.105622
577.954000	0.105794
578.165942	0.105720
578.377867	0.106148
578.589773	0.105842
578.801661	0.105926
579.013531	0.105759
579.225382	0.105577
579.437216	0.105446
579.649031	0.105728
579.860828	0.105460
580.072606	0.105678
580.284367	0.105700
580.496109	0.105696
580.707833	0.105930
580.919539	0.106451
581.131227	0.106982
581.342896	0.107140
581.554547	0.107183
581.766180	0.107496
581.977795	0.107523
582.189391	0.107422
582.400969	0.107461
582.612529	0.107585
582.824071	0.107471
583.035595	0.107273
583.247100	0.107293
583.458587	0.107594
583.670056	0.107463
583.881506	0.107557
584.092939	0.108064
584.304353	0.108197
584.515749	0.108279
584.727127	0.108333
584.938486	0.108529
585.149828	0.108724
585.361151	0.108540
585.572456	0.108937
585.783742	0.109080
585.995011	0.109001
586.206261	0.109253
586.417493	0.109164
586.628706	0.109137
586.839902	0.109410
587.051079	0.109506
587.262238	0.109434
587.473379	0.109401
587.684502	0.109214
587.895606	0.109148
588.106692	0.109292
588.317760	0.109426
588.528810	0.109893
588.739841	0.109667
588.950855	0.109771
589.161850	0.109767
589.372827	0.110217
589.583785	0.110281
589.794726	0.110455
590.005648	0.110353
590.216552	0.110591
590.427437	0.110399
590.638305	0.110692
590.849154	0.110626
591.059985	0.111025
591.270798	0.111010
591.481592	0.111630
591.692369	0.111718
591.903127	0.111920
592.113867	0.111978
592.324588	0.112286
592.535292	0.112221
592.745977	0.112712
592.956644	0.112879
593.167293	0.112875
593.377923	0.112529
593.588536	0.112508
593.799130	0.112687
594.009706	0.112782
594.220263	0.113006
594.430803	0.113230
594.641324	0.112710
594.851827	0.112679
595.062312	0.112632
595.272778	0.112912
595.483227	0.113168
595.693657	0.113083
595.904069	0.113189
596.114462	0.113124
596.324838	0.112986
596.535195	0.113464
596.745534	0.113536
596.955855	0.113750
597.166157	0.113833
597.376441	0.113799
597.586707	0.114043
597.796955	0.114362
598.007185	0.114391
598.217396	0.114932
598.427589	0.114822
598.637764	0.114737
598.847921	0.114908
599.058060	0.115122
599.268180	0.115323
599.478282	0.115655
599.688366	0.115563
599.898431	0.115676
600.108479	0.115468
600.318508	0.115723
600.528519	0.115848
600.738511	0.116092
600.948486	0.116269
601.158442	0.116194
601.368380	0.115746
601.578300	0.115608
601.788202	0.115651
601.998085	0.115907
602.207950	0.115991
602.417797	0.116309
602.627626	0.116153
602.837436	0.116002
603.047228	0.115969
603.257002	0.116259
603.466758	0.116590
603.676496	0.116656
603.886215	0.116635
604.095916	0.116644
604.305599	0.116583
604.515264	0.116679
604.724910	0.116634
604.934538	0.117036
605.144148	0.117251
605.353740	0.117202
605.563314	0.117427
605.772869	0.117449
605.982406	0.117426
606.191925	0.117323
606.401425	0.117475
606.610908	0.117366
606.820372	0.117301
607.029818	0.116989
607.239246	0.117073
607.448655	0.116926
607.658047	0.117146
607.867420	0.117529
608.076775	0.118019
608.286111	0.117943
608.495430	0.118494
608.704730	0.118764
608.914012	0.119260
609.123275	0.119526
609.332521	0.119860
609.541748	0.120063
609.750957	0.119871
609.960148	0.119857
610.169321	0.120129
610.378475	0.120211
610.587611	0.120281
610.796729	0.120530
611.005829	0.120642
611.214910	0.120643
611.423974	0.120781
611.633019	0.120962
611.842045	0.120988
612.051054	0.120972
612.260044	0.120839
612.469017	0.120860
612.677970	0.120464
612.886906	0.120419
613.095824	0.120542
613.304723	0.120498
613.513604	0.120511
613.722467	0.120533
613.931311	0.120324
614.140138	0.120413
614.348946	0.120514
614.557736	0.120674
614.766507	0.120781
614.975261	0.120807
615.183996	0.120416
615.392713	0.120582
615.601412	0.120530
615.810092	0.120946
616.018754	0.121005
616.227399	0.121074
616.436024	0.121302
616.644632	0.121432
616.853222	0.121591
617.061793	0.122100
617.270346	0.122072
617.478880	0.122303
617.687397	0.122437
617.895895	0.122682
618.104375	0.122720
618.312837	0.122600
618.521281	0.122566
618.729706	0.122544
618.938113	0.122334
619.146502	0.122547
619.354873	0.122700
619.563226	0.122844
619.771560	0.122878
619.979876	0.123192
620.188174	0.123451
620.396453	0.123488
620.604715	0.123642
620.812958	0.123754
621.021183	0.123699
621.229390	0.123871
621.437578	0.123529
621.645748	0.123315
621.853900	0.123087
622.062034	0.122960
622.270150	0.122800
622.478247	0.122848
622.686326	0.123136
622.894387	0.123368
623.102430	0.123260
623.310454	0.123579
623.518461	0.123967
623.726449	0.124062
623.934418	0.124416
624.142370	0.124760
624.350303	0.125004
624.558218	0.125027
624.766115	0.125202
624.973994	0.125243
625.181855	0.125193
625.389697	0.125177
625.597521	0.125144
625.805327	0.125022
626.013114	0.124885
626.220883	0.124726
626.428634	0.124945
626.636367	0.124758
626.844082	0.124962
627.051778	0.125326
627.259457	0.125325
627.467117	0.125557
627.674758	0.125576
627.882382	0.125900
628.089987	0.125978
628.297574	0.125972
628.505143	0.125868
628.712694	0.125877
628.920226	0.125913
629.127740	0.126030
629.335236	0.126016
629.542714	0.126072
629.750174	0.126185
629.957615	0.126362
630.165038	0.126230
630.372443	0.126573
630.579829	0.126598
630.787198	0.126450
630.994548	0.126508
631.201880	0.126672
631.409194	0.126644
631.616489	0.126668
631.823766	0.126588
632.031025	0.126852
632.238266	0.126751
632.445489	0.126694
632.652693	0.126821
632.859879	0.126772
633.067047	0.126840
633.274197	0.126788
633.481329	0.126804
633.688442	0.126891
633.895537	0.126815
634.102614	0.126989
634.309672	0.127075
634.516713	0.127212
634.723735	0.127427
634.930739	0.127458
635.137724	0.127671
635.344692	0.127588
635.551641	0.127553
635.758572	0.127646
635.965485	0.127703
636.172379	0.127987
636.379256	0.127948
636.586114	0.128094
636.792954	0.128265
636.999775	0.128547
637.206579	0.128914
637.413364	0.129140
637.620131	0.129513
637.826880	0.129514
638.033610	0.129589
638.240323	0.129653
638.447017	0.129685
638.653692	0.129702
638.860350	0.129724
639.066990	0.129597
639.273611	0.129509
639.480214	0.129367
639.686798	0.129508
639.893365	0.129777
640.099913	0.129641
640.306443	0.129619
640.512955	0.129770
640.719449	0.129879
640.925924	0.130087
641.132381	0.130460
641.338820	0.130687
641.545241	0.130890
641.751644	0.130751
641.958028	0.131209
642.164394	0.131443
642.370742	0.131394
642.577071	0.131611
642.783383	0.131617
642.989676	0.131450
643.195951	0.131391
643.402207	0.131523
643.608446	0.131625
643.814666	0.131538
644.020868	0.131540
644.227052	0.131503
644.433218	0.131729
644.639365	0.131855
644.845494	0.132240
645.051605	0.132267
645.257698	0.132045
645.463772	0.132109
645.669828	0.132260
645.875866	0.132414
646.081886	0.132603
646.287888	0.132536
646.493871	0.132454
646.699836	0.132290
646.905783	0.132341
647.111712	0.132560
647.317622	0.132630
647.523514	0.132681
647.729388	0.132897
647.935244	0.132964
648.141082	0.132873
648.346901	0.133095
648.552702	0.133324
648.758485	0.133497
648.964250	0.133582
649.169996	0.133677
649.375724	0.133666
649.581434	0.133489
649.787126	0.133625
649.992800	0.133889
650.198455	0.134017
650.404092	0.134124
650.609711	0.134101
650.815311	0.134195
651.020894	0.134188
651.226458	0.134347
651.432004	0.134547
651.637532	0.134546
651.843041	0.134453
652.048532	0.134364
652.254006	0.134374
652.459460	0.134500
652.664897	0.134490
652.870315	0.134585
653.075716	0.134503
653.281097	0.134413
653.486461	0.134585
653.691807	0.134800
653.897134	0.135072
654.102443	0.135000
654.307734	0.135078
654.513006	0.135360
654.718261	0.135470
654.923497	0.135752
655.128715	0.136031
655.333915	0.135915
655.539096	0.135888
655.744259	0.135642
655.949404	0.135836
656.154531	0.135965
656.359640	0.136023
656.564730	0.136195
656.769802	0.136190
656.974856	0.136232
657.179892	0.136442
657.384909	0.136339
657.589908	0.136606
657.794889	0.136830
657.999852	0.136914
658.204797	0.137141
658.409723	0.137079
658.614631	0.137193
658.819521	0.137388
659.024393	0.137508
659.229246	0.137709
659.434081	0.137958
659.638898	0.138058
659.843697	0.138026
660.048478	0.137916
660.253240	0.138186
660.457984	0.138234
660.662710	0.137946
660.867417	0.138015
661.072107	0.138086
661.276778	0.137955
661.481431	0.137685
661.686066	0.137763
661.890682	0.137822
662.095281	0.137758
662.299861	0.137948
662.504422	0.138372
662.708966	0.138579
662.913491	0.138973
663.117999	0.139129
663.322488	0.139428
663.526958	0.139633
663.731411	0.139956
663.935845	0.139977
664.140261	0.140124
664.344659	0.140157
664.549038	0.140146
664.753400	0.139853
664.957743	0.140005
665.162068	0.139973
665.366375	0.140049
665.570663	0.140139
665.774933	0.140433
665.979185	0.140491
666.183419	0.140540
666.387635	0.140813
666.591832	0.141156
666.796011	0.141395
667.000172	0.141773
667.204315	0.142051
667.408439	0.141886
667.612545	0.142058
667.816634	0.142100
668.020703	0.142240
668.224755	0.142335
668.428788	0.142278
668.632803	0.142294
668.836800	0.142226
669.040779	0.142209
669.244739	0.142386
669.448681	0.142341
669.652605	0.142675
669.856511	0.142772
670.060399	0.142986
670.264268	0.143067
670.468119	0.143084
670.671952	0.143391
670.875767	0.143367
671.079563	0.143634
671.283341	0.143778
671.487101	0.143648
671.690843	0.143744
671.894567	0.143613
672.098272	0.143740
672.301959	0.143956
672.505628	0.144080
672.709278	0.144210
672.912911	0.144096
673.116525	0.144227
673.320121	0.144118
673.523699	0.144087
673.727258	0.144077
673.930799	0.144411
674.134322	0.144504
674.337827	0.144357
674.541314	0.144458
674.744782	0.144645
674.948232	0.144704
675.151664	0.145026
675.355078	0.145106
675.558474	0.145274
675.761851	0.145237
675.965210	0.145397
676.168551	0.145536
676.371873	0.145689
676.575178	0.145994
676.778464	0.146206
676.981732	0.146255
677.184981	0.146511
677.388213	0.146696
677.591426	0.146935
677.794621	0.146948
677.997798	0.146937
678.200956	0.146950
678.404097	0.146884
678.607219	0.146891
678.810323	0.147030
679.013408	0.147030
679.216476	0.147120
679.419525	0.147061
679.622556	0.147121
679.825569	0.147260
680.028563	0.147364
680.231540	0.147304
680.434498	0.147268
680.637438	0.147366
680.840359	0.147536
681.043263	0.147882
681.246148	0.147971
681.449015	0.148001
681.651864	0.148190
681.854694	0.148200
682.057506	0.148180
682.260301	0.148270
682.463076	0.148209
682.665834	0.148415
682.868573	0.148439
683.071295	0.148561
683.273998	0.148805
683.476682	0.148928
683.679349	0.149242
683.881997	0.149726
684.084627	0.149960
684.287239	0.150242
684.489833	0.150146
684.692408	0.149904
684.894965	0.150097
685.097504	0.150179
685.300025	0.150132
685.502527	0.150152
685.705012	0.149915
685.907478	0.150066
686.109925	0.150100
686.312355	0.150308
686.514766	0.150473
686.717159	0.150579
686.919534	0.150661
687.121891	0.150846
687.324230	0.151104
687.526550	0.151161
687.728852	0.151060
687.931136	0.151151
688.133401	0.151196
688.335649	0.151217
688.537878	0.151078
688.740089	0.151153
688.942281	0.151024
689.144456	0.150933
689.346612	0.151160
689.548750	0.151309
689.750870	0.151449
689.952971	0.151416
690.155055	0.151618
690.357120	0.151684
690.559167	0.151788
690.761195	0.151833
690.963206	0.151956
691.165198	0.151828
691.367172	0.151836
691.569128	0.151688
691.771065	0.151750
691.972984	0.151590
692.174885	0.151785
692.376768	0.151587
692.578633	0.151742
692.780479	0.151733
692.982308	0.151959
693.184118	0.152039
693.385909	0.152168
693.587683	0.152340
693.789438	0.152443
693.991175	0.152261
694.192894	0.152323
694.394595	0.152469
694.596277	0.152415
694.797941	0.152578
694.999587	0.152771
695.201215	0.152880
695.402824	0.152915
695.604416	0.153264
695.805989	0.153494
696.007543	0.153689
696.209080	0.153874
696.410598	0.154176
696.612099	0.154085
696.813580	0.153865
697.015044	0.154023
697.216490	0.154281
697.417917	0.154398
697.619326	0.154411
697.820717	0.154472
698.022089	0.154424
698.223444	0.154494
698.424780	0.154641
698.626098	0.154809
698.827397	0.154857
699.028679	0.154783
699.229942	0.154572
699.431187	0.154577
699.632414	0.154582
699.833622	0.154612
700.034813	0.154752
700.235985	0.154897
700.437139	0.154962
700.638274	0.154978
700.839392	0.155003
701.040491	0.155183
701.241572	0.155259
701.442635	0.155284
701.643679	0.155474
701.844706	0.155400
702.045714	0.155165
702.246704	0.155213
702.447675	0.155081
702.648629	0.155188
702.849564	0.155158
703.050481	0.155259
703.251380	0.155366
703.452260	0.155177
703.653122	0.155124
703.853966	0.155258
704.054792	0.155333
704.255600	0.155652
704.456389	0.155599
704.657160	0.155557
704.857913	0.155682
705.058648	0.155737
705.259365	0.155911
705.460063	0.155838
705.660743	0.156006
705.861405	0.156072
706.062048	0.155989
706.262674	0.155965
706.463281	0.156075
706.663870	0.155891
706.864441	0.155906
707.064993	0.155840
707.265527	0.156010
707.466043	0.156056
707.666541	0.156142
707.867021	0.156238
708.067482	0.156301
708.267925	0.156411
708.468350	0.156784
708.668757	0.156981
708.869145	0.157170
709.069516	0.157221
709.269868	0.157350
709.470201	0.157411
709.670517	0.157525
709.870814	0.157793
710.071093	0.157937
710.271354	0.157800
710.471597	0.157883
710.671821	0.158016
710.872028	0.157831
711.072216	0.157736
711.272385	0.157659
711.472537	0.157529
711.672670	0.157372
711.872785	0.157167
712.072882	0.157210
712.272961	0.156799
712.473021	0.156738
712.673063	0.156879
712.873087	0.156799
713.073093	0.156919
713.273081	0.156996
713.473050	0.156867
713.673001	0.156908
713.872934	0.157006
714.072849	0.157426
714.272745	0.157339
714.472623	0.157407
714.672483	0.157426
714.872325	0.157392
715.072148	0.157387
715.271954	0.157602
715.471741	0.157588
715.671509	0.157445
715.871260	0.157135
716.070992	0.157160
716.270707	0.157004
716.470403	0.156962
716.670080	0.156926
716.869740	0.156968
717.069381	0.156769
717.269004	0.156887
717.468609	0.156849
717.668195	0.156986
717.867764	0.156724
718.067314	0.157006
718.266846	0.157049
718.466360	0.157130
718.665855	0.157023
718.865332	0.157106
719.064791	0.157034
719.264232	0.157046
719.463655	0.156906
719.663059	0.156876
719.862445	0.156774
720.061813	0.156737
720.261163	0.156484
720.460494	0.156456
720.659807	0.156456
720.859102	0.156332
721.058379	0.156478
721.257638	0.156338
721.456878	0.156522
721.656100	0.156531
721.855304	0.156493
722.054490	0.156634
722.253657	0.156521
722.452806	0.156412
722.651937	0.156435
722.851050	0.156160
723.050145	0.156408
723.249221	0.156212
723.448279	0.156192
723.647319	0.156038
723.846340	0.155883
724.045344	0.155958
724.244329	0.156015
724.443296	0.155820
724.642245	0.155891
724.841175	0.155805
725.040088	0.156048
725.238982	0.156014
725.437857	0.156235
725.636715	0.156308
725.835554	0.156124
726.034376	0.155933
726.233179	0.156094
726.431963	0.156002
726.630730	0.155937
726.829478	0.155939
727.028208	0.155873
727.226920	0.155869
727.425614	0.155853
727.624289	0.155867
727.822946	0.155909
728.021585	0.155847
728.220206	0.155839
728.418808	0.155930
728.617392	0.155842
728.815958	0.155901
729.014506	0.155783
729.213036	0.155517
729.411547	0.155528
729.610040	0.155623
729.808515	0.155527
730.006972	0.155324
730.205410	0.155176
730.403831	0.154804
730.602233	0.154717
730.800616	0.154718
730.998982	0.154763
731.197329	0.154703
731.395658	0.154572
731.593969	0.154528
731.792262	0.154644
731.990536	0.154535
732.188793	0.154649
732.387031	0.154204
732.585250	0.154057
732.783452	0.154020
732.981635	0.153902
733.179800	0.153833
733.377947	0.153733
733.576076	0.153752
733.774186	0.153887
733.972278	0.153877
734.170352	0.154120
734.368408	0.154170
734.566446	0.153971
734.764465	0.153910
734.962466	0.153874
735.160449	0.153962
735.358413	0.153812
735.556360	0.153434
735.754288	0.153332
735.952198	0.153253
736.150090	0.153078
736.347963	0.153369
736.545818	0.153405
736.743655	0.153189
736.941474	0.152863
737.139275	0.152691
737.337057	0.152949
737.534821	0.152988
737.732567	0.152818
737.930295	0.152716
738.128005	0.152459
738.325696	0.152335
738.523369	0.152454
738.721024	0.152461
738.918660	0.152599
739.116279	0.152259
739.313879	0.152181
739.511461	0.152197
739.709024	0.152155
739.906570	0.152087
740.104097	0.152174
740.301606	0.151974
740.499097	0.152086
740.696569	0.151940
740.894024	0.151946
741.091460	0.151786
741.288878	0.151737
741.486277	0.151570
741.683659	0.151489
741.881022	0.151346
742.078367	0.151299
742.275694	0.151309
742.473002	0.151256
742.670293	0.151223
742.867565	0.151056
743.064819	0.150894
743.262054	0.150883
743.459272	0.150820
743.656471	0.150589
743.853652	0.150524
744.050815	0.150177
744.247959	0.150107
744.445085	0.150020
744.642194	0.150034
744.839283	0.150057
745.036355	0.149848
745.233408	0.149701
745.430444	0.149596
745.627461	0.149495
745.824459	0.149261
746.021440	0.149144
746.218402	0.149162
746.415346	0.149083
746.612272	0.148707
746.809180	0.148651
747.006069	0.148448
747.202940	0.148505
747.399793	0.148409
747.596628	0.148433
747.793444	0.148275
747.990243	0.148074
748.187023	0.147755
748.383784	0.147865
748.580528	0.147836
748.777253	0.147869
748.973960	0.147768
749.170649	0.147588
749.367320	0.147688
749.563973	0.147577
749.760607	0.147255
749.957223	0.147514
750.153821	0.147558
750.350400	0.147521
750.546962	0.147369
750.743505	0.147149
750.940030	0.147052
751.136536	0.146751
751.333025	0.146708
751.529495	0.146842
751.725947	0.146523
751.922381	0.146297
752.118796	0.146080
752.315194	0.146077
752.511573	0.146065
752.707934	0.145890
752.904276	0.145795
753.100601	0.145823
753.296907	0.145685
753.493195	0.145674
753.689465	0.145534
753.885716	0.145683
754.081949	0.145552
754.278164	0.145408
754.474361	0.145471
754.670540	0.145600
754.866700	0.145458
755.062843	0.145419
755.258967	0.145313
755.455072	0.145242
755.651160	0.144987
755.847229	0.145057
756.043280	0.145070
756.239313	0.144955
756.435328	0.145029
756.631324	0.145017
756.827302	0.145098
757.023262	0.145148
757.219204	0.144845
757.415127	0.144812
757.611033	0.144480
757.806920	0.144434
758.002788	0.144440
758.198639	0.143954
758.394471	0.143762
758.590286	0.143478
758.786081	0.143357
758.981859	0.143539
759.177619	0.143732
759.373360	0.143465
759.569083	0.143294
759.764788	0.143253
759.960474	0.143460
760.156143	0.143431
760.351793	0.143440
760.547425	0.143437
760.743038	0.143534
760.938634	0.143210
761.134211	0.143399
761.329770	0.143527
761.525311	0.143482
761.720833	0.143406
761.916338	0.143290
762.111824	0.143127
762.307292	0.142858
762.502741	0.142639
762.698173	0.142679
762.893586	0.142807
763.088981	0.142729
763.284358	0.142719
763.479716	0.142773
763.675057	0.142651
763.870379	0.142881
764.065683	0.143030
764.260968	0.143022
764.456236	0.143004
764.651485	0.142728
764.846716	0.142797
765.041929	0.142690
765.237123	0.142533
765.432299	0.142629
765.627457	0.142259
765.822597	0.142030
766.017719	0.141856
766.212822	0.141874
766.407907	0.141963
766.602974	0.141933
766.798023	0.142038
766.993054	0.141912
767.188066	0.142091
767.383060	0.142212
767.578036	0.142233
767.772993	0.142423
767.967933	0.142364
768.162854	0.142451
768.357757	0.142175
768.552642	0.141804
768.747508	0.141714
768.942356	0.141303
769.137186	0.141320
769.331998	0.141353
769.526792	0.141045
769.721567	0.140802
769.916324	0.140587
770.111063	0.140478
770.305784	0.140478
770.500486	0.140479
770.695171	0.140806
770.889837	0.140713
771.084484	0.140553
771.279114	0.140731
771.473725	0.140757
771.668318	0.140845
771.862893	0.140772
772.057450	0.140709
772.251988	0.140844
772.446509	0.140599
772.641011	0.140570
772.835494	0.140614
773.029960	0.140338
773.224407	0.140179
773.418836	0.140071
773.613247	0.140273
773.807640	0.140296
774.002014	0.139997
774.196370	0.139867
774.390708	0.139884
774.585028	0.139913
774.779330	0.140084
774.973613	0.140178
775.167878	0.140192
775.362125	0.139878
775.556354	0.139772
775.750564	0.139837
775.944756	0.139926
776.138930	0.139648
776.333086	0.139534
776.527223	0.139349
776.721343	0.139298
776.915444	0.139245
777.109526	0.139387
777.303591	0.139473
777.497637	0.139472
777.691666	0.139508
777.885676	0.139593
778.079667	0.139773
778.273641	0.139960
778.467596	0.140189
778.661533	0.140248
778.855452	0.140362
779.049352	0.140508
779.243235	0.140432
779.437099	0.140356
779.630945	0.140613
779.824773	0.140306
780.018582	0.140055
780.212373	0.139886
780.406146	0.139811
780.599901	0.139655
780.793638	0.139468
780.987356	0.139413
781.181056	0.139387
781.374738	0.139085
781.568402	0.139180
781.762047	0.139413
781.955674	0.139338
782.149283	0.139131
782.342874	0.139067
782.536447	0.139254
782.730001	0.139528
782.923537	0.139389
783.117055	0.139420
783.310555	0.139642
783.504036	0.139887
783.697499	0.139969
783.890944	0.140059
784.084371	0.140160
784.277780	0.140115
784.471170	0.139909
784.664542	0.139948
784.857896	0.139966
785.051231	0.139752
785.244549	0.139441
785.437848	0.139344
785.631129	0.139642
785.824392	0.139871
786.017636	0.139986
786.210863	0.140059
786.404071	0.140350
786.597260	0.140640
786.790432	0.140823
786.983585	0.141017
787.176721	0.141276
787.369838	0.141295
787.562936	0.141123
787.756017	0.141008
787.949079	0.141238
788.142123	0.141020
788.335149	0.140846
788.528156	0.140819
788.721146	0.140849
788.914117	0.140707
789.107070	0.140577
789.300005	0.140726
789.492921	0.140824
789.685819	0.140656
789.878699	0.140501
790.071561	0.140259
790.264405	0.140224
790.457230	0.140067
790.650037	0.139934
790.842826	0.140050
791.035597	0.140089
791.228349	0.140298
791.421084	0.140535
791.613800	0.140883
791.806497	0.141231
791.999177	0.141348
792.191838	0.141589
792.384481	0.141800
792.577106	0.141631
792.769713	0.141534
792.962301	0.141289
793.154871	0.141119
793.347423	0.141113
793.539957	0.141193
793.732473	0.141271
793.924970	0.140933
794.117449	0.141009
794.309910	0.141146
794.502353	0.141298
794.694777	0.141320
794.887183	0.141483
795.079571	0.141651
795.271941	0.141626
795.464293	0.141618
795.656626	0.141892
795.848941	0.142132
796.041238	0.142551
796.233516	0.142553
796.425777	0.142693
796.618019	0.142681
796.810243	0.142525
797.002449	0.142728
797.194636	0.142826
797.386805	0.142922
797.578956	0.142794
797.771089	0.142619
797.963204	0.142574
798.155300	0.142628
798.347378	0.142659
798.539438	0.142876
798.731480	0.142943
798.923503	0.143084
799.115509	0.143206
799.307496	0.143464
799.499465	0.143486
799.691415	0.143768
799.883348	0.144104
800.075262	0.144431
800.267158	0.144438
800.459035	0.144534
800.650895	0.144763
800.842736	0.144863
801.034559	0.144745
801.226364	0.145032
801.418150	0.145248
801.609919	0.145149
801.801669	0.144992
801.993401	0.145056
802.185114	0.145103
802.376810	0.144978
802.568487	0.145171
802.760146	0.145210
802.951787	0.145233
803.143409	0.145086
803.335014	0.145199
803.526600	0.145347
803.718168	0.145338
803.909717	0.145361
804.101249	0.145241
804.292762	0.145027
804.484257	0.145385
804.675734	0.145405
804.867192	0.145562
805.058632	0.145630
805.250054	0.145887
805.441458	0.146138
805.632844	0.146389
805.824211	0.146527
806.015561	0.146687
806.206891	0.146545
806.398204	0.146876
806.589499	0.146809
806.780775	0.147008
806.972033	0.146883
807.163273	0.146982
807.354495	0.146962
807.545698	0.147271
807.736883	0.147407
807.928050	0.147408
808.119199	0.147385
808.310329	0.147545
808.501441	0.147474
808.692535	0.147486
808.883611	0.147619
809.074669	0.147692
809.265708	0.147766
809.456729	0.147842
809.647732	0.147864
809.838717	0.147590
810.029683	0.147740
810.220632	0.147788
810.411562	0.147978
810.602474	0.148096
810.793367	0.148407
810.984242	0.148457
811.175100	0.148741
811.365938	0.149072
811.556759	0.149434
811.747562	0.149467
811.938346	0.149649
812.129112	0.149735
812.319860	0.149695
812.510589	0.149661
812.701300	0.149953
812.891994	0.150130
813.082668	0.150340
813.273325	0.150276
813.463964	0.150571
813.654584	0.150811
813.845186	0.151095
814.035769	0.151343
814.226335	0.151578
814.416882	0.151622
814.607411	0.151589
814.797922	0.151669
814.988415	0.152140
815.178889	0.152391
815.369345	0.152470
815.559783	0.152538
815.750203	0.152844
815.940605	0.152827
816.130988	0.152868
816.321353	0.153070
816.511700	0.153205
816.702028	0.153385
816.892339	0.153554
817.082631	0.153814
817.272905	0.154139
817.463161	0.154299
817.653398	0.154554
817.843617	0.154836
818.033819	0.155074
818.224001	0.155276
818.414166	0.155404
818.604312	0.155384
818.794440	0.155487
818.984550	0.155649
819.174642	0.155761
819.364716	0.155775
819.554771	0.155923
819.744808	0.155797
819.934827	0.155864
820.124827	0.156011
820.314810	0.156278
820.504774	0.156406
820.694720	0.156655
820.884647	0.156709
821.074557	0.156941
821.264448	0.157346
821.454321	0.157645
821.644176	0.157852
821.834012	0.158158
822.023831	0.158192
822.213631	0.158421
822.403413	0.158267
822.593176	0.158373
822.782922	0.158433
822.972649	0.158238
823.162358	0.158546
823.352049	0.158604
823.541721	0.158220
823.731376	0.158388
823.921012	0.158234
824.110629	0.158473
824.300229	0.158688
824.489811	0.158914
824.679374	0.159109
824.868919	0.159312
825.058445	0.159743
825.247954	0.160240
825.437444	0.160267
825.626916	0.160708
825.816370	0.160891
826.005806	0.160861
826.195223	0.161094
826.384622	0.161229
826.574003	0.161260
826.763366	0.161239
826.952711	0.161320
827.142037	0.161567
827.331345	0.161677
827.520635	0.161759
827.709906	0.161997
827.899160	0.162224
828.088395	0.162557
828.277612	0.163099
828.466810	0.163631
828.655991	0.163825
828.845153	0.163932
829.034297	0.164249
829.223423	0.164446
829.412531	0.164867
829.601620	0.164952
829.790691	0.165032
829.979744	0.164755
830.168779	0.164736
830.357795	0.164850
830.546793	0.165356
830.735773	0.165364
830.924735	0.165609
831.113679	0.165839
831.302604	0.166088
831.491511	0.166239
831.680400	0.166342
831.869271	0.166182
832.058123	0.166634
832.246957	0.166532
832.435773	0.166500
832.624571	0.166708
832.813351	0.166881
833.002112	0.166953
833.190855	0.167273
833.379580	0.167636
833.568287	0.168095
833.756975	0.168112
833.945645	0.168235
834.134297	0.168929
834.322931	0.169122
834.511547	0.169156
834.700144	0.169494
834.888723	0.169692
835.077284	0.169919
835.265826	0.170147
835.454351	0.170433
835.642857	0.170903
835.831345	0.170818
836.019815	0.171080
836.208266	0.171302
836.396699	0.171586
836.585114	0.171888
836.773511	0.172019
836.961890	0.171974
837.150250	0.172328
837.338592	0.172510
837.526916	0.172771
837.715222	0.172818
837.903510	0.173023
838.091779	0.173277
838.280030	0.173361
838.468263	0.173806
838.656477	0.174310
838.844674	0.174229
839.032852	0.174319
839.221012	0.174535
839.409153	0.174847
839.597277	0.175097
839.785382	0.175279
839.973469	0.175366
840.161538	0.175410
840.349589	0.175289
840.537621	0.175308
840.725635	0.175810
840.913631	0.176157
841.101609	0.176308
841.289568	0.176899
841.477509	0.177040
841.665432	0.177549
841.853337	0.177857
842.041224	0.178521
842.229092	0.179159
842.416942	0.179591
842.604774	0.179709
842.792588	0.180401
842.980383	0.180345
843.168160	0.180461
843.355919	0.180600
843.543660	0.180755
843.731382	0.180687
843.919087	0.180914
844.106773	0.180896
844.294441	0.181233
844.482090	0.181040
844.669722	0.181505
844.857335	0.181630
845.044930	0.181594
845.232507	0.181880
845.420065	0.181983
845.607605	0.182074
845.795127	0.182285
845.982631	0.182706
846.170117	0.182979
846.357584	0.183022
846.545033	0.183441
846.732464	0.184030
846.919877	0.184039
847.107272	0.184566
847.294648	0.184540
847.482006	0.184493
847.669346	0.184501
847.856667	0.185009
848.043971	0.185025
848.231256	0.185075
848.418523	0.184927
848.605771	0.185291
848.793002	0.185350
848.980214	0.185785
849.167408	0.186176
849.354584	0.186509
849.541742	0.186464
849.728881	0.186943
849.916002	0.187225
850.103105	0.187709
850.290190	0.187995
850.477256	0.188485
850.664304	0.188816
850.851334	0.188995
851.038346	0.189035
851.225340	0.189166
851.412315	0.189092
851.599272	0.189458
851.786211	0.189711
851.973132	0.189901
852.160034	0.190056
852.346918	0.190142
852.533784	0.190288
852.720632	0.190439
852.907462	0.190724
853.094273	0.191203
853.281066	0.191438
853.467841	0.191810
853.654598	0.192068
853.841336	0.192388
854.028056	0.192892
854.214758	0.193427
854.401442	0.193874
854.588107	0.194229
854.774755	0.194592
854.961384	0.194679
855.147995	0.194825
855.334587	0.195055
855.521162	0.195124
855.707718	0.195182
855.894256	0.195182
856.080775	0.195418
856.267277	0.195540
856.453760	0.195349
856.640225	0.195552
856.826672	0.195701
857.013101	0.195830
857.199511	0.196018
857.385903	0.196131
857.572277	0.196637
857.758633	0.196758
857.944970	0.197069
858.131290	0.197556
858.317591	0.197970
858.503873	0.198186
858.690138	0.198538
858.876384	0.198849
859.062612	0.199288
859.248822	0.199207
859.435014	0.199136
859.621188	0.199529
859.807343	0.199593
859.993480	0.199689
860.179599	0.199829
860.365699	0.199908
860.551781	0.200256
860.737846	0.200323
860.923891	0.200697
861.109919	0.201080
861.295929	0.201024
861.481920	0.201030
861.667893	0.201083
861.853848	0.201097
862.039784	0.201172
862.225702	0.201187
862.411603	0.201120
862.597484	0.201109
862.783348	0.201493
862.969193	0.201682
863.155021	0.202231
863.340830	0.202564
863.526620	0.203025
863.712393	0.203431
863.898147	0.203696
864.083883	0.204213
864.269601	0.204604
864.455301	0.204514
864.640982	0.204637
864.826645	0.205071
865.012290	0.205409
865.197917	0.205691
865.383526	0.205958
865.569116	0.206335
865.754688	0.206628
865.940242	0.206741
866.125777	0.207201
866.311295	0.207264
866.496794	0.207336
866.682275	0.207460
866.867737	0.207325
867.053182	0.207281
867.238608	0.207253
867.424016	0.207419
867.609406	0.207627
867.794778	0.207871
867.980131	0.208165
868.165466	0.208306
868.350783	0.208368
868.536082	0.208693
868.721362	0.209023
868.906625	0.209075
869.091869	0.208983
869.277094	0.209125
869.462302	0.208944
869.647491	0.209170
869.832662	0.209125
870.017815	0.209274
870.202950	0.209230
870.388066	0.209126
870.573165	0.209223
870.758245	0.209453
870.943306	0.209369
871.128350	0.209709
871.313375	0.210144
871.498382	0.210169
871.683371	0.210529
871.868342	0.210977
872.053294	0.211509
872.238229	0.211811
872.423144	0.211903
872.608042	0.212069
872.792922	0.211850
872.977783	0.211581
873.162626	0.211736
873.347451	0.211601
873.532258	0.211709
873.717046	0.211838
873.901816	0.212143
874.086568	0.211891
874.271302	0.211911
874.456017	0.212380
874.640715	0.212803
874.825394	0.213020
875.010055	0.213078
875.194697	0.212932
875.379322	0.212768
875.563928	0.212408
875.748516	0.212719
875.933085	0.212638
876.117637	0.212942
876.302170	0.212725
876.486685	0.212722
876.671182	0.213047
876.855661	0.213120
877.040121	0.213363
877.224563	0.213506
877.408987	0.213661
877.593393	0.214171
877.777780	0.214146
877.962150	0.214443
878.146501	0.214690
878.330833	0.214846
878.515148	0.215017
878.699444	0.214982
878.883722	0.215281
879.067982	0.215464
879.252224	0.215462
879.436447	0.215557
879.620653	0.215611
879.804840	0.215796
879.989008	0.215383
880.173159	0.215452
880.357291	0.215498
880.541405	0.215680
880.725501	0.215838
880.909579	0.215886
881.093638	0.215779
881.277680	0.215882
881.461703	0.215865
881.645707	0.216227
881.829694	0.216514
882.013662	0.216513
882.197612	0.216420
882.381544	0.216672
882.565458	0.216518
882.749353	0.216509
882.933230	0.216403
883.117089	0.216740
883.300930	0.217053
883.484753	0.217076
883.668557	0.217246
883.852343	0.217183
884.036111	0.217050
884.219861	0.217210
884.403592	0.217461
884.587305	0.217728
884.771000	0.217766
884.954677	0.217512
885.138335	0.217463
885.321976	0.217424
885.505598	0.217537
885.689201	0.217576
885.872787	0.217845
886.056354	0.217832
886.239904	0.217877
886.423434	0.217453
886.606947	0.217408
886.790442	0.217532
886.973918	0.217727
887.157376	0.217798
887.340816	0.217792
887.524237	0.217990
887.707641	0.218035
887.891026	0.217901
888.074393	0.218016
888.257741	0.218331
888.441072	0.218234
888.624384	0.218349
888.807678	0.218215
888.990954	0.218154
889.174211	0.217747
889.357451	0.217560
889.540672	0.217274
889.723875	0.217332
889.907059	0.217125
890.090226	0.217115
890.273374	0.216935
890.456504	0.216811
890.639616	0.216650
890.822709	0.216948
891.005785	0.217228
891.188842	0.217641
891.371881	0.217718
891.554901	0.217746
891.737904	0.217433
891.920888	0.217518
892.103854	0.217642
892.286802	0.217990
892.469731	0.217902
892.652643	0.217968
892.835536	0.217480
893.018410	0.217482
893.201267	0.217588
893.384106	0.217942
893.566926	0.218024
893.749728	0.217936
893.932511	0.217559
894.115277	0.217549
894.298024	0.217410
894.480753	0.218102
894.663464	0.217933
894.846157	0.217702
895.028831	0.217648
895.211487	0.217436
895.394125	0.217416
895.576745	0.217633
895.759346	0.217504
895.941930	0.217018
896.124495	0.216441
896.307041	0.216058
896.489570	0.215516
896.672080	0.215513
896.854573	0.215253
897.037046	0.215244
897.219502	0.214926
897.401940	0.215039
897.584359	0.214942
897.766760	0.215064
897.949143	0.215374
898.131507	0.215608
898.313854	0.215331
898.496182	0.215413
898.678492	0.215295
898.860783	0.215181
899.043057	0.214288
899.225312	0.214359
899.407549	0.214317
899.589768	0.214355
899.771968	0.214327
899.954151	0.214474
900.136315	0.214244
900.318461	0.214262
900.500588	0.214269
900.682698	0.214949
900.864789	0.214918
901.046862	0.214541
901.228917	0.213863
901.410953	0.214063
901.592971	0.213964
901.774972	0.213810
901.956953	0.213579
902.138917	0.213277
902.320862	0.213031
902.502790	0.212911
902.684699	0.212518
902.866589	0.212289
903.048462	0.211793
903.230316	0.211266
903.412152	0.211239
903.593970	0.211234
903.775770	0.211169
903.957551	0.210810
904.139314	0.210476
904.321059	0.210305
904.502786	0.210119
904.684494	0.209875
904.866185	0.209570
905.047857	0.209158
905.229510	0.208528
905.411146	0.208399
905.592763	0.208340
905.774363	0.208409
905.955943	0.208529
906.137506	0.208186
906.319051	0.208076
906.500577	0.207998
906.682085	0.207831
906.863575	0.207747
907.045046	0.207680
907.226500	0.207198
907.407935	0.206695
907.589352	0.206208
907.770750	0.206650
907.952131	0.206645
908.133493	0.206233
908.314837	0.206024
908.496163	0.205389
908.677470	0.204841
908.858760	0.204648
909.040031	0.204721
909.221284	0.204724
909.402518	0.203675
909.583735	0.203032
909.764933	0.202870
909.946113	0.202460
910.127275	0.202228
910.308418	0.202045
910.489544	0.201842
910.670651	0.201196
910.851740	0.200882
911.032810	0.201275
911.213863	0.201074
911.394897	0.200817
911.575913	0.200493
911.756911	0.199963
911.937890	0.199459
912.118851	0.198821
912.299794	0.198521
912.480719	0.198169
912.661626	0.197687
912.842514	0.197788
913.023384	0.197319
913.204236	0.197445
913.385070	0.198070
913.565886	0.198140
913.746683	0.198393
913.927462	0.198532
914.108223	0.198260
914.288965	0.198017
914.469690	0.197427
914.650396	0.197390
914.831084	0.197277
915.011754	0.196901
915.192405	0.196389
915.373038	0.195658
915.553653	0.194788
915.734250	0.194678
915.914829	0.194695
916.095389	0.194126
916.275931	0.193788
916.456455	0.192739
916.636961	0.192429
916.817448	0.192635
916.997917	0.192636
917.178368	0.192514
917.358801	0.191591
917.539216	0.191001
917.719612	0.190947
917.899990	0.190424
918.080350	0.190276
918.260692	0.189822
918.441015	0.189046
918.621320	0.188749
918.801607	0.188604
918.981876	0.188354
919.162127	0.187721
919.342359	0.187495
919.522573	0.187735
919.702769	0.187515
919.882947	0.187222
920.063106	0.186699
920.243247	0.185882
920.423370	0.185291
920.603475	0.184946
920.783562	0.184578
920.963630	0.184012
921.143680	0.182754
921.323712	0.182839
921.503725	0.181888
921.683721	0.181339
921.863698	0.181083
922.043657	0.180606
922.223598	0.180488
922.403520	0.180442
922.583424	0.179815
922.763311	0.179865
922.943178	0.178698
923.123028	0.178846
923.302859	0.178867
923.482673	0.178248
923.662467	0.177839
923.842244	0.177271
924.022003	0.176476
924.201743	0.175786
924.381465	0.175159
924.561169	0.175127
924.740854	0.174633
924.920522	0.173685
925.100171	0.173572
925.279802	0.173169
925.459414	0.172396
925.639009	0.171701
925.818585	0.171862
925.998143	0.171475
926.177683	0.170835
926.357205	0.170160
926.536708	0.169501
926.716193	0.169219
926.895660	0.168733
927.075109	0.168607
927.254539	0.168788
927.433951	0.167441
927.613345	0.167010
927.792721	0.166289
927.972079	0.165846
928.151418	0.166015
928.330739	0.165179
928.510042	0.164339
928.689327	0.163477
928.868593	0.162258
929.047841	0.162256
929.227071	0.161836
929.406283	0.161766
929.585476	0.161058
929.764652	0.160251
929.943809	0.159731
930.122948	0.159311
930.302068	0.158607
930.481171	0.158092
930.660255	0.157345
930.839321	0.157060
931.018369	0.155829
931.197398	0.155106
931.376409	0.154525
931.555402	0.153244
931.734377	0.152941
931.913334	0.152052
932.092272	0.152104
932.271192	0.152201
932.450094	0.151680
932.628978	0.151253
932.807844	0.150833
932.986691	0.150365
933.165520	0.150135
933.344331	0.149171
933.523123	0.149136
933.701898	0.148024
933.880654	0.147122
934.059392	0.145434
934.238111	0.145025
934.416813	0.144573
934.595496	0.143732
934.774161	0.143683
934.952808	0.143978
935.131437	0.144432
935.310047	0.143736
935.488639	0.143533
935.667213	0.143411
935.845769	0.143173
936.024306	0.142469
936.202825	0.141868
936.381326	0.141335
936.559809	0.140011
936.738274	0.139158
936.916720	0.138882
937.095148	0.138198
937.273558	0.137626
937.451950	0.136660
937.630323	0.136505
937.808678	0.136031
937.987015	0.135267
938.165334	0.135018
938.343635	0.133551
938.521917	0.133297
938.700181	0.132280
938.878427	0.131384
939.056655	0.130358
939.234864	0.128780
939.413055	0.127801
939.591228	0.127531
939.769383	0.126192
939.947519	0.125230
940.125638	0.124171
940.303738	0.123390
940.481820	0.123390
940.659883	0.123521
940.837929	0.123956
941.015956	0.123946
941.193965	0.122787
941.371955	0.123166
941.549928	0.122931
941.727882	0.121673
941.905818	0.121117
942.083736	0.119434
942.261636	0.118888
942.439517	0.117544
942.617380	0.117103
942.795225	0.116659
942.973052	0.114744
943.150860	0.114658
943.328651	0.114068
943.506423	0.114126
943.684176	0.114876
943.861912	0.114553
944.039629	0.114031
944.217328	0.112094
944.395009	0.111437
944.572672	0.111998
944.750317	0.111446
944.927943	0.111480
945.105551	0.110761
945.283141	0.109441
945.460712	0.107808
945.638265	0.107710
945.815801	0.108457
945.993317	0.107789
946.170816	0.106608
946.348297	0.106322
946.525759	0.106313
946.703203	0.105128
946.880629	0.104181
947.058036	0.103807
947.235425	0.102584
947.412797	0.101604
947.590149	0.100588
947.767484	0.100248
947.944800	0.097171
948.122099	0.096166
948.299379	0.096080
948.476640	0.095774
948.653884	0.095460
948.831109	0.095601
949.008316	0.094908
949.185505	0.094838
949.362676	0.094463
949.539828	0.095365
949.716962	0.095445
949.894078	0.093561
950.071176	0.094626
950.248256	0.095015
950.425317	0.093941
950.602360	0.094042
950.779385	0.093270
950.956391	0.093457
951.133380	0.094358
951.310350	0.091708
951.487302	0.091592
951.664235	0.090020
951.841151	0.087649
952.018048	0.088183
952.194927	0.086693
952.371788	0.086701
952.548631	0.084473
952.725455	0.084170
952.902261	0.084519
953.079049	0.085334
953.255819	0.083819
953.432570	0.084006
953.609303	0.082688
953.786018	0.082114
953.962715	0.081153
954.139394	0.081036
954.316054	0.080475
954.492696	0.080227
954.669320	0.078312
954.845926	0.079015
955.022513	0.079816
955.199083	0.080020
955.375634	0.079184
955.552166	0.078906
955.728681	0.078250
955.905177	0.077297
956.081655	0.077549
956.258115	0.078467
956.434557	0.077407
956.610980	0.076901
956.787385	0.076769
956.963772	0.076705
957.140141	0.076345
957.316492	0.077128
957.492824	0.075324
957.669138	0.074832
957.845434	0.073909
958.021712	0.073666
958.197971	0.072122
958.374212	0.070294
958.550435	0.071043
958.726640	0.069974
958.902826	0.068449
959.078995	0.069742
959.255145	0.070169
959.431277	0.069369
959.607390	0.070258
959.783486	0.069069
959.959563	0.068499
960.135622	0.068070
960.311662	0.068628
960.487685	0.069884
960.663689	0.069082
960.839675	0.068202
961.015643	0.071034
961.191593	0.069169
961.367524	0.069447
961.543437	0.070045
961.719332	0.070603
961.895209	0.072130
962.071067	0.070189
962.246907	0.069645
962.422730	0.068838
962.598533	0.065005
962.774319	0.064937
962.950086	0.064075
963.125835	0.064075
963.301566	0.064443
963.477279	0.063993
963.652973	0.063353
963.828650	0.063405
964.004308	0.064221
964.179947	0.066138
964.355569	0.065311
964.531172	0.067387
964.706757	0.066024
964.882324	0.066873
965.057873	0.065982
965.233403	0.067335
965.408916	0.067977
965.584410	0.068232
965.759885	0.068484
965.935343	0.067606
966.110782	0.065293
966.286203	0.065351
966.461606	0.063766
966.636991	0.063631
966.812357	0.064373
966.987705	0.064963
967.163035	0.063003
967.338347	0.063211
967.513641	0.063835
967.688916	0.064730
967.864173	0.066492
968.039412	0.067538
968.214632	0.066653
968.389835	0.065233
968.565019	0.063788
968.740185	0.064254
968.915333	0.062996
969.090462	0.064027
969.265573	0.064246
969.440667	0.063991
969.615741	0.061109
969.790798	0.062508
969.965836	0.062301
970.140856	0.063646
970.315858	0.063698
970.490842	0.064792
970.665808	0.063294
970.840755	0.063644
971.015684	0.064040
971.190595	0.067766
971.365487	0.067169
971.540362	0.067365
971.715218	0.067547
971.890056	0.068107
972.064875	0.067033
972.239677	0.067203
972.414460	0.066227
972.589225	0.064555
972.763972	0.061077
972.938700	0.060658
973.113411	0.059211
973.288103	0.058769
973.462777	0.059562
973.637432	0.059989
973.812070	0.062112
973.986689	0.062748
974.161290	0.064010
974.335873	0.064608
974.510437	0.064392
974.684984	0.065355
974.859512	0.065437
975.034022	0.064997
975.208513	0.064708
975.382987	0.063188
975.557442	0.063336
975.731879	0.063600
975.906298	0.065896
976.080698	0.066228
976.255080	0.067929
976.429445	0.067091
976.603790	0.066582
976.778118	0.065857
976.952427	0.066082
977.126719	0.067273
977.300992	0.066497
977.475246	0.064069
977.649483	0.063518
977.823701	0.063668
977.997901	0.063474
978.172083	0.063249
978.346247	0.063102
978.520392	0.064155
978.694519	0.062492
978.868628	0.063924
979.042719	0.064488
979.216791	0.062939
979.390845	0.061280
979.564882	0.061613
979.738899	0.063121
979.912899	0.063958
980.086880	0.063163
980.260843	0.062950
980.434788	0.061175
980.608715	0.060847
980.782623	0.060683
980.956514	0.061678
981.130386	0.062305
981.304240	0.060494
981.478075	0.060188
981.651892	0.060749
981.825692	0.061735
981.999472	0.062399
982.173235	0.061036
982.346980	0.062981
982.520706	0.061860
982.694414	0.062280
982.868104	0.063252
983.041775	0.062926
983.215428	0.060995
983.389064	0.061373
983.562680	0.061445
983.736279	0.062197
983.909860	0.063523
984.083422	0.064678
984.256966	0.063622
984.430491	0.062324
984.603999	0.061098
984.777488	0.061097
984.950959	0.060777
985.124412	0.059477
985.297847	0.061355
985.471263	0.059945
985.644661	0.060237
985.818041	0.060821
985.991403	0.061376
986.164747	0.063259
986.338072	0.065160
986.511379	0.064724
986.684668	0.066352
986.857938	0.064354
987.031191	0.065140
987.204425	0.064822
987.377641	0.063631
987.550839	0.063635
987.724018	0.063690
987.897179	0.063356
988.070322	0.063853
988.243447	0.063374
988.416554	0.065688
988.589642	0.063830
988.762712	0.064175
988.935764	0.066253
989.108798	0.066327
989.281813	0.064875
989.454811	0.064149
989.627790	0.064407
989.800751	0.063819
989.973693	0.062710
990.146617	0.063768
990.319524	0.063505
990.492412	0.062198
990.665281	0.063649
990.838133	0.063122
991.010966	0.063657
991.183781	0.064116
991.356578	0.064256
991.529356	0.063329
991.702117	0.065057
991.874859	0.064571
992.047583	0.064352
992.220288	0.063491
992.392976	0.065214
992.565645	0.065386
992.738296	0.064996
992.910929	0.064757
993.083543	0.065863
993.256139	0.063762
993.428718	0.062190
993.601277	0.061976
993.773819	0.061915
993.946342	0.061354
994.118848	0.062184
994.291335	0.061532
994.463803	0.062745
994.636254	0.061167
994.808686	0.062383
994.981100	0.064772
995.153496	0.064864
995.325874	0.064970
995.498233	0.064662
995.670574	0.063504
995.842897	0.064171
996.015202	0.064710
996.187488	0.064427
996.359757	0.064524
996.532007	0.065043
996.704239	0.065161
996.876452	0.064733
997.048648	0.064867
997.220825	0.065052
997.392984	0.064004
997.565124	0.062566
997.737247	0.064366
997.909351	0.063436
998.081437	0.062652
998.253505	0.062455
998.425554	0.062597
998.597586	0.063247
998.769599	0.064053
998.941594	0.064204
999.113571	0.063030
999.285529	0.062658
999.457469	0.064154
999.629391	0.062884
999.801295	0.064084
999.973181	0.064119
1000.145048	0.065103
1000.316897	0.063998
1000.488728	0.063833
1000.660541	0.065840
1000.832335	0.064851
1001.004111	0.063349
1001.175869	0.065248
1001.347609	0.064739
1001.519331	0.065241
1001.691034	0.064154
1001.862719	0.064147
1002.034386	0.064749
1002.206035	0.064438
1002.377665	0.064977
1002.549277	0.065152
1002.720871	0.063778
1002.892447	0.063305
1003.064004	0.062691
1003.235544	0.062884
1003.407065	0.063769
1003.578568	0.063933
1003.750052	0.063872
1003.921519	0.064794
1004.092967	0.065558
1004.264397	0.066373
1004.435809	0.066538
1004.607202	0.066888
1004.778577	0.067115
1004.949934	0.066888
1005.121273	0.068246
1005.292594	0.066778
1005.463896	0.066794
1005.635180	0.066288
1005.806446	0.064371
1005.977694	0.063570
1006.148923	0.063497
1006.320135	0.062670
1006.491328	0.065010
1006.662503	0.062482
1006.833659	0.062861
1007.004798	0.062849
1007.175918	0.064607
1007.347020	0.067211
1007.518103	0.066433
1007.689169	0.066180
1007.860216	0.067003
1008.031245	0.065748
1008.202256	0.066844
1008.373248	0.067346
1008.544223	0.066179
1008.715179	0.064170
1008.886117	0.063206
1009.057036	0.065143
1009.227938	0.066400
1009.398821	0.065760
1009.569686	0.064749
1009.740533	0.063320
1009.911361	0.062774
1010.082172	0.063417
1010.252964	0.064620
1010.423738	0.064870
1010.594493	0.063315
1010.765231	0.062257
1010.935950	0.062699
1011.106651	0.063007
1011.277334	0.062743
1011.447998	0.064115
1011.618645	0.063393
1011.789273	0.060897
1011.959882	0.059599
1012.130474	0.061244
1012.301048	0.060532
1012.471603	0.060145
1012.642140	0.059200
1012.812658	0.061053
1012.983159	0.059516
1013.153641	0.060222
1013.324105	0.061817
1013.494551	0.062562
1013.664979	0.061803
1013.835388	0.062400
1014.005779	0.062765
1014.176152	0.063387
1014.346507	0.062623
1014.516843	0.062274
1014.687162	0.062300
1014.857462	0.062039
1015.027744	0.061043
1015.198007	0.061484
1015.368252	0.062571
1015.538480	0.063370
1015.708689	0.063117
1015.878879	0.063671
1016.049052	0.064433
1016.219206	0.064535
1016.389342	0.064512
1016.559460	0.065695
1016.729559	0.064175
1016.899641	0.062723
1017.069704	0.062322
1017.239749	0.062784
1017.409775	0.061862
1017.579784	0.062306
1017.749774	0.062158
1017.919746	0.062698
1018.089700	0.064284
1018.259635	0.064787
1018.429553	0.065301
1018.599452	0.066154
1018.769333	0.066373
1018.939195	0.068463
1019.109040	0.068684
1019.278866	0.069554
1019.448674	0.070371
1019.618464	0.067708
1019.788235	0.067433
1019.957989	0.067477
1020.127724	0.065560
1020.297441	0.064625
1020.467139	0.062455
1020.636820	0.062454
1020.806482	0.060968
1020.976126	0.061411
1021.145752	0.063839
1021.315359	0.063775
1021.484948	0.063829
1021.654519	0.063835
1021.824072	0.064463
1021.993607	0.064570
1022.163123	0.065413
1022.332621	0.065358
1022.502101	0.062736
1022.671563	0.061054
1022.841007	0.062896
1023.010432	0.062868
1023.179839	0.063368
1023.349228	0.063215
1023.518598	0.065570
1023.687951	0.064198
1023.857285	0.065741
1024.026601	0.066304
1024.195899	0.066573
1024.365178	0.066009
1024.534439	0.066009
1024.703682	0.065542
1024.872907	0.066882
1025.042114	0.066866
1025.211302	0.066371
1025.380472	0.065861
1025.549624	0.066764
1025.718758	0.067178
1025.887873	0.068505
1026.056970	0.066338
1026.226049	0.068120
1026.395110	0.065781
1026.564153	0.062910
1026.733177	0.064566
1026.902183	0.064339
1027.071171	0.062401
1027.240141	0.061602
1027.409092	0.059670
1027.578026	0.060732
1027.746940	0.057925
1027.915837	0.059069
1028.084716	0.059365
1028.253576	0.057526
1028.422418	0.057299
1028.591242	0.059183
1028.760048	0.060242
1028.928835	0.061484
1029.097604	0.062219
1029.266355	0.063555
1029.435088	0.063106
1029.603803	0.064718
1029.772499	0.066089
1029.941177	0.066430
1030.109837	0.065066
1030.278478	0.064911
1030.447102	0.063678
1030.615707	0.062537
1030.784294	0.063968
1030.952863	0.065870
1031.121413	0.066293
1031.289945	0.067485
1031.458460	0.065924
1031.626955	0.066599
1031.795433	0.066303
1031.963892	0.066031
1032.132334	0.066930
1032.300756	0.065860
1032.469161	0.064199
1032.637548	0.063519
1032.805916	0.062232
1032.974266	0.062871
1033.142598	0.062506
1033.310911	0.062420
1033.479207	0.063409
1033.647484	0.063755
1033.815743	0.063470
1033.983983	0.063346
1034.152206	0.061295
1034.320410	0.060205
1034.488596	0.060437
1034.656764	0.060613
1034.824914	0.060744
1034.993045	0.061183
1035.161158	0.062891
1035.329253	0.063638
1035.497330	0.063848
1035.665388	0.066121
1035.833428	0.067923
1036.001450	0.067976
1036.169454	0.068544
1036.337440	0.066834
1036.505407	0.067023
1036.673356	0.064642
1036.841287	0.065461
1037.009200	0.064935
1037.177094	0.065274
1037.344970	0.063519
1037.512828	0.064407
1037.680668	0.065105
1037.848489	0.065334
1038.016293	0.063541
1038.184078	0.062714
1038.351845	0.061968
1038.519593	0.062268
1038.687324	0.060414
1038.855036	0.061310
1039.022730	0.060752
1039.190406	0.060554
1039.358063	0.062041
1039.525702	0.062939
1039.693323	0.064593
1039.860926	0.064846
1040.028511	0.064531
1040.196077	0.067357
1040.363625	0.065790
1040.531155	0.065964
1040.698667	0.065190
1040.866161	0.067686
1041.033636	0.067285
1041.201093	0.066339
1041.368532	0.065414
1041.535952	0.065539
1041.703355	0.062768
1041.870739	0.064667
1042.038105	0.063749
1042.205452	0.064925
1042.372782	0.062541
1042.540093	0.062680
1042.707386	0.062221
1042.874661	0.062775
1043.041918	0.064427
1043.209156	0.065933
1043.376376	0.066240
1043.543578	0.065577
1043.710762	0.063446
1043.877927	0.062767
1044.045074	0.061978
1044.212203	0.063237
1044.379314	0.062178
1044.546407	0.061454
1044.713481	0.061112
1044.880537	0.061452
1045.047575	0.062362
1045.214595	0.063624
1045.381596	0.063818
1045.548579	0.064564
1045.715544	0.064868
1045.882491	0.065913
1046.049420	0.065795
1046.216330	0.065102
1046.383222	0.063945
1046.550096	0.064203
1046.716951	0.064734
1046.883789	0.065092
1047.050608	0.065649
1047.217409	0.065280
1047.384192	0.066192
1047.550956	0.064444
1047.717703	0.063852
1047.884431	0.065585
1048.051140	0.065782
1048.217832	0.063717
1048.384505	0.063373
1048.551161	0.062770
1048.717798	0.062627
1048.884416	0.060656
1049.051017	0.061700
1049.217599	0.062665
1049.384163	0.061099
1049.550709	0.060781
1049.717237	0.062900
1049.883746	0.061814
1050.050237	0.062460
1050.216710	0.063999
1050.383165	0.063264
1050.549601	0.063488
1050.716019	0.063911
1050.882420	0.063793
1051.048801	0.063271
1051.215165	0.062737
1051.381510	0.064042
1051.547837	0.063452
1051.714146	0.062007
1051.880437	0.062559
1052.046709	0.062063
1052.212964	0.062511
1052.379200	0.062252
1052.545417	0.062809
1052.711617	0.063689
1052.877798	0.064627
1053.043961	0.064609
1053.210106	0.064372
1053.376233	0.065877
1053.542341	0.065923
1053.708432	0.064492
1053.874504	0.064814
1054.040557	0.064216
1054.206593	0.063522
1054.372610	0.061769
1054.538609	0.061033
1054.704590	0.060239
1054.870553	0.058748
1055.036497	0.058348
1055.202424	0.058090
1055.368331	0.059354
1055.534221	0.059548
1055.700093	0.060698
1055.865946	0.059640
1056.031781	0.060196
1056.197598	0.061871
1056.363397	0.062916
1056.529177	0.063615
1056.694939	0.065805
1056.860683	0.064480
1057.026409	0.065156
1057.192116	0.063437
1057.357806	0.065175
1057.523477	0.065151
1057.689130	0.065482
1057.854764	0.064002
1058.020381	0.064491
1058.185979	0.062733
1058.351559	0.064624
1058.517120	0.065999
1058.682664	0.065979
1058.848189	0.066911
1059.013696	0.068206
1059.179185	0.069268
1059.344656	0.070433
1059.510108	0.071450
1059.675542	0.070844
1059.840958	0.069356
1060.006356	0.068614
1060.171735	0.067120
1060.337096	0.066077
1060.502439	0.065803
1060.667764	0.063071
1060.833071	0.062623
1060.998359	0.060739
1061.163629	0.062739
1061.328881	0.062461
1061.494115	0.060568
1061.659330	0.061146
1061.824527	0.060431
1061.989706	0.059261
1062.154867	0.058814
1062.320010	0.059662
1062.485134	0.061834
1062.650240	0.061755
1062.815328	0.062220
1062.980398	0.065866
1063.145449	0.067804
1063.310482	0.068794
1063.475497	0.068367
1063.640494	0.069336
1063.805473	0.068305
1063.970433	0.065636
1064.135375	0.068043
1064.300299	0.067260
1064.465204	0.065308
1064.630092	0.064782
1064.794961	0.064385
1064.959812	0.068170
1065.124645	0.070314
1065.289459	0.071407
1065.454256	0.071990
1065.619034	0.069204
1065.783793	0.068435
1065.948535	0.067354
1066.113258	0.067008
1066.277964	0.067782
1066.442651	0.065040
1066.607319	0.063813
1066.771970	0.063333
1066.936602	0.063674
1067.101216	0.063329
1067.265812	0.065396
1067.430389	0.065053
1067.594949	0.064796
1067.759490	0.064151
1067.924013	0.065467
1068.088518	0.067445
1068.253004	0.065820
1068.417472	0.067473
1068.581922	0.068508
1068.746354	0.067938
1068.910768	0.067402
1069.075163	0.066576
1069.239540	0.068198
1069.403899	0.067103
1069.568240	0.065852
1069.732562	0.068004
1069.896866	0.066118
1070.061152	0.065535
1070.225420	0.065148
1070.389670	0.066502
1070.553901	0.067311
1070.718114	0.064232
1070.882309	0.063595
1071.046486	0.061619
1071.210644	0.060568
1071.374784	0.062585
1071.538906	0.061447
1071.703010	0.061891
1071.867096	0.060475
1072.031163	0.059766
1072.195212	0.061422
1072.359243	0.061239
1072.523256	0.060320
1072.687250	0.060911
1072.851226	0.060272
1073.015184	0.059912
1073.179124	0.059602
1073.343045	0.062460
1073.506949	0.063362
1073.670834	0.064756
1073.834701	0.067149
1073.998549	0.069020
1074.162380	0.069902
1074.326192	0.069286
1074.489986	0.070745
1074.653761	0.071526
1074.817519	0.069677
1074.981258	0.067944
1075.144979	0.067084
1075.308682	0.065880
1075.472367	0.067082
1075.636033	0.065708
1075.799681	0.063407
1075.963311	0.061416
1076.126923	0.060066
1076.290516	0.060070
1076.454092	0.062962
1076.617649	0.064931
1076.781187	0.063556
1076.944708	0.063535
1077.108210	0.064503
1077.271695	0.065458
1077.435160	0.067459
1077.598608	0.067538
1077.762038	0.069835
1077.925449	0.070403
1078.088842	0.069223
1078.252217	0.072231
1078.415573	0.069487
1078.578912	0.070102
1078.742232	0.071229
1078.905534	0.070762
1079.068817	0.070982
1079.232083	0.071994
1079.395330	0.071440
1079.558559	0.069949
1079.721770	0.068262
1079.884962	0.068951
1080.048136	0.067639
1080.211293	0.067562
1080.374430	0.068771
1080.537550	0.069037
1080.700651	0.067346
1080.863735	0.066429
1081.026800	0.065038
1081.189846	0.064217
1081.352875	0.065386
1081.515885	0.065914
1081.678877	0.068069
1081.841851	0.069487
1082.004807	0.067241
1082.167744	0.066356
1082.330663	0.066252
1082.493564	0.067991
1082.656447	0.068152
1082.819312	0.069962
1082.982158	0.069980
1083.144986	0.067332
1083.307796	0.064190
1083.470587	0.065369
1083.633361	0.067970
1083.796116	0.068784
1083.958853	0.067234
1084.121571	0.068186
1084.284272	0.065571
1084.446954	0.064977
1084.609618	0.067092
1084.772264	0.069498
1084.934892	0.070808
1085.097501	0.067993
1085.260092	0.067905
1085.422665	0.071638
1085.585220	0.072961
1085.747756	0.074670
1085.910274	0.074198
1086.072774	0.075657
1086.235256	0.074674
1086.397720	0.074570
1086.560165	0.074978
1086.722592	0.076396
1086.885001	0.077712
1087.047392	0.074244
1087.209764	0.072591
1087.372119	0.072790
1087.534455	0.067340
1087.696772	0.065859
1087.859072	0.066443
1088.021353	0.065561
1088.183616	0.063598
1088.345861	0.058940
1088.508088	0.059601
1088.670296	0.058943
1088.832486	0.060978
1088.994658	0.062479
1089.156812	0.064376
1089.318948	0.064659
1089.481065	0.068579
1089.643164	0.069177
1089.805245	0.069950
1089.967308	0.069263
1090.129352	0.068386
1090.291378	0.067424
1090.453386	0.069534
1090.615376	0.069418
1090.777347	0.070007
1090.939301	0.067482
1091.101236	0.067045
1091.263153	0.070038
1091.425051	0.070359
1091.586932	0.072247
1091.748794	0.072014
1091.910638	0.070949
1092.072463	0.071134
1092.234271	0.069261
1092.396060	0.069069
1092.557831	0.067633
1092.719584	0.065067
1092.881319	0.067178
1093.043035	0.067723
1093.204733	0.067599
1093.366413	0.067339
1093.528075	0.066181
1093.689718	0.068109
1093.851343	0.066710
1094.012950	0.067280
1094.174539	0.066377
1094.336110	0.066996
1094.497662	0.065958
1094.659196	0.066296
1094.820712	0.067316
1094.982210	0.065478
1095.143689	0.064255
1095.305151	0.065484
1095.466594	0.067429
1095.628018	0.068181
1095.789425	0.065733
1095.950813	0.068807
1096.112183	0.067789
1096.273535	0.069584
1096.434869	0.070701
1096.596184	0.073302
1096.757482	0.073678
1096.918761	0.073052
1097.080021	0.073689
1097.241264	0.075758
1097.402488	0.076217
1097.563694	0.076694
1097.724882	0.072490
1097.886052	0.075150
1098.047203	0.075562
1098.208336	0.073818
1098.369451	0.073496
1098.530548	0.076878
1098.691627	0.074308
1098.852687	0.070385
1099.013729	0.069872
1099.174753	0.072696
1099.335758	0.074435
1099.496746	0.073904
1099.657715	0.077461
1099.818666	0.077579
1099.979599	0.075757
1100.140513	0.076312
1100.301409	0.080962
1100.462287	0.079017
1100.623147	0.075893
1100.783989	0.073400
1100.944812	0.071305
1101.105617	0.070047
1101.266404	0.066745
1101.427173	0.062064
1101.587923	0.063359
1101.748656	0.058664
1101.909370	0.060471
1102.070066	0.062812
1102.230743	0.062098
1102.391403	0.060896
1102.552044	0.059128
1102.712667	0.066199
1102.873271	0.069260
1103.033858	0.069119
1103.194426	0.069199
1103.354976	0.069875
1103.515508	0.068324
1103.676021	0.066258
1103.836517	0.069129
1103.996994	0.069185
1104.157453	0.063464
1104.317893	0.062362
1104.478316	0.063984
1104.638720	0.068306
1104.799106	0.069980
1104.959474	0.071138
1105.119823	0.072924
1105.280155	0.072623
1105.440468	0.074824
1105.600763	0.076206
1105.761039	0.073987
1105.921298	0.071713
1106.081538	0.067883
1106.241760	0.067653
1106.401964	0.069984
1106.562149	0.071626
1106.722316	0.074280
1106.882465	0.072696
1107.042596	0.070353
1107.202709	0.074815
1107.362803	0.077754
1107.522879	0.079628
1107.682937	0.080736
1107.842977	0.079659
1108.002999	0.080899
1108.163002	0.079870
1108.322987	0.079374
1108.482954	0.079935
1108.642902	0.079649
1108.802833	0.076601
1108.962745	0.076598
1109.122639	0.075565
1109.282515	0.076315
1109.442372	0.074326
1109.602211	0.072917
1109.762032	0.074562
1109.921835	0.079423
1110.081620	0.079553
1110.241386	0.082407
1110.401134	0.080660
1110.560864	0.082220
1110.720576	0.076880
1110.880269	0.075163
1111.039945	0.070292
1111.199602	0.070365
1111.359240	0.065475
1111.518861	0.064875
1111.678463	0.062235
1111.838047	0.062756
1111.997613	0.057930
1112.157161	0.063974
1112.316690	0.061845
1112.476202	0.064725
1112.635695	0.065385
1112.795169	0.068180
1112.954626	0.070011
1113.114064	0.071763
1113.273484	0.068085
1113.432886	0.071678
1113.592270	0.070940
1113.751635	0.073969
1113.910983	0.073063
1114.070312	0.072510
1114.229622	0.072426
1114.388915	0.070734
1114.548189	0.068105
1114.707445	0.070907
1114.866683	0.066826
1115.025903	0.069201
1115.185104	0.068536
1115.344287	0.072416
1115.503452	0.076981
1115.662599	0.079121
1115.821727	0.082328
1115.980838	0.084105
1116.139930	0.086599
1116.299004	0.091105
1116.458059	0.087254
1116.617097	0.088690
1116.776116	0.086266
1116.935117	0.084570
1117.094099	0.083407
1117.253064	0.082761
1117.412010	0.085116
1117.570938	0.086462
1117.729848	0.084468
1117.888740	0.086343
1118.047613	0.085752
1118.206468	0.086265
1118.365305	0.083254
1118.524124	0.080542
1118.682924	0.080074
1118.841707	0.076742
1119.000471	0.073518
1119.159216	0.073024
1119.317944	0.070076
1119.476653	0.068852
1119.635344	0.070704
1119.794017	0.069067
1119.952672	0.071166
1120.111308	0.070649
1120.269927	0.070429
1120.428527	0.076050
1120.587108	0.076556
1120.745672	0.081080
1120.904217	0.082127
1121.062744	0.081560
1121.221253	0.084779
1121.379744	0.085622
1121.538216	0.080841
1121.696671	0.083871
1121.855107	0.077789
1122.013524	0.081972
1122.171924	0.079932
1122.330305	0.081273
1122.488668	0.080357
1122.647013	0.082178
1122.805340	0.081452
1122.963648	0.085441
1123.121938	0.081618
1123.280210	0.081794
1123.438464	0.077571
1123.596700	0.078311
1123.754917	0.075446
1123.913116	0.077418
1124.071297	0.073440
1124.229459	0.075182
1124.387604	0.073358
1124.545730	0.075690
1124.703838	0.076457
1124.861928	0.078782
1125.019999	0.075766
1125.178052	0.077273
1125.336088	0.073840
1125.494104	0.074327
1125.652103	0.075269
1125.810083	0.077925
1125.968045	0.084563
1126.125989	0.081906
1126.283915	0.085134
1126.441823	0.088340
1126.599712	0.089001
1126.757583	0.089978
1126.915436	0.085049
1127.073270	0.082664
1127.231087	0.081973
1127.388885	0.076273
1127.546665	0.078088
1127.704426	0.075722
1127.862170	0.074320
1128.019895	0.077336
1128.177602	0.074899
1128.335291	0.074717
1128.492961	0.076662
1128.650614	0.081383
1128.808248	0.084456
1128.965864	0.083557
1129.123461	0.086015
1129.281041	0.086163
1129.438602	0.084778
1129.596145	0.086455
1129.753670	0.092525
1129.911176	0.089389
1130.068665	0.084606
1130.226135	0.082374
1130.383587	0.087559
1130.541020	0.085039
1130.698436	0.083503
1130.855833	0.081058
1131.013212	0.081416
1131.170573	0.084816
1131.327915	0.082630
1131.485239	0.083743
1131.642545	0.082573
1131.799833	0.082450
1131.957103	0.078352
1132.114354	0.083389
1132.271588	0.086090
1132.428803	0.084879
1132.585999	0.077358
1132.743178	0.082818
1132.900338	0.080844
1133.057480	0.082662
1133.214604	0.084173
1133.371710	0.083788
1133.528797	0.076632
1133.685866	0.078471
1133.842917	0.079881
1133.999950	0.084096
1134.156964	0.083652
1134.313960	0.083875
1134.470938	0.080270
1134.627898	0.080960
1134.784840	0.078324
1134.941763	0.080144
1135.098668	0.079026
1135.255555	0.076827
1135.412424	0.075835
1135.569274	0.070101
1135.726107	0.071978
1135.882921	0.071207
1136.039716	0.068845
1136.196494	0.074198
1136.353253	0.078311
1136.509995	0.072981
1136.666717	0.072695
1136.823422	0.073779
1136.980109	0.075620
1137.136777	0.075049
1137.293427	0.079123
1137.450059	0.070148
1137.606672	0.068044
1137.763267	0.062919
1137.919844	0.062080
1138.076403	0.060942
1138.232944	0.057316
1138.389466	0.059672
1138.545971	0.059183
1138.702457	0.061927
1138.858924	0.064171
1139.015374	0.063245
1139.171805	0.066463
1139.328218	0.069067
1139.484613	0.073851
1139.640990	0.070867
1139.797348	0.069600
1139.953688	0.067687
1140.110010	0.065303
1140.266314	0.074520
1140.422600	0.087653
1140.578867	0.076952
1140.735116	0.070316
1140.891347	0.071233
1141.047559	0.087272
1141.203754	0.087526
1141.359930	0.089557
1141.516088	0.089241
1141.672228	0.078364
1141.828349	0.071255
1141.984452	0.076585
1142.140537	0.085055
1142.296604	0.086465
1142.452653	0.076608
1142.608683	0.074971
1142.764695	0.078088
1142.920689	0.077590
1143.076665	0.081426
1143.232622	0.079961
1143.388562	0.079208
1143.544483	0.083772
1143.700385	0.077860
1143.856270	0.076498
1144.012136	0.074708
1144.167985	0.070267
1144.323814	0.062664
1144.479626	0.068678
1144.635420	0.064306
1144.791195	0.069592
1144.946952	0.060523
1145.102691	0.060086
1145.258411	0.059539
1145.414113	0.065977
1145.569798	0.068177
1145.725463	0.073238
1145.881111	0.068497
1146.036741	0.077095
1146.192352	0.074608
1146.347945	0.078615
1146.503519	0.087213
1146.659076	0.088235
1146.814614	0.080112
1146.970134	0.076689
1147.125636	0.074726
1147.281120	0.078711
1147.436585	0.072950
1147.592032	0.069690
1147.747461	0.064542
1147.902872	0.055730
1148.058265	0.055360
1148.213639	0.056001
1148.368995	0.053113
1148.524333	0.055642
1148.679653	0.057480
1148.834954	0.063386
1148.990237	0.067750
1149.145502	0.071450
1149.300749	0.077489
1149.455977	0.084866
1149.611188	0.094117
1149.766380	0.091671
1149.921553	0.094458
1150.076709	0.092268
1150.231846	0.085574
1150.386966	0.084056
1150.542066	0.085342
1150.697149	0.082041
1150.852214	0.075767
1151.007260	0.066720
1151.162288	0.071862
1151.317298	0.074237
1151.472289	0.074888
1151.627263	0.076157
1151.782218	0.074851
1151.937155	0.072163
1152.092073	0.080981
1152.246974	0.084760
1152.401856	0.087820
1152.556720	0.079872
1152.711566	0.071333
1152.866393	0.069754
1153.021203	0.070868
1153.175994	0.067842
1153.330767	0.073614
1153.485521	0.067351
1153.640258	0.066775
1153.794976	0.074684
1153.949676	0.078851
1154.104358	0.074908
1154.259021	0.067439
1154.413667	0.063498
1154.568294	0.070644
1154.722903	0.067813
1154.877493	0.066007
1155.032066	0.055675
1155.186620	0.048127
1155.341156	0.059012
1155.495674	0.067125
1155.650173	0.071717
1155.804654	0.072521
1155.959118	0.063231
1156.113562	0.056563
1156.267989	0.059128
1156.422397	0.056649
1156.576788	0.060681
1156.731160	0.052950
1156.885513	0.056089
1157.039849	0.059293
1157.194166	0.058165
1157.348465	0.059978
1157.502746	0.070307
1157.657009	0.062642
1157.811253	0.073760
1157.965479	0.072276
1158.119687	0.072390
1158.273877	0.063824
1158.428048	0.057088
1158.582201	0.060370
1158.736337	0.066965
1158.890453	0.061402
1159.044552	0.062515
1159.198632	0.057338
1159.352694	0.060084
1159.506738	0.063092
1159.660764	0.070614
1159.814771	0.076443
1159.968761	0.087637
1160.122732	0.089844
1160.276685	0.096353
1160.430619	0.107175
1160.584535	0.100599
1160.738434	0.091611
1160.892313	0.086897
1161.046175	0.082776
1161.200019	0.087584
1161.353844	0.063873
1161.507651	0.061292
1161.661440	0.061713
1161.815210	0.055514
1161.968962	0.069606
1162.122697	0.075016
1162.276412	0.074172
1162.430110	0.087648
1162.583789	0.073718
1162.737451	0.092219
1162.891094	0.082418
1163.044718	0.076948
1163.198325	0.080107
1163.351913	0.080186
1163.505483	0.083530
1163.659035	0.085942
1163.812569	0.071990
1163.966084	0.080717
1164.119581	0.072421
1164.273060	0.072222
1164.426521	0.065606
1164.579964	0.065227
1164.733388	0.055372
1164.886794	0.055552
1165.040182	0.053161
1165.193551	0.058820
1165.346903	0.053226
1165.500236	0.061329
1165.653551	0.080574
1165.806848	0.083839
1165.960126	0.080662
1166.113386	0.089296
1166.266628	0.093529
1166.419852	0.092221
1166.573058	0.097871
1166.726245	0.113855
1166.879414	0.104553
1167.032565	0.102736
1167.185698	0.108755
1167.338812	0.106118
1167.491909	0.116571
1167.644987	0.110977
1167.798046	0.123111
1167.951088	0.109358
1168.104111	0.093935
1168.257117	0.093231
1168.410103	0.085175
1168.563072	0.088672
1168.716023	0.091073
1168.868955	0.084959
1169.021869	0.075059
1169.174765	0.061459
1169.327642	0.061577
1169.480501	0.065881
1169.633343	0.076055
1169.786165	0.080238
1169.938970	0.068751
1170.091757	0.071664
1170.244525	0.071142
1170.397275	0.080074
1170.550007	0.086730
1170.702720	0.086176
1170.855415	0.085431
1171.008092	0.077554
1171.160751	0.074215
1171.313392	0.081705
1171.466014	0.057961
1171.618619	0.078228
1171.771205	0.078228
1171.923772	0.078228
