sample name	sample
index	884
start time	 04-08-2021  02:21:40 PM
880	0.516911
Peak Time (s)	122.537
Peak Height 	0.5169
calc peak height	120,123
Baseline Time (s)	11.537
Baseline Value 	-0.004444
subtract baseline	10,4
Abs	0.388920
Peak Time (s)	121.537
Peak Height 	0.3889
calc peak height	120,123
Baseline Time (s)	11.036
Baseline Value 	0.001929
subtract baseline	10,3
PK_550	0.193940
Peak Time (s)	121.037
Peak Height 	0.1939
calc peak height	120,123
Baseline Time (s)	11.537
Baseline Value 	7.6478E-4
subtract baseline	10,2
PK_880	0.350609
Peak Time (s)	121.037
Peak Height 	0.3506
calc peak height	120,123
Baseline Time (s)	10.537
Baseline Value 	0.001527
subtract baseline	10,1


Time (s)	A880-A510	A880-A775	A880-A975	A880	I510	I775	I975	I880	
0.035500	0.000934	-0.000166	-0.000351	0.001574	6881.949672	42476.775428	3931.197748	22759.703468
0.535500	-0.000944	-0.000627	-0.000205	0.003848	6842.146420	42227.266525	3925.035373	22654.899072
1.036000	-0.002008	-0.000904	-0.003318	0.006071	6810.905654	42000.529789	3909.701571	22552.939793
1.536500	0.000828	-0.000104	0.000562	0.001420	6882.413864	42496.624734	3934.303955	22766.856401
2.037000	0.000554	-0.000165	0.004170	0.001139	6882.484074	42516.728980	3945.681878	22779.842567
2.537000	0.002022	-0.000300	-0.001367	0.000591	6901.945322	42554.514072	3931.103984	22805.190310
3.037500	-0.003160	-0.001093	-0.002636	0.004983	6810.299313	42081.862911	3914.766326	22602.765764
3.535000	0.001743	-0.000345	-0.000048	0.000719	6898.011371	42538.779487	3934.569323	22799.289696
4.035000	0.000234	-0.000414	-0.000983	0.000480	6885.748342	42554.283229	3932.542849	22810.334850
4.539500	-0.000457	-0.000940	-0.001196	-0.000276	6886.379139	42575.407032	3934.122952	22845.418878
5.036000	-0.002015	-0.000694	0.004381	0.003843	6831.985621	42221.561265	3938.377043	22655.113819
5.535000	0.001290	-0.000509	-0.000139	-0.000253	6903.026922	42612.856489	3937.135173	22844.324276
6.036500	0.001908	-0.000882	0.002968	-0.000190	6908.409034	42572.819203	3946.051992	22841.410817
6.536500	0.001863	-0.000339	0.002233	0.000202	6904.173445	42586.731253	3942.745622	22823.248643
7.039500	-0.000348	-0.000462	0.001247	-0.000742	6891.923360	42662.147169	3942.622785	22867.061529
7.540000	0.002871	0.000158	-0.001885	0.000429	6911.741189	42611.497288	3930.070986	22812.718227
8.037500	0.001555	-0.000689	-0.002846	-0.000298	6906.027942	42600.431760	3929.390216	22846.418905
8.535000	-0.001359	0.000209	0.000048	0.000146	6873.631759	42642.246905	3936.518868	22825.851823
9.035000	0.001659	-0.000734	-0.000270	-0.000282	6906.885969	42594.908106	3936.840731	22845.708406
9.535500	0.001491	-0.000840	-0.000477	-0.000741	6909.707982	42627.343971	3937.576052	22867.016382
10.036000	0.000666	0.000202	0.001230	0.000514	6889.588268	42607.702931	3938.895160	22808.767952
10.536500	0.000000	0.000026	-0.000310	0.000056	6887.577146	42633.656212	3935.737483	22829.998018
11.036000	-0.000381	-0.001067	0.000000	-0.000621	6890.429644	42595.378068	3938.617623	22861.428753
11.537000	-0.000398	0.000000	0.001298	0.000000	6884.280021	42636.394006	3940.599013	22832.603237
12.037000	0.001727	0.000048	-0.000302	0.003036	6875.511948	42362.711364	3927.100991	22692.249827
12.534500	-0.000135	-0.000383	-0.001398	-0.000314	6889.842820	42630.016946	3933.646097	22847.169569
13.037500	0.000873	-0.000544	-0.001146	-0.000955	6905.796710	42674.166812	3936.246804	22876.967141
13.535000	0.001078	0.000399	-0.000881	0.000206	6896.530550	42654.057109	3933.634150	22823.027129
14.035500	-0.000931	-0.001406	-0.000136	0.002411	6856.007270	42287.174835	3929.394124	22721.076907
14.536500	0.000107	-0.000401	-0.001476	0.002271	6867.285095	42391.565788	3925.914876	22727.500622
15.036500	0.002119	-0.000070	0.001450	-0.000462	6913.091226	42672.420376	3942.396940	22854.042032
15.536000	0.002073	0.000842	0.001487	0.000433	6903.972007	42674.026643	3939.884349	22812.523697
16.036500	-0.001989	0.000045	-0.000213	0.003734	6833.275923	42298.834178	3925.341847	22660.139206
16.537000	-0.000460	-0.000530	0.001368	-0.000797	6891.371172	42660.939507	3943.137597	22869.590471
17.037000	0.003605	0.000722	0.005025	-0.002434	6946.781713	42927.468790	3958.756304	22945.820103
17.537500	0.000197	-0.000030	0.000600	0.000795	6882.347261	42560.613853	3936.235013	22795.742284
18.035000	-0.000916	-0.000685	-0.002399	0.000622	6873.311345	42516.527123	3928.020688	22803.785336
18.535500	0.000613	-0.000164	0.003015	0.000904	6885.317253	42538.369986	3942.980797	22790.723573
19.035500	-0.002486	-0.000401	-0.000164	0.000605	6858.402246	42543.977467	3934.561507	22804.541921
19.536000	-0.000250	-0.000494	-0.000957	0.000665	6879.296882	42529.997026	3932.080332	22801.767260
20.036500	-0.000223	-0.000514	-0.002105	0.000710	6879.128844	42524.107469	3928.617696	22799.694911
20.536500	0.001315	-0.000538	-0.003048	0.000550	6895.512736	42536.590573	3926.350195	22807.122088
21.039500	0.000750	-0.000452	0.000307	0.000797	6887.667909	42521.788111	3935.376029	22795.662181
21.536500	0.000918	-0.000409	0.000172	0.000609	6891.102884	42542.984387	3935.531469	22804.384272
22.037000	0.000925	-0.000611	0.001550	0.001109	6886.341391	42478.620503	3938.091088	22781.203387
22.537500	0.000221	-0.000394	-0.000670	0.001196	6878.730859	42490.541670	3931.373483	22777.212380
23.035000	0.000972	0.000161	-0.002132	0.000798	6889.793955	42577.811480	3928.281856	22795.599552
23.535500	0.002034	0.000026	0.000406	0.001185	6896.319231	42530.025114	3934.531607	22777.689939
24.035500	0.000854	-0.000039	0.002732	0.000987	6886.836019	42542.195526	3941.905194	22786.845367
24.536000	-0.000707	-0.000570	0.001429	0.000603	6875.499003	42528.655512	3939.217023	22804.627263
25.036000	0.000268	-0.000653	-0.002892	0.000797	6883.023367	42503.402450	3926.085809	22795.681794
25.539500	0.002145	-0.000124	0.000115	0.001031	6898.880713	42530.378529	3934.133177	22784.830896
26.037000	-0.000643	0.000483	0.004078	0.001320	6869.225958	42559.523855	3944.879992	22771.471913
26.540000	0.001462	-0.000274	0.000056	0.000872	6893.816692	42531.211225	3934.425295	22792.205587
27.037500	0.000451	-0.000132	0.001282	-0.000430	6896.626403	42663.821168	3941.810002	22852.569314
27.535000	0.003111	0.000740	-0.002114	-0.000084	6919.060409	42712.222023	3930.895646	22836.512819
28.035000	0.001956	0.000459	0.001337	0.000156	6905.518936	42664.206919	3940.254084	22825.355820
28.535000	-0.000225	0.000150	0.001468	0.000294	6883.111511	42623.123305	3940.233720	22818.946395
29.036000	0.001384	0.000430	-0.003206	0.003215	6870.499460	42381.296702	3918.206653	22684.022294
29.536000	0.001518	0.000473	0.001962	0.000632	6896.678825	42621.807646	3940.692553	22803.323206
30.038500	-0.001479	0.000161	0.002169	0.003731	6838.161085	42309.649178	3932.255396	22660.280166
30.537000	-0.001280	0.000339	-0.000381	0.002658	6850.298716	42423.777384	3927.967274	22709.666569
31.037000	0.002345	-0.000180	-0.002475	0.001898	6892.439234	42445.928600	3924.107637	22744.755683
31.542000	0.002073	-0.000267	-0.001787	-0.000047	6908.619761	42616.175373	3931.738553	22834.786912
32.037500	-0.002670	0.000111	-0.001112	0.005516	6809.885122	42142.717663	3917.610024	22578.319117
32.535000	0.000547	-0.000938	0.000506	-0.000508	6898.316123	42596.887564	3939.767451	22856.202604
33.035500	0.001784	-0.000060	-0.001929	0.002131	6884.770153	42435.493161	3925.012014	22733.987149
33.535500	0.000384	-0.000264	-0.000945	-0.000535	6896.995435	42661.304347	3935.608862	22857.450379
34.036000	0.000383	-0.000195	0.002993	0.001872	6873.783492	42446.920251	3940.080449	22745.951958
34.536000	0.000654	-0.000413	0.004147	0.001715	6877.896005	42441.321285	3943.920169	22753.207166
35.036500	0.002489	0.001303	0.002629	0.002959	6883.587315	42484.464026	3935.841919	22695.791878
35.537000	-0.000496	-0.000692	-0.001194	0.001221	6871.584371	42460.964139	3929.774737	22776.017969
36.037000	-0.000498	-0.000681	-0.001539	0.001586	6868.056756	42428.581246	3927.717829	22759.142285
36.537500	0.000983	0.000311	-0.002669	0.001862	6879.641803	42494.074716	3923.650164	22746.390205
37.035000	-0.000879	-0.000797	-0.000483	0.001277	6867.367261	42446.231293	3931.678821	22773.436114
37.535500	-0.001837	-0.000652	-0.001032	0.000838	6862.396771	42499.665240	3931.360642	22793.773088
38.035500	0.002778	0.000667	-0.002050	0.002453	6891.255556	42472.529584	3923.730931	22719.118322
38.536000	0.000597	0.000266	0.001209	0.002001	6874.598336	42477.274815	3934.495544	22739.977886
39.035500	0.000608	0.000432	-0.001992	0.001876	6875.905684	42503.966016	3925.570170	22745.777942
39.536500	0.002082	0.000739	0.002061	0.002631	6882.828104	42462.924993	3935.143867	22710.936363
40.036500	0.000204	0.000161	0.000040	0.001699	6873.723906	42495.289043	3931.971094	22753.934306
40.537000	0.000076	0.000114	-0.001535	0.001887	6870.687212	42473.783884	3926.858242	22745.263593
41.037500	0.000076	0.000381	0.001622	0.002143	6868.221533	42474.817082	3935.284589	22733.433031
41.537500	0.001293	-0.000044	0.003320	0.001818	6883.061362	42465.652551	3941.194593	22748.440138
42.035000	0.000403	-0.000166	-0.001580	0.001691	6875.709631	42466.054635	3927.295593	22754.310284
42.535500	0.000734	0.000662	0.000587	0.002126	6874.707875	42502.040135	3932.320980	22734.201293
43.035500	-0.000963	0.000428	0.003269	0.002076	6858.908089	42485.269129	3940.292471	22736.541386
43.536000	0.000882	0.001181	0.003667	0.001263	6884.446330	42628.841584	3943.838284	22774.106522
44.039000	-0.002078	0.000182	0.001025	0.005880	6812.038293	42116.108292	3922.714234	22561.639140
44.537000	0.001843	0.000758	0.003634	0.000125	6904.719952	42694.537093	3947.085127	22826.786370
45.036500	0.000541	0.000436	0.002467	0.000383	6889.648002	42641.250895	3942.901304	22814.845468
45.537000	0.002285	0.000933	0.004192	0.000878	6901.709396	42641.460370	3946.511719	22791.900722
46.034500	-0.001562	0.000225	-0.002875	0.006071	6815.124641	42102.688304	3910.966731	22552.919126
46.535000	0.002491	0.000634	-0.000431	0.000726	6905.184441	42627.931598	3933.433472	22798.944850
47.035000	0.001108	-0.000036	-0.001170	0.002102	6878.540093	42440.411903	3927.291754	22735.319090
47.535500	-0.000303	0.000078	0.001135	0.002803	6858.253773	42386.713257	3931.946375	22702.967854
48.035500	-0.001880	-0.000826	-0.001191	0.005666	6815.946847	42044.206396	3916.952010	22571.456102
48.539000	0.001514	0.000747	0.006810	0.000755	6895.448752	42635.648798	3954.595392	22797.607317
49.036000	-0.000690	-0.000448	0.001259	0.000883	6872.971415	42514.253798	3937.899430	22791.660046
49.536500	0.003108	0.001126	0.003849	-0.001670	6934.467941	42894.206124	3953.011519	22910.213662
50.037000	-0.000125	0.000414	0.002079	0.012307	6769.882211	41558.181023	3907.307170	22269.679635
50.534500	0.003471	-0.000757	-0.001434	-0.016925	7089.581626	44150.391797	3982.823978	23633.268062
51.037500	-0.041686	-0.014938	0.042169	0.178546	5221.576764	28286.634356	3595.277522	16041.001945
51.535000	-0.046840	-0.022485	-0.011270	-0.106096	7500.614096	51110.494496	4246.040367	28407.877859
52.035500	-0.024816	-0.048817	-0.025413	-0.231815	9446.580900	63553.813544	4707.854615	37043.850197
52.535500	-0.011559	-0.012679	-0.009225	-0.115860	8025.451919	53340.821993	4289.498026	28992.730393
53.036000	-0.017016	-0.010145	-0.012370	-0.082504	7570.021854	49872.891415	4158.908361	27047.809525
53.536000	-0.008994	-0.013948	-0.009672	-0.143301	8406.524536	56485.205611	4393.383607	30708.632221
54.036500	0.006767	-0.005325	-0.008449	-0.114363	8235.927231	54028.203451	4286.808426	28902.190473
54.536500	0.019200	-0.000206	-0.001365	-0.089399	8078.441051	51736.594873	4221.580805	27437.724822
55.037000	0.020884	0.002698	0.004541	-0.061675	7765.329808	49013.806734	4145.532212	25906.944384
55.537000	0.025204	0.003870	0.015351	-0.032514	7483.642292	46124.417239	4084.463696	24398.876348
56.034500	0.024960	0.005607	0.024301	-0.008930	7228.166553	43995.093714	4037.580669	23251.172226
56.535000	0.036778	0.009809	0.033740	0.013061	7123.291135	42338.690482	3998.606474	22235.713490
57.035500	0.042539	0.013581	0.040815	0.039806	6914.571058	40297.442401	3939.752044	21068.040192
57.535500	0.052311	0.017952	0.057078	0.068686	6733.081363	38235.489337	3903.379538	19885.330306
58.036000	0.062267	0.023472	0.069905	0.093498	6597.405210	36692.488293	3869.796025	18930.213430
58.536500	0.070688	0.028303	0.083034	0.125229	6393.644606	34652.153237	3819.471104	17785.605505
59.036500	0.085325	0.036786	0.098654	0.147751	6327.159901	33636.426726	3801.341011	17022.458379
59.537000	0.097593	0.042607	0.106126	0.157585	6347.545582	33352.045868	3795.198777	16701.436027
60.040000	0.108148	0.049710	0.125951	0.182583	6228.184050	32115.599565	3781.870327	15917.433766
60.537000	0.123915	0.058305	0.146185	0.202510	6194.538377	31358.521623	3782.658167	15324.006447
61.035000	0.137246	0.064900	0.158645	0.213714	6211.697586	31056.201317	3785.881273	15002.106821
61.535000	0.148515	0.073457	0.170309	0.222952	6228.168783	31011.868638	3792.137721	14742.882979
62.035500	0.157147	0.079202	0.179492	0.233538	6212.326507	30698.197397	3788.515272	14452.512185
62.538500	0.168689	0.087277	0.191487	0.238582	6265.290193	30894.130646	3806.567009	14316.622826
63.036000	0.176768	0.094364	0.203836	0.245943	6271.197171	30876.386756	3819.703112	14121.141522
63.536500	0.181700	0.098167	0.210987	0.251004	6270.136223	30794.917092	3825.251127	13988.639964
64.036500	0.188685	0.101103	0.213435	0.265885	6205.789571	30033.358453	3792.637127	13607.904856
64.536500	0.193123	0.104874	0.222567	0.276318	6157.699978	29617.596408	3789.276448	13348.628192
65.037500	0.200529	0.108484	0.226819	0.283192	6161.940261	29416.219998	3782.537877	13181.173912
65.543000	0.204466	0.110183	0.228395	0.289924	6139.720687	29108.616037	3769.400277	13019.726790
66.041500	0.211027	0.113175	0.231168	0.297182	6134.200676	28850.671331	3758.101537	12848.440985
66.538500	0.211204	0.113480	0.235488	0.302714	6092.093114	28538.057018	3755.066026	12719.792910
67.038500	0.214944	0.117209	0.237884	0.310397	6061.424991	28304.109372	3741.930749	12543.835884
67.538500	0.218871	0.118319	0.248914	0.316740	6042.767569	27997.673302	3753.568032	12400.896111
68.036500	0.222820	0.119775	0.250688	0.325143	6008.643127	27596.526237	3737.147060	12214.704093
68.536500	0.227894	0.123924	0.255068	0.329151	6016.781787	27604.635451	3738.063073	12127.166428
69.036500	0.230584	0.124248	0.253248	0.333271	6005.874920	27388.082509	3723.546409	12038.019208
69.537000	0.236216	0.126953	0.257137	0.339161	6003.899521	27207.826350	3718.701111	11912.011218
70.036500	0.236772	0.127952	0.263223	0.346313	5954.083943	26863.406957	3716.129701	11761.320058
70.534500	0.239724	0.128308	0.265244	0.348057	5963.152519	26786.334162	3716.796270	11724.938832
71.035000	0.243868	0.131481	0.268725	0.352890	5957.972537	26694.496149	3713.541232	11624.890604
71.538500	0.247161	0.133148	0.270782	0.356333	5956.840194	26596.650896	3710.212778	11554.290227
72.035500	0.248910	0.134585	0.276537	0.365077	5904.780484	26198.290130	3703.076310	11377.504724
72.536000	0.251934	0.135652	0.280795	0.364879	5928.658996	26266.835789	3713.735972	11381.479997
73.036000	0.254800	0.137236	0.281850	0.368128	5925.811241	26176.704679	3708.474961	11316.661538
73.536500	0.257270	0.139237	0.286568	0.371602	5918.358322	26097.302125	3711.453151	11247.882515
74.037000	0.259823	0.140722	0.293673	0.374132	5918.532734	26041.092132	3722.488244	11198.145071
74.534000	0.260056	0.141956	0.292211	0.377884	5892.544580	25906.293532	3709.923517	11124.921543
75.037500	0.267816	0.144369	0.302662	0.380505	5930.569769	25895.212624	3728.851365	11074.140417
75.534500	0.268289	0.146061	0.295769	0.383373	5912.793201	25832.529696	3705.306922	11018.923515
76.035000	0.268000	0.145476	0.297584	0.388311	5874.328375	25540.463884	3697.884431	10924.686294
76.535500	0.268816	0.146684	0.303237	0.387988	5882.675439	25621.032279	3712.132871	10930.821268
77.036000	0.276252	0.149683	0.303875	0.390135	5921.691663	25666.068124	3708.516963	10890.164923
77.538500	0.278906	0.150707	0.304376	0.392719	5922.207290	25583.756114	3703.544008	10841.481351
78.036500	0.276475	0.151158	0.307406	0.397845	5866.599065	25339.014212	3698.568127	10745.788558
78.537000	0.279101	0.152482	0.313029	0.398607	5880.227843	25368.241534	3710.149517	10731.645848
79.036500	0.283130	0.154294	0.314485	0.399379	5904.179233	25422.580359	3711.791091	10717.360108
79.534500	0.282742	0.154118	0.314283	0.400415	5893.689423	25359.302627	3708.823954	10698.228138
80.037500	0.287729	0.155623	0.312178	0.406650	5884.516151	25114.071520	3689.056125	10583.997735
80.534500	0.288544	0.158631	0.318281	0.409721	5868.002710	25110.827801	3696.197705	10528.333742
81.035500	0.289747	0.156950	0.321657	0.408121	5888.531922	25106.640863	3708.028230	10557.288936
81.536000	0.293429	0.160316	0.320876	0.412375	5884.329239	25060.924080	3696.058859	10480.548110
82.036000	0.293412	0.159185	0.323055	0.416297	5855.570703	24802.519172	3691.947901	10410.479740
82.537000	0.297959	0.161304	0.323576	0.419138	5867.990012	24765.822411	3686.500190	10360.095168
83.036500	0.297533	0.161662	0.319369	0.418629	5868.596698	24809.892900	3677.876470	10369.100708
83.537500	0.297586	0.162981	0.321511	0.421371	5849.033520	24737.653575	3676.485236	10320.741644
84.037000	0.298652	0.163424	0.324424	0.427859	5809.939478	24433.302433	3668.229443	10207.515605
84.534500	0.304820	0.164908	0.333274	0.426614	5863.509505	24570.184935	3691.715739	10229.110971
85.034500	0.303259	0.165777	0.335422	0.429105	5834.117554	24488.720049	3690.910995	10185.965782
85.538000	0.308896	0.166229	0.335435	0.431419	5858.199134	24395.616603	3685.512946	10146.105522
86.035500	0.306801	0.166999	0.336453	0.432858	5832.590042	24362.241253	3684.527354	10121.417931
86.536000	0.306807	0.166650	0.344807	0.438939	5789.050178	24044.185373	3689.854930	10018.020165
87.036000	0.311874	0.169364	0.336577	0.438982	5825.016517	24175.733498	3670.602362	10017.298951
87.536500	0.310757	0.170601	0.343006	0.441583	5798.358977	24108.460102	3679.464767	9973.513560
88.036500	0.312767	0.170611	0.344754	0.442837	5803.758827	24047.266456	3680.613322	9952.497547
88.537000	0.317006	0.173027	0.344582	0.446839	5805.457934	23969.528343	3670.941800	9885.829100
89.037500	0.317300	0.173095	0.346693	0.447748	5801.057667	23928.414223	3673.717658	9870.776121
89.534500	0.318605	0.173439	0.348443	0.449576	5797.330095	23856.106013	3673.537189	9840.598485
90.038000	0.318602	0.173333	0.345103	0.451072	5786.653077	23778.295499	3662.420055	9815.996351
90.534500	0.316999	0.174388	0.349253	0.453176	5760.396141	23727.467345	3667.106968	9781.523380
91.035500	0.322139	0.176686	0.351385	0.456376	5774.110840	23683.862606	3664.659153	9729.429628
91.535000	0.317849	0.173658	0.347882	0.454910	5754.171961	23608.613079	3660.001537	9753.241305
92.036500	0.322353	0.176146	0.345113	0.462334	5733.695023	23372.546850	3637.025234	9633.441113
92.536500	0.322191	0.176444	0.351782	0.459679	5751.171188	23513.499816	3658.023520	9676.063706
93.036000	0.325265	0.177090	0.355217	0.461099	5762.821256	23476.459200	3662.620578	9653.240842
93.537000	0.324325	0.177654	0.350434	0.463353	5740.364028	23395.835855	3646.657836	9617.170651
94.037500	0.325075	0.178736	0.356899	0.465230	5732.482095	23358.019341	3657.034692	9587.267557
94.535500	0.323161	0.178151	0.352637	0.471154	5678.208491	23051.031992	3634.141274	9493.751910
95.035000	0.327078	0.178736	0.354256	0.466687	5736.296773	23288.901382	3647.755971	9564.150537
95.535000	0.328738	0.180885	0.358930	0.469695	5726.880955	23248.264201	3651.513875	9516.663904
96.036000	0.325252	0.178972	0.360496	0.473390	5677.211182	22984.863462	3646.712300	9458.781767
96.536000	0.324887	0.180906	0.361515	0.477136	5649.151233	22900.566025	3640.596592	9400.619549
97.039500	0.330266	0.180705	0.365025	0.473465	5711.284831	23062.394116	3656.785781	9457.620564
97.536500	0.331276	0.182217	0.361232	0.474285	5712.605915	23094.864332	3646.356474	9444.847426
98.036500	0.329973	0.182136	0.366209	0.479261	5669.337599	22858.937869	3646.355648	9367.826551
98.534500	0.332000	0.181714	0.367932	0.475536	5708.944995	23012.704446	3658.689262	9425.395790
99.035000	0.332364	0.184087	0.369294	0.478674	5689.786078	22977.024295	3654.653821	9376.879406
99.537500	0.333202	0.184012	0.364386	0.478803	5694.666101	22967.497999	3643.293474	9374.885754
100.035500	0.333138	0.183020	0.366301	0.481537	5675.427290	22794.557487	3641.457832	9332.907244
100.535500	0.333820	0.184208	0.371971	0.486589	5645.619665	22616.742782	3642.841027	9256.014811
101.036000	0.333475	0.183882	0.362738	0.481036	5681.177346	22857.632775	3634.629112	9340.573532
101.536000	0.334113	0.184030	0.368011	0.481713	5680.908713	22833.114887	3644.896351	9330.204951
102.036500	0.333720	0.185394	0.372139	0.486243	5647.286162	22687.007410	3643.994452	9261.248269
102.537000	0.333235	0.185518	0.369435	0.489645	5621.011242	22536.916061	3630.388999	9209.938116
103.037000	0.336405	0.185645	0.372043	0.484702	5676.126666	22769.622445	3647.241985	9284.635989
103.536500	0.335803	0.186265	0.370482	0.486412	5660.312108	22719.344105	3639.905218	9258.690304
104.038000	0.336881	0.184870	0.369016	0.485613	5673.145509	22691.943933	3638.416090	9270.804826
104.535000	0.336677	0.187057	0.373482	0.493547	5617.921237	22429.368676	3630.709967	9151.573035
105.035500	0.338342	0.187643	0.372652	0.488972	5660.172529	22664.981715	3639.034959	9220.057092
105.535500	0.335792	0.185772	0.370958	0.487544	5652.528300	22644.644282	3638.441411	9241.585315
106.036000	0.337482	0.188643	0.369508	0.490137	5646.395279	22657.400783	3629.461418	9202.548600
106.536500	0.334869	0.187354	0.373323	0.495785	5590.845801	22341.478005	3625.420262	9118.339116
107.036500	0.339430	0.187587	0.372367	0.490518	5657.050854	22591.558989	3634.957361	9196.842578
107.537000	0.338954	0.188425	0.370852	0.491728	5645.587352	22574.541594	3628.917084	9178.725527
108.037000	0.338875	0.188312	0.375043	0.491937	5643.631617	22559.817922	3637.754168	9175.596389
108.537500	0.340729	0.188893	0.374384	0.493882	5643.014159	22497.616694	3631.965436	9146.593008
109.037500	0.337753	0.187468	0.375783	0.492699	5630.885570	22486.610127	3637.705041	9164.219174
109.535500	0.342139	0.190085	0.377849	0.496075	5637.715943	22452.102427	3634.789957	9114.051724
110.035500	0.339039	0.187813	0.375099	0.494901	5624.705956	22402.275427	3631.291947	9131.447233
110.536000	0.339468	0.188812	0.375463	0.494818	5628.158866	22451.357732	3632.282789	9132.681894
111.036500	0.341323	0.189980	0.377305	0.497083	5625.394117	22401.580757	3631.345138	9099.141210
111.536500	0.343447	0.189424	0.379697	0.497595	5636.280034	22353.244118	3635.519425	9091.584232
112.036500	0.342893	0.189762	0.377369	0.498754	5624.711539	22316.186234	3627.793472	9074.511764
112.537000	0.343831	0.189617	0.374444	0.504028	5595.638173	22073.163981	3609.871046	8997.378898
113.040000	0.341913	0.190358	0.380498	0.499843	5610.805876	22293.958334	3632.306079	9058.512238
113.537500	0.343820	0.190973	0.383354	0.501220	5614.361753	22259.625007	3635.589296	9038.334905
114.035500	0.343070	0.190087	0.376156	0.504122	5589.940687	22089.947475	3613.381984	8996.015283
114.535500	0.341755	0.190579	0.381510	0.506106	5568.061291	22023.516590	3620.734243	8967.253809
115.035000	0.344257	0.191135	0.383566	0.502704	5607.336366	22200.241169	3632.765067	9016.660611
115.536000	0.345080	0.189863	0.377625	0.502562	5613.805414	22149.619321	3619.987648	9018.727630
116.036500	0.344798	0.191401	0.379349	0.508287	5573.764360	21963.229176	3611.271593	8935.787697
116.536500	0.341514	0.190427	0.385401	0.508396	5551.382331	21915.302275	3624.246833	8934.215445
117.037000	0.344681	0.191614	0.378529	0.506133	5587.281920	22068.380499	3614.171028	8966.870011
117.537500	0.345901	0.193277	0.381908	0.507681	5585.098511	22073.499542	3618.159597	8944.509094
118.037000	0.342429	0.190762	0.383129	0.509912	5547.436325	21863.162509	3615.955804	8912.436469
118.535000	0.344823	0.190729	0.379119	0.510785	5557.438029	21823.293130	3605.375859	8899.939982
119.035500	0.346969	0.191905	0.383100	0.508676	5585.584394	21968.343696	3618.591835	8930.194506
119.535500	0.347702	0.192728	0.383924	0.509669	5583.856382	21960.772030	3618.222479	8915.930182
120.036000	0.346706	0.191017	0.379024	0.511031	5568.228686	21825.111088	3604.638439	8896.408547
120.536000	0.344725	0.191456	0.382819	0.515848	5523.658063	21633.510291	3602.443064	8827.902173
121.036500	0.350609	0.193940	0.385183	0.512502	5584.351998	21889.092883	3614.790501	8875.416570
121.536500	0.347853	0.191474	0.388920	0.510539	5579.079524	21866.877672	3627.275355	8903.448558
122.037000	0.348201	0.192207	0.387041	0.513111	5564.367366	21786.037473	3617.512858	8866.741167
122.537000	0.344318	0.191424	0.386839	0.516911	5514.108299	21585.882697	3608.815429	8812.880509
123.034500	0.349153	0.193367	0.386884	0.513517	5567.976110	21819.176102	3616.283382	8860.965536
123.535000	0.349540	0.193238	0.386121	0.513907	5567.954618	21796.322197	3613.772909	8855.421195
124.035500	0.348924	0.194684	0.386047	0.516684	5545.619527	21737.950849	3607.594680	8816.081449
124.535500	0.346179	0.191279	0.380596	0.518898	5513.295381	21493.497780	3591.183244	8784.912082
125.036000	0.351585	0.194151	0.391340	0.516589	5563.743041	21718.757065	3619.305294	8817.424159
125.536000	0.348250	0.193968	0.384073	0.516524	5542.254564	21713.622531	3603.683729	8818.343211
126.036500	0.346888	0.194132	0.388097	0.516502	5533.495978	21721.753076	3612.428255	8818.659569
126.537000	0.345770	0.192235	0.379797	0.520434	5500.715742	21468.449871	3586.241705	8763.371347
127.037000	0.350171	0.194949	0.390182	0.518294	5543.247180	21679.170989	3613.065904	8793.405709
127.534500	0.348867	0.194982	0.390068	0.517898	5537.295438	21697.881921	3613.676959	8798.966775
128.037500	0.351534	0.195335	0.391523	0.519602	5543.605144	21638.963596	3613.135706	8775.031498
