sample name	sample
index	258
start time	 02-25-2021  10:50:24 AM


Wavelength (nm)	Absorbance
494.344910	0.164514
494.563924	0.164514
494.782919	0.164514
495.001897	0.126240
495.220856	0.074104
495.439797	0.040268
495.658719	0.023839
495.877624	0.015222
496.096510	0.005693
496.315378	0.004970
496.534227	-0.026394
496.753059	-0.024144
496.971872	-0.025456
497.190667	0.046917
497.409444	0.065070
497.628203	0.071936
497.846943	0.073438
498.065665	0.075357
498.284369	0.075149
498.503055	0.077409
498.721723	0.078605
498.940372	0.078604
499.159003	0.077849
499.377616	0.078006
499.596210	0.077675
499.814787	0.078662
500.033345	0.078880
500.251885	0.079190
500.470406	0.078822
500.688910	0.078126
500.907395	0.078498
501.125862	0.079997
501.344311	0.081377
501.562742	0.082292
501.781154	0.082081
501.999548	0.082301
502.217924	0.083402
502.436282	0.083127
502.654621	0.084099
502.872942	0.083708
503.091245	0.083178
503.309530	0.082518
503.527797	0.082036
503.746045	0.081834
503.964275	0.080108
504.182487	0.079038
504.400681	0.079703
504.618856	0.079253
504.837013	0.080014
505.055152	0.079856
505.273273	0.080069
505.491376	0.079835
505.709460	0.080318
505.927526	0.081248
506.145574	0.081956
506.363604	0.082474
506.581615	0.082973
506.799608	0.082807
507.017583	0.083913
507.235540	0.083642
507.453478	0.083951
507.671399	0.083548
507.889301	0.083917
508.107185	0.084516
508.325050	0.084547
508.542898	0.083963
508.760727	0.084832
508.978538	0.084209
509.196330	0.084908
509.414105	0.085501
509.631861	0.085466
509.849599	0.085894
510.067319	0.085727
510.285021	0.084839
510.502704	0.085794
510.720369	0.084695
510.938016	0.085060
511.155645	0.084507
511.373255	0.084187
511.590848	0.084104
511.808422	0.083739
512.025977	0.083119
512.243515	0.083895
512.461034	0.082995
512.678536	0.084059
512.896018	0.083944
513.113483	0.084361
513.330930	0.083973
513.548358	0.083626
513.765768	0.084174
513.983160	0.085400
514.200533	0.085216
514.417889	0.085747
514.635226	0.085720
514.852545	0.085592
515.069845	0.085484
515.287128	0.085693
515.504392	0.086824
515.721638	0.086740
515.938866	0.085202
516.156075	0.085252
516.373267	0.085330
516.590440	0.084516
516.807594	0.084761
517.024731	0.084773
517.241850	0.084703
517.458950	0.084095
517.676032	0.084381
517.893095	0.085228
518.110141	0.086055
518.327168	0.086046
518.544177	0.086447
518.761168	0.086744
518.978141	0.087490
519.195095	0.087692
519.412031	0.087825
519.628949	0.087742
519.845849	0.087979
520.062731	0.087392
520.279594	0.087639
520.496439	0.088436
520.713266	0.088398
520.930074	0.087691
521.146865	0.087870
521.363637	0.088628
521.580391	0.088723
521.797127	0.088587
522.013844	0.088558
522.230543	0.087931
522.447224	0.087713
522.663887	0.088215
522.880532	0.088395
523.097158	0.088788
523.313766	0.088610
523.530356	0.088783
523.746928	0.088923
523.963481	0.089656
524.180017	0.090479
524.396534	0.090799
524.613032	0.090729
524.829513	0.091341
525.045975	0.091447
525.262420	0.091788
525.478845	0.091505
525.695253	0.091831
525.911643	0.091926
526.128014	0.092094
526.344367	0.091475
526.560702	0.091733
526.777018	0.092003
526.993316	0.092246
527.209597	0.091836
527.425858	0.092708
527.642102	0.093246
527.858328	0.093323
528.074535	0.093622
528.290724	0.094875
528.506894	0.094737
528.723047	0.094900
528.939181	0.094820
529.155297	0.095120
529.371395	0.094538
529.587475	0.093750
529.803536	0.093220
530.019579	0.093285
530.235604	0.093097
530.451611	0.093598
530.667600	0.093473
530.883570	0.093729
531.099522	0.094274
531.315456	0.095029
531.531372	0.096017
531.747269	0.096904
531.963148	0.097413
532.179009	0.097983
532.394852	0.097791
532.610676	0.098278
532.826482	0.098785
533.042271	0.099223
533.258040	0.099609
533.473792	0.099762
533.689525	0.099487
533.905240	0.099055
534.120937	0.098295
534.336616	0.098348
534.552277	0.098302
534.767919	0.097920
534.983543	0.097837
535.199149	0.097863
535.414736	0.098030
535.630306	0.098669
535.845857	0.099120
536.061390	0.099156
536.276904	0.099602
536.492401	0.099516
536.707879	0.099927
536.923339	0.100099
537.138781	0.100081
537.354204	0.099850
537.569610	0.099685
537.784997	0.099686
538.000366	0.100426
538.215716	0.100142
538.431049	0.100242
538.646363	0.099992
538.861659	0.099632
539.076937	0.099321
539.292196	0.099636
539.507438	0.099869
539.722661	0.100239
539.937866	0.099890
540.153052	0.100250
540.368221	0.100440
540.583371	0.101021
540.798503	0.101626
541.013617	0.101792
541.228712	0.101825
541.443789	0.101664
541.658848	0.101244
541.873889	0.101731
542.088912	0.101757
542.303916	0.101888
542.518902	0.101951
542.733870	0.101775
542.948820	0.102010
543.163752	0.102070
543.378665	0.102707
543.593560	0.103139
543.808437	0.103783
544.023295	0.104079
544.238136	0.104247
544.452958	0.103896
544.667762	0.104311
544.882548	0.104734
545.097315	0.104750
545.312064	0.104366
545.526795	0.104203
545.741508	0.103815
545.956203	0.103726
546.170879	0.104012
546.385537	0.104549
546.600177	0.104373
546.814799	0.104437
547.029402	0.104945
547.243988	0.105885
547.458555	0.106443
547.673103	0.106774
547.887634	0.107055
548.102146	0.107146
548.316640	0.107296
548.531116	0.107583
548.745574	0.107595
548.960013	0.107429
549.174435	0.106931
549.388838	0.106838
549.603222	0.106444
549.817589	0.106600
550.031937	0.106710
550.246267	0.106963
550.460579	0.107098
550.674873	0.107320
550.889148	0.107524
551.103405	0.107621
551.317644	0.107927
551.531865	0.108273
551.746068	0.108308
551.960252	0.108142
552.174418	0.108201
552.388566	0.108151
552.602696	0.108412
552.816807	0.108562
553.030900	0.109018
553.244975	0.108749
553.459032	0.109035
553.673070	0.109398
553.887091	0.109672
554.101093	0.109694
554.315077	0.110088
554.529042	0.109931
554.742990	0.109818
554.956919	0.109749
555.170830	0.110031
555.384722	0.109946
555.598597	0.109695
555.812453	0.109641
556.026291	0.109840
556.240111	0.109593
556.453913	0.110010
556.667696	0.110279
556.881461	0.110054
557.095208	0.110294
557.308937	0.110544
557.522647	0.110543
557.736339	0.110797
557.950013	0.110681
558.163669	0.111039
558.377307	0.110645
558.590926	0.110848
558.804527	0.111141
559.018110	0.110723
559.231675	0.110634
559.445221	0.110804
559.658749	0.110735
559.872259	0.110899
560.085751	0.110690
560.299225	0.111235
560.512680	0.110859
560.726117	0.111428
560.939536	0.112127
561.152937	0.112319
561.366319	0.112519
561.579683	0.112585
561.793029	0.112740
562.006357	0.112889
562.219667	0.112905
562.432958	0.113210
562.646231	0.112853
562.859486	0.112724
563.072723	0.112867
563.285941	0.112718
563.499141	0.112858
563.712323	0.113027
563.925487	0.112982
564.138632	0.113023
564.351760	0.113524
564.564869	0.113376
564.777960	0.113587
564.991032	0.113400
565.204087	0.113907
565.417123	0.114421
565.630141	0.114380
565.843140	0.114606
566.056122	0.114590
566.269085	0.114411
566.482030	0.114394
566.694957	0.114481
566.907866	0.114809
567.120756	0.114815
567.333628	0.114637
567.546482	0.114645
567.759318	0.114731
567.972135	0.114699
568.184935	0.114833
568.397716	0.115094
568.610478	0.114965
568.823223	0.114796
569.035949	0.114656
569.248657	0.114522
569.461347	0.114798
569.674019	0.114974
569.886672	0.115280
570.099308	0.115048
570.311925	0.115206
570.524523	0.115189
570.737104	0.115236
570.949666	0.115180
571.162210	0.115306
571.374736	0.115157
571.587244	0.115297
571.799733	0.115343
572.012205	0.115564
572.224658	0.115593
572.437092	0.115870
572.649509	0.115963
572.861907	0.115831
573.074287	0.115958
573.286649	0.116066
573.498993	0.116018
573.711318	0.115843
573.923625	0.115817
574.135914	0.115819
574.348185	0.115574
574.560438	0.115751
574.772672	0.116078
574.984888	0.116226
575.197086	0.116374
575.409266	0.116755
575.621427	0.116685
575.833570	0.116822
576.045695	0.117023
576.257802	0.117135
576.469890	0.117198
576.681961	0.117373
576.894013	0.117272
577.106046	0.117178
577.318062	0.116872
577.530059	0.117322
577.742039	0.117574
577.954000	0.117799
578.165942	0.118230
578.377867	0.118119
578.589773	0.118238
578.801661	0.118506
579.013531	0.118603
579.225382	0.118910
579.437216	0.118781
579.649031	0.118697
579.860828	0.118831
580.072606	0.118866
580.284367	0.119244
580.496109	0.119473
580.707833	0.119545
580.919539	0.119725
581.131227	0.119584
581.342896	0.120037
581.554547	0.120254
581.766180	0.120255
581.977795	0.120521
582.189391	0.120538
582.400969	0.120523
582.612529	0.120679
582.824071	0.120743
583.035595	0.120835
583.247100	0.120888
583.458587	0.121071
583.670056	0.121287
583.881506	0.121429
584.092939	0.121535
584.304353	0.121726
584.515749	0.121823
584.727127	0.121748
584.938486	0.122123
585.149828	0.121929
585.361151	0.121757
585.572456	0.121585
585.783742	0.121323
585.995011	0.121391
586.206261	0.121668
586.417493	0.121911
586.628706	0.121972
586.839902	0.121859
587.051079	0.121969
587.262238	0.122337
587.473379	0.122504
587.684502	0.122614
587.895606	0.122730
588.106692	0.122525
588.317760	0.122425
588.528810	0.122561
588.739841	0.122419
588.950855	0.122668
589.161850	0.122803
589.372827	0.122565
589.583785	0.122688
589.794726	0.122848
590.005648	0.122897
590.216552	0.122935
590.427437	0.122999
590.638305	0.123488
590.849154	0.123518
591.059985	0.123232
591.270798	0.123622
591.481592	0.123636
591.692369	0.123714
591.903127	0.123678
592.113867	0.123471
592.324588	0.123416
592.535292	0.123227
592.745977	0.123210
592.956644	0.123438
593.167293	0.123203
593.377923	0.123217
593.588536	0.123292
593.799130	0.123362
594.009706	0.123595
594.220263	0.123661
594.430803	0.123934
594.641324	0.123975
594.851827	0.123910
595.062312	0.124264
595.272778	0.124268
595.483227	0.124300
595.693657	0.124254
595.904069	0.124020
596.114462	0.124465
596.324838	0.124436
596.535195	0.124587
596.745534	0.124843
596.955855	0.124881
597.166157	0.124917
597.376441	0.124928
597.586707	0.125394
597.796955	0.125703
598.007185	0.125760
598.217396	0.125615
598.427589	0.125702
598.637764	0.125567
598.847921	0.125595
599.058060	0.125815
599.268180	0.126106
599.478282	0.126023
599.688366	0.125848
599.898431	0.125776
600.108479	0.126129
600.318508	0.125816
600.528519	0.125899
600.738511	0.125916
600.948486	0.125994
601.158442	0.125842
601.368380	0.126019
601.578300	0.126474
601.788202	0.126610
601.998085	0.126518
602.207950	0.126681
602.417797	0.126904
602.627626	0.126966
602.837436	0.127046
603.047228	0.127282
603.257002	0.127113
603.466758	0.127136
603.676496	0.127268
603.886215	0.127374
604.095916	0.127529
604.305599	0.127490
604.515264	0.127419
604.724910	0.127577
604.934538	0.127408
605.144148	0.127597
605.353740	0.127809
605.563314	0.127667
605.772869	0.127509
605.982406	0.127547
606.191925	0.127509
606.401425	0.127587
606.610908	0.127550
606.820372	0.127644
607.029818	0.127495
607.239246	0.127126
607.448655	0.127278
607.658047	0.127826
607.867420	0.128121
608.076775	0.128492
608.286111	0.128596
608.495430	0.128632
608.704730	0.128597
608.914012	0.128732
609.123275	0.128849
609.332521	0.128721
609.541748	0.128495
609.750957	0.128370
609.960148	0.127833
610.169321	0.127979
610.378475	0.128198
610.587611	0.128386
610.796729	0.128554
611.005829	0.128543
611.214910	0.128709
611.423974	0.128750
611.633019	0.128774
611.842045	0.129209
612.051054	0.129130
612.260044	0.129212
612.469017	0.129296
612.677970	0.129338
612.886906	0.129595
613.095824	0.129569
613.304723	0.129657
613.513604	0.129531
613.722467	0.129505
613.931311	0.129723
614.140138	0.129570
614.348946	0.129503
614.557736	0.129505
614.766507	0.129668
614.975261	0.129900
615.183996	0.130045
615.392713	0.130527
615.601412	0.130608
615.810092	0.130611
616.018754	0.130724
616.227399	0.130896
616.436024	0.130971
616.644632	0.131012
616.853222	0.130881
617.061793	0.131028
617.270346	0.131053
617.478880	0.131273
617.687397	0.131365
617.895895	0.131283
618.104375	0.131417
618.312837	0.131619
618.521281	0.131759
618.729706	0.132218
618.938113	0.132279
619.146502	0.132352
619.354873	0.132352
619.563226	0.132344
619.771560	0.132496
619.979876	0.132599
620.188174	0.132772
620.396453	0.132628
620.604715	0.132522
620.812958	0.132354
621.021183	0.132314
621.229390	0.132273
621.437578	0.132586
621.645748	0.132931
621.853900	0.132857
622.062034	0.132871
622.270150	0.133118
622.478247	0.133319
622.686326	0.133326
622.894387	0.133513
623.102430	0.133709
623.310454	0.133649
623.518461	0.133543
623.726449	0.133837
623.934418	0.133753
624.142370	0.133769
624.350303	0.133761
624.558218	0.134026
624.766115	0.133892
624.973994	0.134052
625.181855	0.134286
625.389697	0.134202
625.597521	0.134267
625.805327	0.134245
626.013114	0.134363
626.220883	0.134459
626.428634	0.134496
626.636367	0.134918
626.844082	0.135018
627.051778	0.135219
627.259457	0.135365
627.467117	0.135431
627.674758	0.135738
627.882382	0.135779
628.089987	0.135961
628.297574	0.136040
628.505143	0.135772
628.712694	0.135695
628.920226	0.135642
629.127740	0.135731
629.335236	0.135514
629.542714	0.135237
629.750174	0.135231
629.957615	0.135172
630.165038	0.135236
630.372443	0.135417
630.579829	0.135435
630.787198	0.135226
630.994548	0.135448
631.201880	0.135772
631.409194	0.135890
631.616489	0.135969
631.823766	0.135639
632.031025	0.135742
632.238266	0.136047
632.445489	0.136245
632.652693	0.136245
632.859879	0.136402
633.067047	0.136668
633.274197	0.136870
633.481329	0.136961
633.688442	0.137679
633.895537	0.137695
634.102614	0.137770
634.309672	0.137767
634.516713	0.138240
634.723735	0.138257
634.930739	0.137913
635.137724	0.138007
635.344692	0.137981
635.551641	0.137658
635.758572	0.137701
635.965485	0.137563
636.172379	0.137688
636.379256	0.137284
636.586114	0.137088
636.792954	0.137239
636.999775	0.137154
637.206579	0.137354
637.413364	0.137397
637.620131	0.137569
637.826880	0.137419
638.033610	0.137523
638.240323	0.137903
638.447017	0.138251
638.653692	0.138281
638.860350	0.138594
639.066990	0.138502
639.273611	0.138673
639.480214	0.138310
639.686798	0.138687
639.893365	0.138684
640.099913	0.138742
640.306443	0.138526
640.512955	0.138534
640.719449	0.138516
640.925924	0.138569
641.132381	0.138659
641.338820	0.139056
641.545241	0.139157
641.751644	0.139221
641.958028	0.139267
642.164394	0.139325
642.370742	0.139436
642.577071	0.139555
642.783383	0.139681
642.989676	0.139823
643.195951	0.139958
643.402207	0.140018
643.608446	0.140077
643.814666	0.140368
644.020868	0.140704
644.227052	0.140762
644.433218	0.140768
644.639365	0.140864
644.845494	0.140925
645.051605	0.140920
645.257698	0.140950
645.463772	0.141123
645.669828	0.140846
645.875866	0.141032
646.081886	0.141237
646.287888	0.141349
646.493871	0.141422
646.699836	0.141337
646.905783	0.141479
647.111712	0.141416
647.317622	0.141324
647.523514	0.141632
647.729388	0.141305
647.935244	0.141448
648.141082	0.141398
648.346901	0.141601
648.552702	0.141669
648.758485	0.141860
648.964250	0.141835
649.169996	0.142146
649.375724	0.142095
649.581434	0.142425
649.787126	0.142432
649.992800	0.142807
650.198455	0.143096
650.404092	0.143352
650.609711	0.143501
650.815311	0.143879
651.020894	0.144142
651.226458	0.144254
651.432004	0.144139
651.637532	0.143961
651.843041	0.144009
652.048532	0.143917
652.254006	0.143779
652.459460	0.144063
652.664897	0.144204
652.870315	0.144184
653.075716	0.144560
653.281097	0.144947
653.486461	0.145457
653.691807	0.145689
653.897134	0.145919
654.102443	0.146084
654.307734	0.146037
654.513006	0.146061
654.718261	0.145916
654.923497	0.145852
655.128715	0.145944
655.333915	0.145700
655.539096	0.145589
655.744259	0.145616
655.949404	0.145795
656.154531	0.145584
656.359640	0.145654
656.564730	0.145751
656.769802	0.145894
656.974856	0.145738
657.179892	0.145932
657.384909	0.146004
657.589908	0.146170
657.794889	0.146381
657.999852	0.146610
658.204797	0.146746
658.409723	0.146889
658.614631	0.146831
658.819521	0.147022
659.024393	0.146986
659.229246	0.147129
659.434081	0.146949
659.638898	0.146904
659.843697	0.147001
660.048478	0.147098
660.253240	0.147301
660.457984	0.147454
660.662710	0.147485
660.867417	0.147801
661.072107	0.147853
661.276778	0.147937
661.481431	0.148101
661.686066	0.148296
661.890682	0.148078
662.095281	0.148131
662.299861	0.148248
662.504422	0.148569
662.708966	0.148695
662.913491	0.148912
663.117999	0.149132
663.322488	0.149104
663.526958	0.148960
663.731411	0.149201
663.935845	0.149354
664.140261	0.149523
664.344659	0.149310
664.549038	0.149319
664.753400	0.149243
664.957743	0.149386
665.162068	0.149588
665.366375	0.149803
665.570663	0.149945
665.774933	0.149836
665.979185	0.149765
666.183419	0.149846
666.387635	0.149842
666.591832	0.149839
666.796011	0.149773
667.000172	0.149884
667.204315	0.149916
667.408439	0.149974
667.612545	0.150063
667.816634	0.150083
668.020703	0.150026
668.224755	0.150222
668.428788	0.150318
668.632803	0.150389
668.836800	0.150271
669.040779	0.150393
669.244739	0.150294
669.448681	0.150498
669.652605	0.150545
669.856511	0.150900
670.060399	0.151080
670.264268	0.151167
670.468119	0.151447
670.671952	0.151700
670.875767	0.151753
671.079563	0.152088
671.283341	0.152109
671.487101	0.152461
671.690843	0.152773
671.894567	0.152767
672.098272	0.152873
672.301959	0.153041
672.505628	0.153161
672.709278	0.153473
672.912911	0.153523
673.116525	0.153628
673.320121	0.153508
673.523699	0.153643
673.727258	0.153908
673.930799	0.154165
674.134322	0.154195
674.337827	0.154320
674.541314	0.154400
674.744782	0.154611
674.948232	0.154799
675.151664	0.155059
675.355078	0.154976
675.558474	0.154991
675.761851	0.155010
675.965210	0.155030
676.168551	0.155154
676.371873	0.155160
676.575178	0.155212
676.778464	0.155434
676.981732	0.155565
677.184981	0.155713
677.388213	0.155943
677.591426	0.156187
677.794621	0.156298
677.997798	0.156406
678.200956	0.156666
678.404097	0.156854
678.607219	0.156920
678.810323	0.157076
679.013408	0.157100
679.216476	0.157172
679.419525	0.157367
679.622556	0.157426
679.825569	0.157620
680.028563	0.157561
680.231540	0.157607
680.434498	0.157521
680.637438	0.157699
680.840359	0.157993
681.043263	0.158064
681.246148	0.157962
681.449015	0.158174
681.651864	0.158261
681.854694	0.158399
682.057506	0.158430
682.260301	0.158749
682.463076	0.158591
682.665834	0.158695
682.868573	0.158758
683.071295	0.158968
683.273998	0.159219
683.476682	0.159028
683.679349	0.159094
683.881997	0.159306
684.084627	0.159141
684.287239	0.159116
684.489833	0.158931
684.692408	0.158750
684.894965	0.158535
685.097504	0.158466
685.300025	0.158703
685.502527	0.158761
685.705012	0.158529
685.907478	0.158764
686.109925	0.158989
686.312355	0.159113
686.514766	0.159377
686.717159	0.159681
686.919534	0.159624
687.121891	0.159723
687.324230	0.159926
687.526550	0.160167
687.728852	0.160118
687.931136	0.160235
688.133401	0.160374
688.335649	0.160571
688.537878	0.160606
688.740089	0.160600
688.942281	0.160682
689.144456	0.160614
689.346612	0.160753
689.548750	0.160783
689.750870	0.161017
689.952971	0.161047
690.155055	0.161174
690.357120	0.161232
690.559167	0.161514
690.761195	0.161570
690.963206	0.161489
691.165198	0.161399
691.367172	0.161739
691.569128	0.161320
691.771065	0.161421
691.972984	0.161205
692.174885	0.161280
692.376768	0.161356
692.578633	0.161347
692.780479	0.161747
692.982308	0.162031
693.184118	0.161882
693.385909	0.162201
693.587683	0.162188
693.789438	0.162356
693.991175	0.162303
694.192894	0.162296
694.394595	0.162405
694.596277	0.162177
694.797941	0.162241
694.999587	0.162435
695.201215	0.162453
695.402824	0.162478
695.604416	0.162449
695.805989	0.162506
696.007543	0.162430
696.209080	0.162609
696.410598	0.162918
696.612099	0.162781
696.813580	0.162618
697.015044	0.162706
697.216490	0.162973
697.417917	0.163196
697.619326	0.163454
697.820717	0.163734
698.022089	0.163614
698.223444	0.163543
698.424780	0.163897
698.626098	0.164310
698.827397	0.164348
699.028679	0.164311
699.229942	0.164426
699.431187	0.164241
699.632414	0.164225
699.833622	0.164401
700.034813	0.164492
700.235985	0.164482
700.437139	0.164342
700.638274	0.164508
700.839392	0.164664
701.040491	0.164826
701.241572	0.165104
701.442635	0.165315
701.643679	0.165479
701.844706	0.165708
702.045714	0.165741
702.246704	0.165938
702.447675	0.166189
702.648629	0.166156
702.849564	0.166008
703.050481	0.166046
703.251380	0.165831
703.452260	0.165591
703.653122	0.165300
703.853966	0.165258
704.054792	0.165112
704.255600	0.164662
704.456389	0.164696
704.657160	0.164588
704.857913	0.164610
705.058648	0.164731
705.259365	0.164688
705.460063	0.164518
705.660743	0.164328
705.861405	0.164282
706.062048	0.164540
706.262674	0.164472
706.463281	0.164589
706.663870	0.164392
706.864441	0.164263
707.064993	0.164446
707.265527	0.164697
707.466043	0.165015
707.666541	0.165260
707.867021	0.165284
708.067482	0.165282
708.267925	0.165331
708.468350	0.165612
708.668757	0.165809
708.869145	0.165881
709.069516	0.166067
709.269868	0.165955
709.470201	0.166045
709.670517	0.166220
709.870814	0.166563
710.071093	0.166615
710.271354	0.166649
710.471597	0.166756
710.671821	0.166793
710.872028	0.166767
711.072216	0.166876
711.272385	0.166820
711.472537	0.166748
711.672670	0.166468
711.872785	0.166340
712.072882	0.166473
712.272961	0.166210
712.473021	0.166215
712.673063	0.166119
712.873087	0.166048
713.073093	0.165903
713.273081	0.165714
713.473050	0.165748
713.673001	0.165830
713.872934	0.165647
714.072849	0.165797
714.272745	0.165761
714.472623	0.165686
714.672483	0.165542
714.872325	0.165712
715.072148	0.165898
715.271954	0.165955
715.471741	0.166091
715.671509	0.166062
715.871260	0.166033
716.070992	0.166146
716.270707	0.166255
716.470403	0.166616
716.670080	0.166538
716.869740	0.166523
717.069381	0.166394
717.269004	0.166223
717.468609	0.166184
717.668195	0.166383
717.867764	0.166321
718.067314	0.166283
718.266846	0.166271
718.466360	0.166187
718.665855	0.166070
718.865332	0.165914
719.064791	0.165880
719.264232	0.165982
719.463655	0.165832
719.663059	0.165743
719.862445	0.165697
720.061813	0.165413
720.261163	0.165294
720.460494	0.165446
720.659807	0.165376
720.859102	0.165257
721.058379	0.165346
721.257638	0.165304
721.456878	0.165163
721.656100	0.165240
721.855304	0.165512
722.054490	0.165500
722.253657	0.165296
722.452806	0.165413
722.651937	0.165551
722.851050	0.165223
723.050145	0.164963
723.249221	0.164869
723.448279	0.164715
723.647319	0.164412
723.846340	0.164631
724.045344	0.164612
724.244329	0.164724
724.443296	0.164656
724.642245	0.164532
724.841175	0.164596
725.040088	0.164599
725.238982	0.164665
725.437857	0.164641
725.636715	0.164623
725.835554	0.164768
726.034376	0.164667
726.233179	0.164822
726.431963	0.164990
726.630730	0.164932
726.829478	0.165056
727.028208	0.164958
727.226920	0.164989
727.425614	0.164675
727.624289	0.164580
727.822946	0.164656
728.021585	0.164568
728.220206	0.164548
728.418808	0.164736
728.617392	0.164569
728.815958	0.164471
729.014506	0.164451
729.213036	0.164326
729.411547	0.164204
729.610040	0.164146
729.808515	0.163964
730.006972	0.163757
730.205410	0.163364
730.403831	0.163379
730.602233	0.163345
730.800616	0.163197
730.998982	0.163267
731.197329	0.163090
731.395658	0.162861
731.593969	0.162911
731.792262	0.162993
731.990536	0.163062
732.188793	0.162935
732.387031	0.162756
732.585250	0.162745
732.783452	0.162710
732.981635	0.162687
733.179800	0.162705
733.377947	0.162399
733.576076	0.162241
733.774186	0.162371
733.972278	0.162361
734.170352	0.162543
734.368408	0.162444
734.566446	0.162356
734.764465	0.162353
734.962466	0.162480
735.160449	0.162568
735.358413	0.162734
735.556360	0.162674
735.754288	0.162826
735.952198	0.162678
736.150090	0.162514
736.347963	0.162531
736.545818	0.162577
736.743655	0.162396
736.941474	0.162149
737.139275	0.161958
737.337057	0.161551
737.534821	0.161365
737.732567	0.161285
737.930295	0.161211
738.128005	0.161162
738.325696	0.160987
738.523369	0.160927
738.721024	0.161052
738.918660	0.161118
739.116279	0.161373
739.313879	0.161328
739.511461	0.161283
739.709024	0.161386
739.906570	0.161243
740.104097	0.161015
740.301606	0.160748
740.499097	0.160528
740.696569	0.160324
740.894024	0.160005
741.091460	0.159822
741.288878	0.159730
741.486277	0.159663
741.683659	0.159642
741.881022	0.159716
742.078367	0.159816
742.275694	0.159897
742.473002	0.159676
742.670293	0.159754
742.867565	0.159873
743.064819	0.159722
743.262054	0.159713
743.459272	0.159873
743.656471	0.159842
743.853652	0.159903
744.050815	0.159754
744.247959	0.159723
744.445085	0.159631
744.642194	0.159428
744.839283	0.159628
745.036355	0.159388
745.233408	0.159101
745.430444	0.159117
745.627461	0.158966
745.824459	0.158913
746.021440	0.159061
746.218402	0.159033
746.415346	0.158881
746.612272	0.158661
746.809180	0.158566
747.006069	0.158203
747.202940	0.158200
747.399793	0.157995
747.596628	0.158062
747.793444	0.157807
747.990243	0.157770
748.187023	0.157714
748.383784	0.157655
748.580528	0.157651
748.777253	0.157827
748.973960	0.157424
749.170649	0.157493
749.367320	0.157471
749.563973	0.157435
749.760607	0.157400
749.957223	0.157467
750.153821	0.157355
750.350400	0.157330
750.546962	0.157359
750.743505	0.157377
750.940030	0.157296
751.136536	0.157292
751.333025	0.157315
751.529495	0.157206
751.725947	0.157249
751.922381	0.157119
752.118796	0.157066
752.315194	0.156944
752.511573	0.157118
752.707934	0.156964
752.904276	0.156609
753.100601	0.156547
753.296907	0.156560
753.493195	0.156388
753.689465	0.156664
753.885716	0.156583
754.081949	0.156342
754.278164	0.156302
754.474361	0.156334
754.670540	0.156588
754.866700	0.156422
755.062843	0.156083
755.258967	0.156127
755.455072	0.155736
755.651160	0.155698
755.847229	0.155891
756.043280	0.155776
756.239313	0.155723
756.435328	0.155319
756.631324	0.155466
756.827302	0.155566
757.023262	0.155221
757.219204	0.155043
757.415127	0.154815
757.611033	0.154695
757.806920	0.154353
758.002788	0.154063
758.198639	0.154292
758.394471	0.154150
758.590286	0.154139
758.786081	0.154091
758.981859	0.154254
759.177619	0.154086
759.373360	0.153979
759.569083	0.154032
759.764788	0.154024
759.960474	0.153765
760.156143	0.153725
760.351793	0.153706
760.547425	0.153684
760.743038	0.153512
760.938634	0.153574
761.134211	0.153274
761.329770	0.153199
761.525311	0.153186
761.720833	0.153107
761.916338	0.152824
762.111824	0.152525
762.307292	0.152468
762.502741	0.152566
762.698173	0.152602
762.893586	0.152833
763.088981	0.152830
763.284358	0.152948
763.479716	0.152916
763.675057	0.152849
763.870379	0.152869
764.065683	0.153151
764.260968	0.152977
764.456236	0.152918
764.651485	0.152791
764.846716	0.152685
765.041929	0.152398
765.237123	0.152393
765.432299	0.152586
765.627457	0.152757
765.822597	0.152594
766.017719	0.152615
766.212822	0.152626
766.407907	0.152697
766.602974	0.152803
766.798023	0.152914
766.993054	0.152977
767.188066	0.152719
767.383060	0.152465
767.578036	0.152145
767.772993	0.152121
767.967933	0.151924
768.162854	0.151810
768.357757	0.151911
768.552642	0.152013
768.747508	0.151738
768.942356	0.151835
769.137186	0.151906
769.331998	0.151865
769.526792	0.151929
769.721567	0.151961
769.916324	0.151908
770.111063	0.151634
770.305784	0.151427
770.500486	0.151508
770.695171	0.151308
770.889837	0.151191
771.084484	0.151449
771.279114	0.151308
771.473725	0.151343
771.668318	0.151425
771.862893	0.151706
772.057450	0.151703
772.251988	0.151717
772.446509	0.151932
772.641011	0.151948
772.835494	0.151783
773.029960	0.151695
773.224407	0.151564
773.418836	0.151417
773.613247	0.151105
773.807640	0.151163
774.002014	0.151090
774.196370	0.151012
774.390708	0.151084
774.585028	0.150954
774.779330	0.151002
774.973613	0.150977
775.167878	0.151005
775.362125	0.150939
775.556354	0.150770
775.750564	0.150614
775.944756	0.150579
776.138930	0.150499
776.333086	0.150559
776.527223	0.150609
776.721343	0.150690
776.915444	0.150595
777.109526	0.150682
777.303591	0.150893
777.497637	0.151285
777.691666	0.151244
777.885676	0.151450
778.079667	0.151461
778.273641	0.151402
778.467596	0.151340
778.661533	0.151333
778.855452	0.151369
779.049352	0.151404
779.243235	0.151044
779.437099	0.151115
779.630945	0.150844
779.824773	0.150881
780.018582	0.150844
780.212373	0.150905
780.406146	0.150992
780.599901	0.150868
780.793638	0.150534
780.987356	0.150733
781.181056	0.150729
781.374738	0.150856
781.568402	0.150971
781.762047	0.150874
781.955674	0.151009
782.149283	0.151050
782.342874	0.151157
782.536447	0.151278
782.730001	0.151098
782.923537	0.151030
783.117055	0.151045
783.310555	0.150784
783.504036	0.150813
783.697499	0.150573
783.890944	0.150522
784.084371	0.150443
784.277780	0.150452
784.471170	0.150523
784.664542	0.150412
784.857896	0.150216
785.051231	0.150316
785.244549	0.150230
785.437848	0.150360
785.631129	0.150259
785.824392	0.150337
786.017636	0.150149
786.210863	0.150157
786.404071	0.150177
786.597260	0.150456
786.790432	0.150300
786.983585	0.150427
787.176721	0.150213
787.369838	0.150115
787.562936	0.149931
787.756017	0.149984
787.949079	0.149741
788.142123	0.149794
788.335149	0.149528
788.528156	0.149560
788.721146	0.149458
788.914117	0.149413
789.107070	0.149431
789.300005	0.149426
789.492921	0.149292
789.685819	0.149305
789.878699	0.149257
790.071561	0.149215
790.264405	0.149127
790.457230	0.148892
790.650037	0.149061
790.842826	0.149218
791.035597	0.149356
791.228349	0.149373
791.421084	0.149551
791.613800	0.149789
791.806497	0.149924
791.999177	0.150052
792.191838	0.150461
792.384481	0.150622
792.577106	0.150701
792.769713	0.150907
792.962301	0.151274
793.154871	0.151483
793.347423	0.151414
793.539957	0.151534
793.732473	0.151631
793.924970	0.151878
794.117449	0.151866
794.309910	0.151872
794.502353	0.152132
794.694777	0.152163
794.887183	0.152122
795.079571	0.152250
795.271941	0.152502
795.464293	0.152733
795.656626	0.152703
795.848941	0.153006
796.041238	0.153164
796.233516	0.152846
796.425777	0.152994
796.618019	0.153294
796.810243	0.153516
797.002449	0.153350
797.194636	0.153460
797.386805	0.153478
797.578956	0.153394
797.771089	0.153359
797.963204	0.153562
798.155300	0.153597
798.347378	0.153468
798.539438	0.153227
798.731480	0.153418
798.923503	0.153393
799.115509	0.153514
799.307496	0.153509
799.499465	0.153841
799.691415	0.153910
799.883348	0.153907
800.075262	0.153945
800.267158	0.153975
800.459035	0.154060
800.650895	0.154180
800.842736	0.154247
801.034559	0.154196
801.226364	0.154161
801.418150	0.154328
801.609919	0.154358
801.801669	0.154601
801.993401	0.154668
802.185114	0.154644
802.376810	0.154750
802.568487	0.154647
802.760146	0.154910
802.951787	0.155002
803.143409	0.154947
803.335014	0.154946
803.526600	0.154810
803.718168	0.154771
803.909717	0.154580
804.101249	0.154445
804.292762	0.154579
804.484257	0.154385
804.675734	0.154277
804.867192	0.154283
805.058632	0.154431
805.250054	0.154725
805.441458	0.155091
805.632844	0.155396
805.824211	0.155707
806.015561	0.155845
806.206891	0.156080
806.398204	0.156309
806.589499	0.156474
806.780775	0.156706
806.972033	0.156668
807.163273	0.156920
807.354495	0.156959
807.545698	0.156759
807.736883	0.156693
807.928050	0.156787
808.119199	0.156985
808.310329	0.156878
808.501441	0.157038
808.692535	0.156911
808.883611	0.156903
809.074669	0.156949
809.265708	0.157243
809.456729	0.157424
809.647732	0.157508
809.838717	0.157373
810.029683	0.157783
810.220632	0.157401
810.411562	0.157779
810.602474	0.157854
810.793367	0.157962
810.984242	0.157996
811.175100	0.157980
811.365938	0.158174
811.556759	0.158311
811.747562	0.158095
811.938346	0.158402
812.129112	0.158691
812.319860	0.158737
812.510589	0.159101
812.701300	0.159140
812.891994	0.159452
813.082668	0.159609
813.273325	0.159654
813.463964	0.159931
813.654584	0.160069
813.845186	0.159863
814.035769	0.160055
814.226335	0.159972
814.416882	0.160310
814.607411	0.160185
814.797922	0.160089
814.988415	0.160249
815.178889	0.160165
815.369345	0.160168
815.559783	0.160287
815.750203	0.160511
815.940605	0.160794
816.130988	0.160558
816.321353	0.160948
816.511700	0.161266
816.702028	0.161382
816.892339	0.161655
817.082631	0.161860
817.272905	0.161801
817.463161	0.161891
817.653398	0.161580
817.843617	0.162294
818.033819	0.162208
818.224001	0.162474
818.414166	0.162664
818.604312	0.162812
818.794440	0.163208
818.984550	0.163562
819.174642	0.163545
819.364716	0.163801
819.554771	0.163475
819.744808	0.163762
819.934827	0.163662
820.124827	0.163663
820.314810	0.163560
820.504774	0.163675
820.694720	0.163900
820.884647	0.164007
821.074557	0.164343
821.264448	0.164393
821.454321	0.164457
821.644176	0.164438
821.834012	0.164543
822.023831	0.164787
822.213631	0.164555
822.403413	0.164463
822.593176	0.164637
822.782922	0.164898
822.972649	0.165158
823.162358	0.165299
823.352049	0.165403
823.541721	0.165658
823.731376	0.165739
823.921012	0.166135
824.110629	0.166433
824.300229	0.166467
824.489811	0.166310
824.679374	0.166548
824.868919	0.166493
825.058445	0.166785
825.247954	0.166912
825.437444	0.167278
825.626916	0.167369
825.816370	0.167213
826.005806	0.167326
826.195223	0.167549
826.384622	0.167584
826.574003	0.167907
826.763366	0.167994
826.952711	0.168210
827.142037	0.168347
827.331345	0.168485
827.520635	0.168797
827.709906	0.168914
827.899160	0.168989
828.088395	0.169100
828.277612	0.169398
828.466810	0.169646
828.655991	0.169580
828.845153	0.169618
829.034297	0.169677
829.223423	0.169743
829.412531	0.170080
829.601620	0.170207
829.790691	0.170539
829.979744	0.170509
830.168779	0.170604
830.357795	0.170784
830.546793	0.171034
830.735773	0.171162
830.924735	0.171321
831.113679	0.171481
831.302604	0.171588
831.491511	0.171600
831.680400	0.171925
831.869271	0.172055
832.058123	0.172221
832.246957	0.172320
832.435773	0.172627
832.624571	0.173071
832.813351	0.173125
833.002112	0.173682
833.190855	0.173631
833.379580	0.173538
833.568287	0.173786
833.756975	0.173874
833.945645	0.173773
834.134297	0.173930
834.322931	0.173548
834.511547	0.173526
834.700144	0.173496
834.888723	0.173886
835.077284	0.174323
835.265826	0.174305
835.454351	0.174477
835.642857	0.174908
835.831345	0.174932
836.019815	0.175497
836.208266	0.176106
836.396699	0.176171
836.585114	0.176173
836.773511	0.176222
836.961890	0.176594
837.150250	0.176920
837.338592	0.177153
837.526916	0.177415
837.715222	0.177619
837.903510	0.177661
838.091779	0.177922
838.280030	0.178210
838.468263	0.178414
838.656477	0.178561
838.844674	0.178564
839.032852	0.178523
839.221012	0.178763
839.409153	0.178897
839.597277	0.178782
839.785382	0.179037
839.973469	0.179146
840.161538	0.179269
840.349589	0.179443
840.537621	0.179639
840.725635	0.179980
840.913631	0.180294
841.101609	0.180485
841.289568	0.181174
841.477509	0.181157
841.665432	0.181626
841.853337	0.182040
842.041224	0.182274
842.229092	0.182680
842.416942	0.182896
842.604774	0.182667
842.792588	0.182775
842.980383	0.182577
843.168160	0.183156
843.355919	0.183227
843.543660	0.183513
843.731382	0.183786
843.919087	0.183959
844.106773	0.184278
844.294441	0.184579
844.482090	0.185060
844.669722	0.185410
844.857335	0.185364
845.044930	0.185854
845.232507	0.185893
845.420065	0.186179
845.607605	0.186175
845.795127	0.186440
845.982631	0.187026
846.170117	0.187388
846.357584	0.187352
846.545033	0.187778
846.732464	0.187689
846.919877	0.188048
847.107272	0.188225
847.294648	0.188774
847.482006	0.188795
847.669346	0.189045
847.856667	0.189020
848.043971	0.189252
848.231256	0.189036
848.418523	0.189164
848.605771	0.189150
848.793002	0.189036
848.980214	0.188821
849.167408	0.189110
849.354584	0.189146
849.541742	0.188996
849.728881	0.189349
849.916002	0.189841
850.103105	0.189977
850.290190	0.190151
850.477256	0.190258
850.664304	0.190656
850.851334	0.190677
851.038346	0.190709
851.225340	0.191202
851.412315	0.191465
851.599272	0.191711
851.786211	0.192024
851.973132	0.192281
852.160034	0.192670
852.346918	0.192807
852.533784	0.192702
852.720632	0.192721
852.907462	0.192663
853.094273	0.192650
853.281066	0.192537
853.467841	0.192706
853.654598	0.192684
853.841336	0.192769
854.028056	0.192973
854.214758	0.193446
854.401442	0.193533
854.588107	0.193737
854.774755	0.194014
854.961384	0.194245
855.147995	0.194348
855.334587	0.194504
855.521162	0.194903
855.707718	0.195161
855.894256	0.195398
856.080775	0.195712
856.267277	0.195805
856.453760	0.195773
856.640225	0.195964
856.826672	0.196217
857.013101	0.196715
857.199511	0.196395
857.385903	0.196624
857.572277	0.196621
857.758633	0.197012
857.944970	0.197424
858.131290	0.197780
858.317591	0.197577
858.503873	0.197636
858.690138	0.197298
858.876384	0.197583
859.062612	0.197588
859.248822	0.197880
859.435014	0.198009
859.621188	0.198099
859.807343	0.198170
859.993480	0.198955
860.179599	0.199249
860.365699	0.199689
860.551781	0.200072
860.737846	0.200565
860.923891	0.200463
861.109919	0.200587
861.295929	0.200719
861.481920	0.200883
861.667893	0.200961
861.853848	0.200961
862.039784	0.201376
862.225702	0.201520
862.411603	0.201350
862.597484	0.201761
862.783348	0.201867
862.969193	0.202113
863.155021	0.202304
863.340830	0.202245
863.526620	0.202619
863.712393	0.202526
863.898147	0.202815
864.083883	0.203201
864.269601	0.203385
864.455301	0.203443
864.640982	0.203337
864.826645	0.203227
865.012290	0.203354
865.197917	0.203379
865.383526	0.203405
865.569116	0.203222
865.754688	0.202911
865.940242	0.202856
866.125777	0.203016
866.311295	0.203194
866.496794	0.203531
866.682275	0.203643
866.867737	0.203533
867.053182	0.203861
867.238608	0.204159
867.424016	0.204488
867.609406	0.204641
867.794778	0.204819
867.980131	0.204985
868.165466	0.204906
868.350783	0.205303
868.536082	0.205556
868.721362	0.205348
868.906625	0.205346
869.091869	0.205435
869.277094	0.205516
869.462302	0.205590
869.647491	0.205709
869.832662	0.206129
870.017815	0.205945
870.202950	0.206072
870.388066	0.206245
870.573165	0.206439
870.758245	0.206584
870.943306	0.206716
871.128350	0.206947
871.313375	0.207423
871.498382	0.207697
871.683371	0.208067
871.868342	0.208155
872.053294	0.208621
872.238229	0.208796
872.423144	0.209163
872.608042	0.209376
872.792922	0.209547
872.977783	0.209291
873.162626	0.209255
873.347451	0.209425
873.532258	0.209597
873.717046	0.209509
873.901816	0.209646
874.086568	0.209377
874.271302	0.209495
874.456017	0.209624
874.640715	0.209690
874.825394	0.209589
875.010055	0.209632
875.194697	0.209562
875.379322	0.209774
875.563928	0.209640
875.748516	0.209634
875.933085	0.209418
876.117637	0.209141
876.302170	0.208970
876.486685	0.208783
876.671182	0.208614
876.855661	0.208932
877.040121	0.208422
877.224563	0.208453
877.408987	0.208602
877.593393	0.208940
877.777780	0.208954
877.962150	0.209494
878.146501	0.209957
878.330833	0.209994
878.515148	0.209753
878.699444	0.210236
878.883722	0.210409
879.067982	0.210470
879.252224	0.210463
879.436447	0.210991
879.620653	0.210989
879.804840	0.211107
879.989008	0.211219
880.173159	0.211389
880.357291	0.211125
880.541405	0.211306
880.725501	0.211480
880.909579	0.211642
881.093638	0.211771
881.277680	0.211819
881.461703	0.211647
881.645707	0.211593
881.829694	0.211350
882.013662	0.211722
882.197612	0.211546
882.381544	0.211146
882.565458	0.210810
882.749353	0.210196
882.933230	0.209697
883.117089	0.209862
883.300930	0.209786
883.484753	0.210263
883.668557	0.210029
883.852343	0.209788
884.036111	0.210270
884.219861	0.210552
884.403592	0.210510
884.587305	0.210884
884.771000	0.210807
884.954677	0.210750
885.138335	0.210401
885.321976	0.210657
885.505598	0.210835
885.689201	0.210782
885.872787	0.210740
886.056354	0.211178
886.239904	0.211334
886.423434	0.211233
886.606947	0.211444
886.790442	0.211424
886.973918	0.211295
887.157376	0.211638
887.340816	0.211842
887.524237	0.211661
887.707641	0.211437
887.891026	0.211306
888.074393	0.211679
888.257741	0.211847
888.441072	0.212030
888.624384	0.211897
888.807678	0.211532
888.990954	0.211415
889.174211	0.211183
889.357451	0.211244
889.540672	0.211031
889.723875	0.210731
889.907059	0.210737
890.090226	0.210758
890.273374	0.210559
890.456504	0.210663
890.639616	0.210420
890.822709	0.210599
891.005785	0.210140
891.188842	0.210232
891.371881	0.210255
891.554901	0.209788
891.737904	0.209728
891.920888	0.209832
892.103854	0.209595
892.286802	0.209324
892.469731	0.209515
892.652643	0.210105
892.835536	0.210339
893.018410	0.210296
893.201267	0.210375
893.384106	0.210284
893.566926	0.210507
893.749728	0.210714
893.932511	0.211038
894.115277	0.210990
894.298024	0.210763
894.480753	0.210396
894.663464	0.210273
894.846157	0.210609
895.028831	0.210382
895.211487	0.210124
895.394125	0.210250
895.576745	0.209986
895.759346	0.209809
895.941930	0.209359
896.124495	0.209264
896.307041	0.209196
896.489570	0.208844
896.672080	0.208977
896.854573	0.209047
897.037046	0.208821
897.219502	0.208839
897.401940	0.208709
897.584359	0.209299
897.766760	0.209397
897.949143	0.209152
898.131507	0.209117
898.313854	0.209170
898.496182	0.208975
898.678492	0.208867
898.860783	0.208891
899.043057	0.208727
899.225312	0.208163
899.407549	0.207494
899.589768	0.207169
899.771968	0.206951
899.954151	0.206764
900.136315	0.206403
900.318461	0.206384
900.500588	0.206378
900.682698	0.206193
900.864789	0.205841
901.046862	0.206224
901.228917	0.206702
901.410953	0.206425
901.592971	0.206148
901.774972	0.206117
901.956953	0.205377
902.138917	0.205363
902.320862	0.205153
902.502790	0.205323
902.684699	0.205441
902.866589	0.204820
903.048462	0.204811
903.230316	0.204993
903.412152	0.205191
903.593970	0.205459
903.775770	0.204893
903.957551	0.205052
904.139314	0.204602
904.321059	0.204000
904.502786	0.203915
904.684494	0.203170
904.866185	0.202563
905.047857	0.202108
905.229510	0.202109
905.411146	0.201831
905.592763	0.201315
905.774363	0.201626
905.955943	0.201552
906.137506	0.201536
906.319051	0.201749
906.500577	0.201423
906.682085	0.201299
906.863575	0.200630
907.045046	0.200399
907.226500	0.200383
907.407935	0.200230
907.589352	0.199888
907.770750	0.199323
907.952131	0.199150
908.133493	0.199414
908.314837	0.198974
908.496163	0.198848
908.677470	0.198609
908.858760	0.198093
909.040031	0.197359
909.221284	0.197177
909.402518	0.197398
909.583735	0.197165
909.764933	0.196577
909.946113	0.196097
910.127275	0.196091
910.308418	0.196325
910.489544	0.196602
910.670651	0.196899
910.851740	0.196614
911.032810	0.195975
911.213863	0.195622
911.394897	0.195748
911.575913	0.195619
911.756911	0.195669
911.937890	0.195218
912.118851	0.194678
912.299794	0.194139
912.480719	0.193732
912.661626	0.193592
912.842514	0.193412
913.023384	0.192937
913.204236	0.192889
913.385070	0.192313
913.565886	0.192020
913.746683	0.191526
913.927462	0.191056
914.108223	0.191356
914.288965	0.191242
914.469690	0.191248
914.650396	0.190812
914.831084	0.190621
915.011754	0.190094
915.192405	0.189888
915.373038	0.189838
915.553653	0.189625
915.734250	0.189101
915.914829	0.188891
916.095389	0.188496
916.275931	0.187936
916.456455	0.187435
916.636961	0.187401
916.817448	0.186839
916.997917	0.187063
917.178368	0.186931
917.358801	0.186626
917.539216	0.186434
917.719612	0.186061
917.899990	0.186420
918.080350	0.186641
918.260692	0.186374
918.441015	0.186269
918.621320	0.185909
918.801607	0.185514
918.981876	0.185455
919.162127	0.185137
919.342359	0.184432
919.522573	0.183961
919.702769	0.183296
919.882947	0.183039
920.063106	0.182410
920.243247	0.181269
920.423370	0.181032
920.603475	0.180227
920.783562	0.179831
920.963630	0.180477
921.143680	0.180063
921.323712	0.179992
921.503725	0.178977
921.683721	0.178596
921.863698	0.178733
922.043657	0.178049
922.223598	0.177700
922.403520	0.176886
922.583424	0.175843
922.763311	0.175085
922.943178	0.174075
923.123028	0.173921
923.302859	0.173695
923.482673	0.173360
923.662467	0.173044
923.842244	0.172456
924.022003	0.172271
924.201743	0.171816
924.381465	0.171788
924.561169	0.171773
924.740854	0.171067
924.920522	0.170573
925.100171	0.170053
925.279802	0.169587
925.459414	0.169149
925.639009	0.168199
925.818585	0.167399
925.998143	0.166637
926.177683	0.165661
926.357205	0.165801
926.536708	0.165082
926.716193	0.164373
926.895660	0.164237
927.075109	0.164224
927.254539	0.164203
927.433951	0.164316
927.613345	0.163760
927.792721	0.163508
927.972079	0.162917
928.151418	0.162972
928.330739	0.162421
928.510042	0.161508
928.689327	0.160421
928.868593	0.159666
929.047841	0.158939
929.227071	0.158385
929.406283	0.157751
929.585476	0.156821
929.764652	0.155992
929.943809	0.155524
930.122948	0.155566
930.302068	0.155555
930.481171	0.154993
930.660255	0.154252
930.839321	0.153905
931.018369	0.153443
931.197398	0.153067
931.376409	0.152875
931.555402	0.151903
931.734377	0.150698
931.913334	0.150232
932.092272	0.149744
932.271192	0.149565
932.450094	0.148914
932.628978	0.148123
932.807844	0.147147
932.986691	0.146291
933.165520	0.146028
933.344331	0.145499
933.523123	0.144631
933.701898	0.144385
933.880654	0.143685
934.059392	0.143118
934.238111	0.143352
934.416813	0.143346
934.595496	0.143201
934.774161	0.143187
934.952808	0.142696
935.131437	0.142381
935.310047	0.141669
935.488639	0.141252
935.667213	0.141351
935.845769	0.140771
936.024306	0.140254
936.202825	0.139477
936.381326	0.138433
936.559809	0.138493
936.738274	0.138014
936.916720	0.137436
937.095148	0.136896
937.273558	0.135861
937.451950	0.134669
937.630323	0.134477
937.808678	0.133418
937.987015	0.133434
938.165334	0.132225
938.343635	0.131243
938.521917	0.131470
938.700181	0.131003
938.878427	0.131076
939.056655	0.130184
939.234864	0.129679
939.413055	0.129141
939.591228	0.128235
939.769383	0.127706
939.947519	0.126887
940.125638	0.125675
940.303738	0.124977
940.481820	0.124117
940.659883	0.124316
940.837929	0.123565
941.015956	0.123866
941.193965	0.122976
941.371955	0.123041
941.549928	0.123329
941.727882	0.122612
941.905818	0.122026
942.083736	0.120822
942.261636	0.120031
942.439517	0.119060
942.617380	0.118580
942.795225	0.118404
942.973052	0.117296
943.150860	0.116554
943.328651	0.116414
943.506423	0.115891
943.684176	0.115406
943.861912	0.114731
944.039629	0.114877
944.217328	0.112895
944.395009	0.112717
944.572672	0.112287
944.750317	0.111279
944.927943	0.109442
945.105551	0.108403
945.283141	0.108111
945.460712	0.107917
945.638265	0.106870
945.815801	0.107894
945.993317	0.106629
946.170816	0.105847
946.348297	0.106309
946.525759	0.105811
946.703203	0.104873
946.880629	0.104249
947.058036	0.103443
947.235425	0.103582
947.412797	0.102802
947.590149	0.103952
947.767484	0.103329
947.944800	0.101831
948.122099	0.101709
948.299379	0.101542
948.476640	0.100667
948.653884	0.099497
948.831109	0.098971
949.008316	0.097943
949.185505	0.095492
949.362676	0.096646
949.539828	0.095844
949.716962	0.095326
949.894078	0.095278
950.071176	0.095572
950.248256	0.095767
950.425317	0.095396
950.602360	0.094180
950.779385	0.093341
950.956391	0.092881
951.133380	0.092991
951.310350	0.092453
951.487302	0.092480
951.664235	0.090296
951.841151	0.090371
952.018048	0.089948
952.194927	0.091006
952.371788	0.091953
952.548631	0.089749
952.725455	0.087275
952.902261	0.086248
953.079049	0.085079
953.255819	0.085951
953.432570	0.085987
953.609303	0.084494
953.786018	0.082924
953.962715	0.080981
954.139394	0.079174
954.316054	0.079451
954.492696	0.081205
954.669320	0.082174
954.845926	0.082107
955.022513	0.080724
955.199083	0.080407
955.375634	0.080142
955.552166	0.082790
955.728681	0.083214
955.905177	0.084195
956.081655	0.082926
956.258115	0.079650
956.434557	0.080083
956.610980	0.081413
956.787385	0.080696
956.963772	0.080281
957.140141	0.078260
957.316492	0.080112
957.492824	0.080959
957.669138	0.080454
957.845434	0.081735
958.021712	0.078910
958.197971	0.077248
958.374212	0.078363
958.550435	0.077470
958.726640	0.079335
958.902826	0.077435
959.078995	0.074601
959.255145	0.074427
959.431277	0.073736
959.607390	0.075303
959.783486	0.074610
959.959563	0.074669
960.135622	0.075717
960.311662	0.072604
960.487685	0.072462
960.663689	0.074857
960.839675	0.074936
961.015643	0.075852
961.191593	0.075902
961.367524	0.075829
961.543437	0.075000
961.719332	0.073044
961.895209	0.073775
962.071067	0.073284
962.246907	0.072336
962.422730	0.072416
962.598533	0.073464
962.774319	0.072711
962.950086	0.073555
963.125835	0.074057
963.301566	0.076241
963.477279	0.074089
963.652973	0.074097
963.828650	0.073914
964.004308	0.073434
964.179947	0.073185
964.355569	0.072063
964.531172	0.071879
964.706757	0.072057
964.882324	0.070740
965.057873	0.072522
965.233403	0.072771
965.408916	0.073104
965.584410	0.074038
965.759885	0.073559
965.935343	0.074482
966.110782	0.074757
966.286203	0.072824
966.461606	0.073223
966.636991	0.073878
966.812357	0.073956
966.987705	0.072396
967.163035	0.071767
967.338347	0.070383
967.513641	0.070161
967.688916	0.071312
967.864173	0.070997
968.039412	0.069987
968.214632	0.068701
968.389835	0.070127
968.565019	0.071360
968.740185	0.072694
968.915333	0.074773
969.090462	0.074617
969.265573	0.073192
969.440667	0.074067
969.615741	0.076363
969.790798	0.077167
969.965836	0.076843
970.140856	0.075601
970.315858	0.074147
970.490842	0.073074
970.665808	0.073782
970.840755	0.073013
971.015684	0.072414
971.190595	0.070937
971.365487	0.071428
971.540362	0.071117
971.715218	0.071559
971.890056	0.071685
972.064875	0.069813
972.239677	0.070420
972.414460	0.069918
972.589225	0.071414
972.763972	0.071386
972.938700	0.072552
973.113411	0.072182
973.288103	0.072208
973.462777	0.071490
973.637432	0.072803
973.812070	0.069508
973.986689	0.070567
974.161290	0.069757
974.335873	0.071276
974.510437	0.070995
974.684984	0.072927
974.859512	0.073236
975.034022	0.073668
975.208513	0.075162
975.382987	0.077400
975.557442	0.077275
975.731879	0.078482
975.906298	0.076727
976.080698	0.074478
976.255080	0.069875
976.429445	0.071599
976.603790	0.074490
976.778118	0.073087
976.952427	0.073850
977.126719	0.075356
977.300992	0.074413
977.475246	0.075456
977.649483	0.075753
977.823701	0.078692
977.997901	0.076087
978.172083	0.074136
978.346247	0.074264
978.520392	0.073951
978.694519	0.074306
978.868628	0.074775
979.042719	0.073903
979.216791	0.073485
979.390845	0.073689
979.564882	0.075201
979.738899	0.075044
979.912899	0.076405
980.086880	0.073944
980.260843	0.072921
980.434788	0.071859
980.608715	0.071094
980.782623	0.071610
980.956514	0.071531
981.130386	0.071643
981.304240	0.070345
981.478075	0.067975
981.651892	0.070130
981.825692	0.069049
981.999472	0.069940
982.173235	0.070636
982.346980	0.071522
982.520706	0.073257
982.694414	0.073420
982.868104	0.075673
983.041775	0.077746
983.215428	0.077743
983.389064	0.078507
983.562680	0.078753
983.736279	0.078879
983.909860	0.079189
984.083422	0.076167
984.256966	0.076502
984.430491	0.075889
984.603999	0.072412
984.777488	0.072110
984.950959	0.071609
985.124412	0.071662
985.297847	0.071979
985.471263	0.072318
985.644661	0.073841
985.818041	0.073529
985.991403	0.072747
986.164747	0.074371
986.338072	0.077140
986.511379	0.076656
986.684668	0.076310
986.857938	0.076979
987.031191	0.075591
987.204425	0.074955
987.377641	0.074751
987.550839	0.076632
987.724018	0.077377
987.897179	0.075577
988.070322	0.075574
988.243447	0.075079
988.416554	0.078043
988.589642	0.077651
988.762712	0.077438
988.935764	0.075806
989.108798	0.073190
989.281813	0.071009
989.454811	0.070983
989.627790	0.070596
989.800751	0.071051
989.973693	0.068389
990.146617	0.068644
990.319524	0.068913
990.492412	0.070810
990.665281	0.073506
990.838133	0.076164
991.010966	0.075505
991.183781	0.074911
991.356578	0.073735
991.529356	0.073097
991.702117	0.074234
991.874859	0.074928
992.047583	0.074168
992.220288	0.073871
992.392976	0.073623
992.565645	0.075048
992.738296	0.077536
992.910929	0.078550
993.083543	0.079828
993.256139	0.078492
993.428718	0.077200
993.601277	0.077866
993.773819	0.076682
993.946342	0.076711
994.118848	0.075444
994.291335	0.073464
994.463803	0.073115
994.636254	0.070269
994.808686	0.071227
994.981100	0.071139
995.153496	0.070370
995.325874	0.068252
995.498233	0.068655
995.670574	0.067920
995.842897	0.068564
996.015202	0.068765
996.187488	0.071767
996.359757	0.071105
996.532007	0.072235
996.704239	0.072841
996.876452	0.075176
997.048648	0.075044
997.220825	0.074830
997.392984	0.074600
997.565124	0.075490
997.737247	0.075414
997.909351	0.076975
998.081437	0.077130
998.253505	0.078151
998.425554	0.078384
998.597586	0.077923
998.769599	0.078794
998.941594	0.080037
999.113571	0.079114
999.285529	0.078795
999.457469	0.078276
999.629391	0.077190
999.801295	0.074626
999.973181	0.073527
1000.145048	0.073337
1000.316897	0.074259
1000.488728	0.074401
1000.660541	0.074754
1000.832335	0.073676
1001.004111	0.072553
1001.175869	0.073433
1001.347609	0.076073
1001.519331	0.076758
1001.691034	0.076821
1001.862719	0.074589
1002.034386	0.073674
1002.206035	0.072554
1002.377665	0.072193
1002.549277	0.073357
1002.720871	0.073555
1002.892447	0.070465
1003.064004	0.070884
1003.235544	0.071579
1003.407065	0.073335
1003.578568	0.073348
1003.750052	0.073463
1003.921519	0.073784
1004.092967	0.071729
1004.264397	0.071981
1004.435809	0.073442
1004.607202	0.074088
1004.778577	0.072810
1004.949934	0.072566
1005.121273	0.072726
1005.292594	0.074072
1005.463896	0.073900
1005.635180	0.075606
1005.806446	0.074596
1005.977694	0.075076
1006.148923	0.073753
1006.320135	0.073652
1006.491328	0.073890
1006.662503	0.073506
1006.833659	0.072559
1007.004798	0.073368
1007.175918	0.072679
1007.347020	0.073203
1007.518103	0.071870
1007.689169	0.073052
1007.860216	0.075029
1008.031245	0.074295
1008.202256	0.073857
1008.373248	0.074759
1008.544223	0.075167
1008.715179	0.074635
1008.886117	0.073114
1009.057036	0.073534
1009.227938	0.072750
1009.398821	0.072110
1009.569686	0.072331
1009.740533	0.074242
1009.911361	0.073439
1010.082172	0.072091
1010.252964	0.072871
1010.423738	0.074929
1010.594493	0.076027
1010.765231	0.075406
1010.935950	0.075307
1011.106651	0.075187
1011.277334	0.074541
1011.447998	0.074371
1011.618645	0.073510
1011.789273	0.074756
1011.959882	0.073535
1012.130474	0.071927
1012.301048	0.072506
1012.471603	0.072294
1012.642140	0.073868
1012.812658	0.074007
1012.983159	0.074959
1013.153641	0.075316
1013.324105	0.074267
1013.494551	0.075842
1013.664979	0.077195
1013.835388	0.075865
1014.005779	0.075799
1014.176152	0.074729
1014.346507	0.073331
1014.516843	0.073050
1014.687162	0.075849
1014.857462	0.075066
1015.027744	0.074650
1015.198007	0.073505
1015.368252	0.075947
1015.538480	0.074674
1015.708689	0.074872
1015.878879	0.074356
1016.049052	0.074386
1016.219206	0.072239
1016.389342	0.073815
1016.559460	0.072984
1016.729559	0.072714
1016.899641	0.069812
1017.069704	0.070797
1017.239749	0.071640
1017.409775	0.074203
1017.579784	0.074407
1017.749774	0.074719
1017.919746	0.073150
1018.089700	0.073926
1018.259635	0.074727
1018.429553	0.076938
1018.599452	0.077595
1018.769333	0.077842
1018.939195	0.078147
1019.109040	0.077366
1019.278866	0.076392
1019.448674	0.077211
1019.618464	0.076164
1019.788235	0.077379
1019.957989	0.077949
1020.127724	0.077261
1020.297441	0.075707
1020.467139	0.073810
1020.636820	0.074293
1020.806482	0.075408
1020.976126	0.073612
1021.145752	0.075323
1021.315359	0.074504
1021.484948	0.073434
1021.654519	0.072450
1021.824072	0.073045
1021.993607	0.073334
1022.163123	0.074005
1022.332621	0.074204
1022.502101	0.074140
1022.671563	0.073946
1022.841007	0.073437
1023.010432	0.073238
1023.179839	0.073778
1023.349228	0.073943
1023.518598	0.074023
1023.687951	0.072401
1023.857285	0.070372
1024.026601	0.072231
1024.195899	0.071851
1024.365178	0.072956
1024.534439	0.073206
1024.703682	0.073832
1024.872907	0.073617
1025.042114	0.073829
1025.211302	0.075256
1025.380472	0.077277
1025.549624	0.077221
1025.718758	0.076100
1025.887873	0.075349
1026.056970	0.074182
1026.226049	0.074362
1026.395110	0.073848
1026.564153	0.073397
1026.733177	0.073136
1026.902183	0.073609
1027.071171	0.073694
1027.240141	0.073659
1027.409092	0.073443
1027.578026	0.073613
1027.746940	0.073574
1027.915837	0.074155
1028.084716	0.074174
1028.253576	0.075379
1028.422418	0.073876
1028.591242	0.074241
1028.760048	0.073959
1028.928835	0.072871
1029.097604	0.074200
1029.266355	0.073107
1029.435088	0.073681
1029.603803	0.073376
1029.772499	0.071886
1029.941177	0.071644
1030.109837	0.070987
1030.278478	0.071707
1030.447102	0.072762
1030.615707	0.072220
1030.784294	0.072863
1030.952863	0.071428
1031.121413	0.071075
1031.289945	0.070188
1031.458460	0.069952
1031.626955	0.068957
1031.795433	0.068030
1031.963892	0.068302
1032.132334	0.068279
1032.300756	0.070140
1032.469161	0.071201
1032.637548	0.071514
1032.805916	0.072047
1032.974266	0.071939
1033.142598	0.071852
1033.310911	0.073420
1033.479207	0.074069
1033.647484	0.073626
1033.815743	0.071466
1033.983983	0.069959
1034.152206	0.070475
1034.320410	0.068566
1034.488596	0.069538
1034.656764	0.072058
1034.824914	0.071909
1034.993045	0.070311
1035.161158	0.070811
1035.329253	0.071699
1035.497330	0.073576
1035.665388	0.074988
1035.833428	0.078174
1036.001450	0.078470
1036.169454	0.075237
1036.337440	0.073167
1036.505407	0.073528
1036.673356	0.072176
1036.841287	0.071388
1037.009200	0.069046
1037.177094	0.067497
1037.344970	0.064808
1037.512828	0.065608
1037.680668	0.067048
1037.848489	0.067865
1038.016293	0.066714
1038.184078	0.067136
1038.351845	0.065651
1038.519593	0.066417
1038.687324	0.064743
1038.855036	0.066409
1039.022730	0.066320
1039.190406	0.066392
1039.358063	0.067577
1039.525702	0.069065
1039.693323	0.068992
1039.860926	0.069556
1040.028511	0.069871
1040.196077	0.071252
1040.363625	0.069707
1040.531155	0.068837
1040.698667	0.068846
1040.866161	0.067488
1041.033636	0.066996
1041.201093	0.068917
1041.368532	0.070242
1041.535952	0.071132
1041.703355	0.069981
1041.870739	0.071270
1042.038105	0.071221
1042.205452	0.071020
1042.372782	0.070482
1042.540093	0.071937
1042.707386	0.071496
1042.874661	0.070940
1043.041918	0.070058
1043.209156	0.070415
1043.376376	0.071095
1043.543578	0.070585
1043.710762	0.071897
1043.877927	0.072815
1044.045074	0.070431
1044.212203	0.069260
1044.379314	0.070819
1044.546407	0.070472
1044.713481	0.070687
1044.880537	0.070047
1045.047575	0.069011
1045.214595	0.068620
1045.381596	0.068950
1045.548579	0.070687
1045.715544	0.071647
1045.882491	0.069955
1046.049420	0.069881
1046.216330	0.071340
1046.383222	0.072447
1046.550096	0.074011
1046.716951	0.073234
1046.883789	0.073674
1047.050608	0.074009
1047.217409	0.074095
1047.384192	0.075668
1047.550956	0.075284
1047.717703	0.074492
1047.884431	0.071707
1048.051140	0.071964
1048.217832	0.073098
1048.384505	0.073236
1048.551161	0.073351
1048.717798	0.071968
1048.884416	0.070177
1049.051017	0.070282
1049.217599	0.071326
1049.384163	0.072377
1049.550709	0.072116
1049.717237	0.071190
1049.883746	0.070673
1050.050237	0.069324
1050.216710	0.069669
1050.383165	0.069445
1050.549601	0.069319
1050.716019	0.067127
1050.882420	0.068637
1051.048801	0.067725
1051.215165	0.066532
1051.381510	0.065329
1051.547837	0.066259
1051.714146	0.064763
1051.880437	0.065100
1052.046709	0.066448
1052.212964	0.067624
1052.379200	0.066517
1052.545417	0.067905
1052.711617	0.069618
1052.877798	0.070614
1053.043961	0.069572
1053.210106	0.070597
1053.376233	0.071270
1053.542341	0.073031
1053.708432	0.073317
1053.874504	0.072806
1054.040557	0.071968
1054.206593	0.071164
1054.372610	0.070563
1054.538609	0.071462
1054.704590	0.073376
1054.870553	0.073457
1055.036497	0.070003
1055.202424	0.069791
1055.368331	0.069022
1055.534221	0.068732
1055.700093	0.068961
1055.865946	0.068169
1056.031781	0.069172
1056.197598	0.068342
1056.363397	0.068350
1056.529177	0.070801
1056.694939	0.069733
1056.860683	0.071517
1057.026409	0.072072
1057.192116	0.071500
1057.357806	0.072205
1057.523477	0.071839
1057.689130	0.070519
1057.854764	0.070609
1058.020381	0.067690
1058.185979	0.070343
1058.351559	0.069704
1058.517120	0.069757
1058.682664	0.070500
1058.848189	0.072357
1059.013696	0.071609
1059.179185	0.072495
1059.344656	0.072000
1059.510108	0.074459
1059.675542	0.072464
1059.840958	0.073650
1060.006356	0.074060
1060.171735	0.073702
1060.337096	0.073875
1060.502439	0.073911
1060.667764	0.074254
1060.833071	0.074484
1060.998359	0.072965
1061.163629	0.074393
1061.328881	0.074275
1061.494115	0.074181
1061.659330	0.073361
1061.824527	0.073120
1061.989706	0.072496
1062.154867	0.071780
1062.320010	0.071979
1062.485134	0.074658
1062.650240	0.074199
1062.815328	0.072801
1062.980398	0.071832
1063.145449	0.073074
1063.310482	0.071481
1063.475497	0.073920
1063.640494	0.075740
1063.805473	0.076356
1063.970433	0.074593
1064.135375	0.072396
1064.300299	0.073451
1064.465204	0.074788
1064.630092	0.074479
1064.794961	0.075946
1064.959812	0.074753
1065.124645	0.073030
1065.289459	0.072426
1065.454256	0.071453
1065.619034	0.072441
1065.783793	0.071653
1065.948535	0.071177
1066.113258	0.071539
1066.277964	0.071376
1066.442651	0.071003
1066.607319	0.071863
1066.771970	0.070948
1066.936602	0.070669
1067.101216	0.071719
1067.265812	0.074168
1067.430389	0.074328
1067.594949	0.073840
1067.759490	0.074145
1067.924013	0.074776
1068.088518	0.072278
1068.253004	0.073089
1068.417472	0.073836
1068.581922	0.074097
1068.746354	0.070570
1068.910768	0.070270
1069.075163	0.072211
1069.239540	0.072876
1069.403899	0.071878
1069.568240	0.074194
1069.732562	0.073465
1069.896866	0.072767
1070.061152	0.072831
1070.225420	0.074081
1070.389670	0.075060
1070.553901	0.073771
1070.718114	0.070889
1070.882309	0.071515
1071.046486	0.071337
1071.210644	0.073500
1071.374784	0.075726
1071.538906	0.075499
1071.703010	0.075794
1071.867096	0.074785
1072.031163	0.074371
1072.195212	0.074672
1072.359243	0.073919
1072.523256	0.074595
1072.687250	0.072693
1072.851226	0.071925
1073.015184	0.071793
1073.179124	0.071515
1073.343045	0.071002
1073.506949	0.069373
1073.670834	0.070710
1073.834701	0.072249
1073.998549	0.071361
1074.162380	0.072543
1074.326192	0.072651
1074.489986	0.072598
1074.653761	0.072659
1074.817519	0.072808
1074.981258	0.072138
1075.144979	0.071871
1075.308682	0.068950
1075.472367	0.071257
1075.636033	0.071355
1075.799681	0.071937
1075.963311	0.071249
1076.126923	0.072827
1076.290516	0.072723
1076.454092	0.073829
1076.617649	0.072877
1076.781187	0.074332
1076.944708	0.073813
1077.108210	0.074155
1077.271695	0.072963
1077.435160	0.073679
1077.598608	0.073287
1077.762038	0.075784
1077.925449	0.077214
1078.088842	0.077345
1078.252217	0.077062
1078.415573	0.077005
1078.578912	0.074989
1078.742232	0.075005
1078.905534	0.076640
1079.068817	0.078806
1079.232083	0.078055
1079.395330	0.079883
1079.558559	0.080613
1079.721770	0.080724
1079.884962	0.079078
1080.048136	0.079165
1080.211293	0.078910
1080.374430	0.076495
1080.537550	0.073331
1080.700651	0.071009
1080.863735	0.069924
1081.026800	0.070212
1081.189846	0.069684
1081.352875	0.070632
1081.515885	0.073108
1081.678877	0.072251
1081.841851	0.074975
1082.004807	0.075189
1082.167744	0.077809
1082.330663	0.076933
1082.493564	0.078025
1082.656447	0.077766
1082.819312	0.077062
1082.982158	0.077509
1083.144986	0.078343
1083.307796	0.076117
1083.470587	0.075973
1083.633361	0.074765
1083.796116	0.074733
1083.958853	0.070531
1084.121571	0.072277
1084.284272	0.072748
1084.446954	0.071889
1084.609618	0.074058
1084.772264	0.075773
1084.934892	0.075072
1085.097501	0.075474
1085.260092	0.076706
1085.422665	0.078312
1085.585220	0.078486
1085.747756	0.079754
1085.910274	0.078724
1086.072774	0.078744
1086.235256	0.077421
1086.397720	0.078326
1086.560165	0.078602
1086.722592	0.079570
1086.885001	0.079696
1087.047392	0.078685
1087.209764	0.078260
1087.372119	0.079449
1087.534455	0.079168
1087.696772	0.078719
1087.859072	0.079092
1088.021353	0.077308
1088.183616	0.074193
1088.345861	0.074561
1088.508088	0.075722
1088.670296	0.075118
1088.832486	0.074363
1088.994658	0.074474
1089.156812	0.072929
1089.318948	0.072532
1089.481065	0.072605
1089.643164	0.075874
1089.805245	0.076992
1089.967308	0.075811
1090.129352	0.074443
1090.291378	0.073460
1090.453386	0.072731
1090.615376	0.076368
1090.777347	0.077246
1090.939301	0.078482
1091.101236	0.074137
1091.263153	0.075587
1091.425051	0.075735
1091.586932	0.077463
1091.748794	0.076375
1091.910638	0.076738
1092.072463	0.076177
1092.234271	0.076297
1092.396060	0.078276
1092.557831	0.079501
1092.719584	0.077285
1092.881319	0.076467
1093.043035	0.075790
1093.204733	0.077386
1093.366413	0.077395
1093.528075	0.076100
1093.689718	0.075143
1093.851343	0.073557
1094.012950	0.076018
1094.174539	0.075383
1094.336110	0.078724
1094.497662	0.076780
1094.659196	0.077338
1094.820712	0.077103
1094.982210	0.078062
1095.143689	0.078823
1095.305151	0.080289
1095.466594	0.078611
1095.628018	0.080070
1095.789425	0.077625
1095.950813	0.078292
1096.112183	0.081489
1096.273535	0.079509
1096.434869	0.077411
1096.596184	0.077162
1096.757482	0.075758
1096.918761	0.075102
1097.080021	0.074472
1097.241264	0.074869
1097.402488	0.077807
1097.563694	0.075776
1097.724882	0.077173
1097.886052	0.079772
1098.047203	0.078163
1098.208336	0.076712
1098.369451	0.079683
1098.530548	0.079060
1098.691627	0.081342
1098.852687	0.081334
1099.013729	0.080418
1099.174753	0.082270
1099.335758	0.080797
1099.496746	0.083758
1099.657715	0.083226
1099.818666	0.081665
1099.979599	0.082929
1100.140513	0.081463
1100.301409	0.079056
1100.462287	0.080360
1100.623147	0.078217
1100.783989	0.078353
1100.944812	0.077758
1101.105617	0.078632
1101.266404	0.078685
1101.427173	0.079447
1101.587923	0.081641
1101.748656	0.083396
1101.909370	0.079472
1102.070066	0.077432
1102.230743	0.078180
1102.391403	0.076932
1102.552044	0.080781
1102.712667	0.081454
1102.873271	0.081163
1103.033858	0.079909
1103.194426	0.078117
1103.354976	0.079726
1103.515508	0.084947
1103.676021	0.086107
1103.836517	0.085439
1103.996994	0.081946
1104.157453	0.081042
1104.317893	0.083217
1104.478316	0.085188
1104.638720	0.089653
1104.799106	0.087827
1104.959474	0.085956
1105.119823	0.082962
1105.280155	0.081466
1105.440468	0.079726
1105.600763	0.079492
1105.761039	0.076782
1105.921298	0.076612
1106.081538	0.075326
1106.241760	0.077259
1106.401964	0.075418
1106.562149	0.075981
1106.722316	0.076020
1106.882465	0.079350
1107.042596	0.078546
1107.202709	0.081758
1107.362803	0.078471
1107.522879	0.079008
1107.682937	0.076648
1107.842977	0.078591
1108.002999	0.080800
1108.163002	0.082188
1108.322987	0.078981
1108.482954	0.081178
1108.642902	0.078430
1108.802833	0.078348
1108.962745	0.074801
1109.122639	0.076700
1109.282515	0.074268
1109.442372	0.075030
1109.602211	0.076734
1109.762032	0.077522
1109.921835	0.078229
1110.081620	0.078160
1110.241386	0.076741
1110.401134	0.077176
1110.560864	0.078124
1110.720576	0.080471
1110.880269	0.078407
1111.039945	0.078258
1111.199602	0.075829
1111.359240	0.075886
1111.518861	0.071965
1111.678463	0.071925
1111.838047	0.072856
1111.997613	0.069993
1112.157161	0.070756
1112.316690	0.072320
1112.476202	0.074798
1112.635695	0.080391
1112.795169	0.077452
1112.954626	0.082222
1113.114064	0.083949
1113.273484	0.084172
1113.432886	0.086681
1113.592270	0.084761
1113.751635	0.083608
1113.910983	0.080283
1114.070312	0.081924
1114.229622	0.085736
1114.388915	0.084514
1114.548189	0.082651
1114.707445	0.081067
1114.866683	0.084390
1115.025903	0.083046
1115.185104	0.082091
1115.344287	0.083258
1115.503452	0.078066
1115.662599	0.076935
1115.821727	0.078986
1115.980838	0.082222
1116.139930	0.084076
1116.299004	0.083386
1116.458059	0.089358
1116.617097	0.091918
1116.776116	0.093315
1116.935117	0.097775
1117.094099	0.093381
1117.253064	0.092559
1117.412010	0.091644
1117.570938	0.089652
1117.729848	0.089708
1117.888740	0.086201
1118.047613	0.083752
1118.206468	0.080425
1118.365305	0.079855
1118.524124	0.081154
1118.682924	0.081837
1118.841707	0.082115
1119.000471	0.086008
1119.159216	0.083717
1119.317944	0.077911
1119.476653	0.078951
1119.635344	0.080380
1119.794017	0.077883
1119.952672	0.080599
1120.111308	0.076829
1120.269927	0.075910
1120.428527	0.072975
1120.587108	0.077283
1120.745672	0.084125
1120.904217	0.083553
1121.062744	0.082022
1121.221253	0.085647
1121.379744	0.083475
1121.538216	0.086273
1121.696671	0.087551
1121.855107	0.089807
1122.013524	0.085557
1122.171924	0.084811
1122.330305	0.089327
1122.488668	0.091045
1122.647013	0.089649
1122.805340	0.088289
1122.963648	0.090653
1123.121938	0.090071
1123.280210	0.088416
1123.438464	0.086024
1123.596700	0.082651
1123.754917	0.078880
1123.913116	0.076996
1124.071297	0.073867
1124.229459	0.079641
1124.387604	0.077033
1124.545730	0.078090
1124.703838	0.076436
1124.861928	0.078176
1125.019999	0.078083
1125.178052	0.077475
1125.336088	0.078377
1125.494104	0.083847
1125.652103	0.083377
1125.810083	0.084267
1125.968045	0.084612
1126.125989	0.085106
1126.283915	0.086086
1126.441823	0.091458
1126.599712	0.090628
1126.757583	0.093518
1126.915436	0.088307
1127.073270	0.081504
1127.231087	0.078706
1127.388885	0.074617
1127.546665	0.076578
1127.704426	0.077304
1127.862170	0.074989
1128.019895	0.075463
1128.177602	0.073279
1128.335291	0.070594
1128.492961	0.076163
1128.650614	0.076281
1128.808248	0.077112
1128.965864	0.076988
1129.123461	0.074478
1129.281041	0.074681
1129.438602	0.070068
1129.596145	0.069676
1129.753670	0.071779
1129.911176	0.071461
1130.068665	0.077690
1130.226135	0.081735
1130.383587	0.085504
1130.541020	0.085195
1130.698436	0.085949
1130.855833	0.089092
1131.013212	0.090866
1131.170573	0.097523
1131.327915	0.097468
1131.485239	0.094479
1131.642545	0.087980
1131.799833	0.080302
1131.957103	0.081423
1132.114354	0.076086
1132.271588	0.080917
1132.428803	0.079351
1132.585999	0.074999
1132.743178	0.073420
1132.900338	0.073231
1133.057480	0.076085
1133.214604	0.079992
1133.371710	0.083519
1133.528797	0.087902
1133.685866	0.083765
1133.842917	0.084246
1133.999950	0.085693
1134.156964	0.084103
1134.313960	0.081330
1134.470938	0.083914
1134.627898	0.082386
1134.784840	0.080286
1134.941763	0.082943
1135.098668	0.088873
1135.255555	0.085169
1135.412424	0.084028
1135.569274	0.086041
1135.726107	0.087764
1135.882921	0.083281
1136.039716	0.082817
1136.196494	0.083517
1136.353253	0.081233
1136.509995	0.074038
1136.666717	0.077298
1136.823422	0.072910
1136.980109	0.077438
1137.136777	0.075433
1137.293427	0.073570
1137.450059	0.072378
1137.606672	0.069961
1137.763267	0.066894
1137.919844	0.073575
1138.076403	0.083100
1138.232944	0.089222
1138.389466	0.083965
1138.545971	0.085469
1138.702457	0.091119
1138.858924	0.093811
1139.015374	0.094307
1139.171805	0.090752
1139.328218	0.087068
1139.484613	0.077917
1139.640990	0.075383
1139.797348	0.073790
1139.953688	0.073055
1140.110010	0.072730
1140.266314	0.077423
1140.422600	0.080457
1140.578867	0.081026
1140.735116	0.081537
1140.891347	0.079332
1141.047559	0.077438
1141.203754	0.077441
1141.359930	0.081183
1141.516088	0.083730
1141.672228	0.077617
1141.828349	0.070188
1141.984452	0.072891
1142.140537	0.071567
1142.296604	0.071474
1142.452653	0.074781
1142.608683	0.071299
1142.764695	0.068343
1142.920689	0.063537
1143.076665	0.066861
1143.232622	0.069799
1143.388562	0.075936
1143.544483	0.078120
1143.700385	0.078363
1143.856270	0.074843
1144.012136	0.080523
1144.167985	0.083745
1144.323814	0.089245
1144.479626	0.083017
1144.635420	0.086516
1144.791195	0.079401
1144.946952	0.074085
1145.102691	0.075140
1145.258411	0.076076
1145.414113	0.078087
1145.569798	0.068950
1145.725463	0.065644
1145.881111	0.068891
1146.036741	0.065846
1146.192352	0.066897
1146.347945	0.064701
1146.503519	0.068932
1146.659076	0.068864
1146.814614	0.065915
1146.970134	0.071678
1147.125636	0.071921
1147.281120	0.064593
1147.436585	0.064644
1147.592032	0.067025
1147.747461	0.076862
1147.902872	0.078690
1148.058265	0.075092
1148.213639	0.072584
1148.368995	0.070452
1148.524333	0.066574
1148.679653	0.076597
1148.834954	0.077280
1148.990237	0.075880
1149.145502	0.070396
1149.300749	0.069875
1149.455977	0.074702
1149.611188	0.078725
1149.766380	0.075962
1149.921553	0.080623
1150.076709	0.080897
1150.231846	0.075973
1150.386966	0.074016
1150.542066	0.071491
1150.697149	0.069113
1150.852214	0.071506
1151.007260	0.068669
1151.162288	0.078271
1151.317298	0.081008
1151.472289	0.076954
1151.627263	0.083865
1151.782218	0.090098
1151.937155	0.091240
1152.092073	0.089943
1152.246974	0.089279
1152.401856	0.089141
1152.556720	0.089284
1152.711566	0.088978
1152.866393	0.089465
1153.021203	0.086286
1153.175994	0.084183
1153.330767	0.087216
1153.485521	0.081394
1153.640258	0.075982
1153.794976	0.083625
1153.949676	0.074463
1154.104358	0.068467
1154.259021	0.065666
1154.413667	0.065017
1154.568294	0.061167
1154.722903	0.056725
1154.877493	0.064135
1155.032066	0.066831
1155.186620	0.061281
1155.341156	0.062136
1155.495674	0.063983
1155.650173	0.063093
1155.804654	0.056030
1155.959118	0.056210
1156.113562	0.057879
1156.267989	0.053818
1156.422397	0.049413
1156.576788	0.048568
1156.731160	0.048349
1156.885513	0.041894
1157.039849	0.041754
1157.194166	0.049552
1157.348465	0.047756
1157.502746	0.049070
1157.657009	0.051587
1157.811253	0.052832
1157.965479	0.053806
1158.119687	0.056502
1158.273877	0.059631
1158.428048	0.063940
1158.582201	0.062686
1158.736337	0.060999
1158.890453	0.061665
1159.044552	0.063023
1159.198632	0.065877
1159.352694	0.064406
1159.506738	0.061161
1159.660764	0.070280
1159.814771	0.068889
1159.968761	0.070869
1160.122732	0.077906
1160.276685	0.077131
1160.430619	0.078057
1160.584535	0.076005
1160.738434	0.075260
1160.892313	0.080833
1161.046175	0.067514
1161.200019	0.071044
1161.353844	0.068004
1161.507651	0.066018
1161.661440	0.067680
1161.815210	0.061637
1161.968962	0.065744
1162.122697	0.069783
1162.276412	0.068486
1162.430110	0.074985
1162.583789	0.067345
1162.737451	0.072488
1162.891094	0.072594
1163.044718	0.072602
1163.198325	0.071512
1163.351913	0.072334
1163.505483	0.067278
1163.659035	0.071227
1163.812569	0.078895
1163.966084	0.086848
1164.119581	0.085331
1164.273060	0.087621
1164.426521	0.093793
1164.579964	0.096487
1164.733388	0.097432
1164.886794	0.104395
1165.040182	0.091606
1165.193551	0.080057
1165.346903	0.082075
1165.500236	0.082871
1165.653551	0.076421
1165.806848	0.075311
1165.960126	0.071027
1166.113386	0.065331
1166.266628	0.064411
1166.419852	0.066258
1166.573058	0.066545
1166.726245	0.058057
1166.879414	0.053006
1167.032565	0.061399
1167.185698	0.058588
1167.338812	0.055888
1167.491909	0.058363
1167.644987	0.057680
1167.798046	0.062744
1167.951088	0.064345
1168.104111	0.061926
1168.257117	0.065646
1168.410103	0.059392
1168.563072	0.053982
1168.716023	0.057330
1168.868955	0.056044
1169.021869	0.051477
1169.174765	0.044815
1169.327642	0.048273
1169.480501	0.054813
1169.633343	0.057054
1169.786165	0.057294
1169.938970	0.056561
1170.091757	0.062149
1170.244525	0.066485
1170.397275	0.074285
1170.550007	0.082294
1170.702720	0.081979
1170.855415	0.079425
1171.008092	0.082229
1171.160751	0.090934
1171.313392	0.099777
1171.466014	0.057799
1171.618619	0.124675
1171.771205	0.124675
1171.923772	0.124675
