sample name	sample
index	1498
start time	 05-18-2021  02:21:51 PM
880	0.402881
Peak Time (s)	92.537
Peak Height 	0.4029
calc peak height	90,93
Baseline Time (s)	9.536
Baseline Value 	-0.003801
subtract baseline	10,4
Abs	0.277902
Peak Time (s)	90.535
Peak Height 	0.2779
calc peak height	90,93
Baseline Time (s)	9.536
Baseline Value 	0.002806
subtract baseline	10,3
PK_550	0.160764
Peak Time (s)	90.035
Peak Height 	0.1608
calc peak height	90,93
Baseline Time (s)	9.536
Baseline Value 	4.45E-4
subtract baseline	10,2
PK_880	0.281014
Peak Time (s)	90.035
Peak Height 	0.281
calc peak height	90,93
Baseline Time (s)	9.536
Baseline Value 	7.9575E-4
subtract baseline	10,1


Time (s)	A880-A510	A880-A775	A880-A975	A880	I510	I775	I975	I880	
0.035500	0.000270	-0.000209	-0.003076	0.003029	6585.120836	44078.392176	3976.261142	22821.221034
0.536500	-0.002139	-0.000739	-0.006701	0.007280	6530.181553	43628.703026	3957.807757	22627.861732
1.036000	-0.001833	0.000051	0.000235	0.004512	6555.437375	43962.970302	3980.592005	22753.565546
1.537500	0.001202	-0.000362	-0.006583	0.002134	6600.339282	44148.690258	3970.103724	22862.175354
2.043000	0.000201	-0.000951	-0.000300	0.001309	6598.874075	44171.030476	3986.945212	22900.013115
2.540500	-0.002290	0.000063	-0.007195	0.006331	6536.718439	43792.894568	3958.865922	22670.859103
3.037500	0.000728	-0.000119	-0.001503	-0.001121	6623.627462	44481.333780	3989.878920	23011.807440
3.535500	0.000081	-0.000553	-0.003961	0.000133	6607.697485	44320.531855	3981.026877	22954.059221
4.036000	0.002249	-0.000353	-0.004254	0.000202	6625.291884	44332.918095	3980.166309	22950.847963
4.536000	0.002449	-0.000120	0.002938	-0.000169	6630.098833	44390.539914	3998.270702	22967.946964
5.036000	-0.001029	-0.001033	-0.005563	-0.000732	6605.645799	44357.161690	3979.277338	22993.897522
5.539500	0.000859	0.000069	0.000517	0.000096	6614.514962	44383.207440	3991.805468	22955.737416
6.036500	0.001486	-0.001125	-0.001632	-0.000978	6628.804529	44371.902646	3989.229256	23005.247815
6.537000	0.000842	-0.000387	-0.003060	-0.000503	6619.403187	44396.940558	3984.684407	22983.345629
7.037500	0.000088	-0.000017	-0.001089	-0.000112	6609.802186	44394.910783	3988.454860	22965.308743
7.535000	0.001449	0.000079	-0.001284	0.000266	6618.045937	44368.034662	3987.088052	22947.942295
8.035500	-0.000821	-0.000219	0.000704	-0.000067	6601.826575	44371.402106	3992.645827	22963.253876
8.535500	-0.000188	0.000809	0.003389	0.000476	6602.579906	44417.650833	3997.803296	22938.285388
9.036000	0.000750	-0.000263	-0.000993	-0.000567	6619.163853	44414.829450	3989.774416	22986.282551
9.536000	0.000000	0.000000	0.000000	0.000000	6608.130451	44385.828742	3990.795691	22960.161345
10.036500	-0.000069	0.000917	0.003920	0.000611	6602.442254	44414.987270	3998.758919	22932.045824
10.537000	0.003249	0.000082	-0.006818	0.001273	6624.699428	44272.477622	3971.576552	22901.645078
11.037000	-0.000115	-0.000158	-0.008659	-0.000303	6609.706235	44399.646859	3970.954911	22974.127451
11.537500	0.000945	-0.000052	0.002413	-0.000244	6618.088429	44404.129166	3997.185563	22971.386801
12.035000	0.002936	-0.000151	-0.000344	-0.000309	6635.373976	44400.891820	3990.712222	22974.374383
12.535000	-0.001906	-0.000533	-0.000452	0.000115	6591.262307	44324.049062	3989.435718	22954.849587
13.035500	-0.000273	-0.000300	-0.001978	-0.000271	6608.108218	44383.031914	3986.709900	22972.619745
13.536000	0.000050	0.000373	-0.001704	0.001017	6600.048563	44324.520049	3984.292966	22913.419389
14.036000	-0.000197	-0.000344	-0.004378	0.001162	6596.774512	44242.573666	3977.596775	22906.738393
14.536000	-0.001032	-0.000025	-0.001302	0.002195	6581.236097	44174.852446	3982.445464	22859.401527
15.039000	-0.001768	-0.000618	-0.002840	-0.000392	6596.634389	44364.263139	3984.943388	22978.204969
15.537000	0.000879	0.000339	-0.003305	0.000583	6610.610064	44362.590184	3981.514647	22933.348194
16.037000	-0.001140	0.000294	0.000566	0.000527	6594.217624	44363.705176	3990.888852	22935.936182
16.537500	-0.001350	0.000011	0.002845	0.001297	6586.055348	44263.455493	3994.513177	22900.560130
17.035000	0.002822	0.000759	-0.002437	-0.002531	6653.195258	44700.556747	3991.021915	23077.010326
17.535000	-0.002559	0.000266	-0.003617	0.000756	6580.508409	44339.185694	3980.363682	22925.411870
18.035500	-0.001089	0.000178	0.005828	0.000861	6591.857926	44320.820139	4002.774375	22920.589797
18.536000	-0.000137	0.000015	-0.005313	0.000689	6601.221618	44321.591073	3976.504200	22928.458948
19.036000	-0.000753	0.000802	-0.001700	0.001566	6588.783287	44313.118722	3982.996184	22888.226530
19.539000	-0.000053	0.000213	0.000470	0.001103	6598.467344	44301.052424	3989.279433	22909.446278
20.036500	0.001159	0.000776	-0.001083	0.001338	6606.630312	44332.309247	3985.007096	22898.665019
20.537000	0.002367	0.000630	-0.001197	0.001486	6615.504416	44304.372517	3984.384182	22891.884185
21.037500	-0.001198	0.000074	0.000436	0.000514	6593.837278	44343.912486	3990.607339	22936.512465
21.540000	0.001781	-0.000014	-0.004404	0.000764	6616.644714	44311.766332	3978.477931	22925.017064
22.035000	0.000096	-0.000145	-0.002717	0.000635	6603.622424	44311.578996	3982.790772	22930.968758
22.535500	-0.000289	0.000200	-0.002235	0.001119	6596.375242	44298.354053	3982.786331	22908.726599
23.035500	-0.000613	-0.000533	-0.008519	0.000579	6598.173166	44280.068460	3969.210554	22933.550576
23.536000	0.000099	0.000134	-0.001847	0.000256	6606.820386	44374.218288	3985.767515	22948.404151
24.036500	-0.000076	0.000002	-0.001131	0.000810	6600.729164	44308.901150	3986.151967	22922.921016
24.536500	0.000237	0.000908	-0.002605	0.002498	6589.267441	44234.641260	3978.633079	22845.523712
25.036500	0.000894	-0.000117	-0.001662	0.001015	6607.118813	44278.084315	3984.396800	22913.487371
25.537000	0.001519	0.000126	-0.000488	0.000715	6614.865021	44329.791803	3987.915707	22927.299372
26.037000	0.000531	0.000240	0.002292	0.000696	6606.756600	44342.452722	3994.630386	22928.168008
26.535000	-0.000838	0.000463	-0.002628	0.001212	6591.022824	44314.587678	3981.630943	22904.469650
27.038000	0.001847	0.000078	0.001569	-0.002428	6644.070061	44625.307714	4000.421976	23072.232833
27.536000	0.001163	-0.000068	-0.004600	-0.001111	6627.203843	44485.328400	3982.464089	23011.372684
28.036000	0.001270	0.000193	-0.000759	0.000178	6617.274820	44387.237474	3988.550723	22951.956917
28.536000	-0.000486	0.000433	-0.002184	0.002980	6579.248197	44143.784626	3978.487467	22823.450788
29.040000	0.000487	0.000612	-0.001942	0.000472	6608.256245	44399.223974	3985.025429	22938.462833
29.536500	0.000383	0.000776	0.006488	0.000758	6605.001661	44387.559082	4004.625045	22925.326260
30.036500	0.000042	0.000477	0.002383	0.000363	6605.446535	44396.684557	3995.648580	22943.451467
30.537000	-0.004039	-0.000511	0.000453	0.003148	6548.502849	44038.714712	3984.355624	22815.806427
31.037500	-0.000613	-0.000029	-0.001673	0.001827	6587.780543	44209.340297	3982.438097	22876.258353
31.535000	-0.000397	-0.000079	0.002861	0.000489	6600.725953	44331.701589	3996.497649	22937.660072
32.035000	0.001348	0.000610	0.004928	0.000890	6611.963115	44359.169804	4000.524001	22919.253226
32.535500	-0.000582	0.000142	-0.000862	0.004017	6569.867113	44018.272726	3979.164708	22776.139468
33.036000	0.000610	0.000562	-0.000507	0.000635	6607.917946	44378.841002	3988.060940	22930.935397
33.537500	0.001055	0.000787	-0.004294	-0.001543	6629.935044	44608.468482	3984.220238	23031.317100
34.036500	0.000587	0.001063	-0.001808	0.002318	6593.677788	44266.350210	3980.950018	22853.737558
34.536500	-0.001875	0.000302	-0.004117	0.002742	6569.712663	44154.025477	3974.481187	22834.372281
35.040000	-0.001374	-0.000442	-0.003159	0.000981	6588.486985	44250.497832	3980.916657	22915.060227
35.537500	0.000023	0.000729	-0.002019	0.001909	6592.387683	44273.586077	3981.422897	22872.511117
36.034500	0.000273	0.000474	-0.002882	0.001570	6597.293449	44281.546370	3980.175553	22888.017801
36.535000	0.000602	0.000459	-0.002494	0.002613	6591.342299	44181.048963	3978.623232	22840.238638
37.035500	-0.000974	-0.000521	-0.002379	0.001002	6591.642752	44241.049448	3982.722020	22914.116147
37.535500	0.000240	0.000402	-0.001592	0.001307	6599.209558	44299.668540	3983.867407	22900.071741
38.035500	-0.000438	-0.000299	-0.005837	0.001064	6595.582483	44256.095717	3974.381106	22911.229879
38.539000	-0.000806	-0.000220	-0.002745	0.001869	6585.821350	44187.207137	3979.790274	22874.303081
39.036500	0.002407	0.000220	-0.006697	0.001686	6614.161544	44246.381445	3970.889619	22882.699092
39.537000	0.000830	0.001205	-0.002961	0.002228	6596.455481	44288.483609	3978.428648	22857.871357
40.037000	-0.000779	0.000617	-0.003880	0.001829	6586.379220	44270.455464	3977.197519	22876.142872
40.537500	-0.002573	-0.000150	0.000530	0.002239	6568.102589	44158.832122	3986.708247	22857.391271
41.035000	-0.000264	-0.000288	-0.001321	0.001771	6591.146840	44190.139445	3983.409711	22878.826697
41.535500	-0.001006	-0.000162	-0.001095	0.001268	6589.159434	44249.826104	3985.147303	22901.901427
42.035000	0.000713	0.000262	-0.003001	0.001516	6601.422859	44266.522825	3980.022505	22890.527580
42.535500	0.000138	-0.000233	-0.002372	0.002109	6591.686034	44163.301850	3980.108385	22863.343476
43.036500	-0.000620	0.000174	0.000176	0.001814	6587.825356	44229.931131	3986.877528	22876.863635
43.536500	0.001958	0.001460	0.000872	0.002637	6602.452580	44273.832869	3986.573308	22839.156997
44.037000	0.000977	0.000535	-0.000468	0.000048	6615.907786	44432.291887	3989.559381	22957.950297
44.537000	-0.001318	0.000348	-0.002552	0.003285	6569.823436	44106.870207	3976.894281	22809.511154
45.037500	0.000451	0.000369	-0.001028	0.000614	6606.771818	44362.516336	3986.867389	22931.932512
45.537500	0.000988	-0.000195	-0.002838	0.000072	6615.801311	44360.431171	3983.842843	22956.860476
46.035000	0.001404	0.000374	-0.003054	0.000535	6615.403919	44370.478241	3982.226969	22935.551001
46.535500	-0.002074	0.000009	-0.005328	0.003717	6560.014179	44034.073779	3969.335422	22789.827655
47.036000	0.002187	0.000598	0.000477	0.000788	6619.855176	44367.767143	3990.050524	22923.936867
47.536000	-0.001236	-0.000264	-0.003288	0.001927	6581.762198	44177.534228	3978.366885	22871.658153
48.039000	0.002305	0.000300	-0.000653	0.000936	6619.602303	44325.328850	3986.994736	22917.141085
48.536500	-0.002372	-0.000752	-0.003630	0.002888	6564.391669	44040.511484	3975.286670	22827.683342
49.037000	-0.000242	-0.000276	0.003535	-0.000302	6608.631849	44388.370575	4000.035871	22974.077546
49.537500	0.002531	0.000204	0.001931	-0.002381	6649.455335	44632.857115	4001.186009	23070.059507
50.034500	0.002824	0.001004	-0.000418	0.000457	6627.983015	44437.967208	3988.698366	22939.125810
50.535000	-0.004976	-0.002216	-0.000940	0.012569	6464.277348	43000.793975	3958.905445	22389.926223
51.035000	-0.006681	-0.025513	-0.000317	0.447551	4251.586081	16928.379615	3320.819870	10103.482747
51.536000	-0.014932	-0.022225	-0.034425	-0.005831	6532.786119	42852.868999	3924.447161	23230.345389
52.036000	-0.010546	-0.098912	-0.030936	-0.278184	9703.490720	65532.239061	4789.474668	40900.648481
52.538500	-0.031538	-0.062757	-0.028343	-0.223159	8623.090428	62873.746653	4580.229988	36387.007413
53.036000	-0.012268	-0.071551	-0.018749	-0.242037	9141.651401	64280.008184	4690.713642	37871.524086
53.536500	-0.006432	-0.069672	-0.018575	-0.239951	9195.121030	64250.728073	4683.066804	37704.273510
54.037000	-0.009118	-0.047186	-0.011882	-0.203140	8654.400860	62263.702982	4566.922213	34881.621612
54.540000	-0.003302	-0.029970	-0.007999	-0.165408	8251.988930	59529.325795	4445.650413	32226.165240
55.040000	0.008632	-0.025205	0.004325	-0.160261	8335.109510	59479.569822	4470.581425	31881.496054
55.535000	0.013435	-0.019547	0.014552	-0.138643	8131.544267	57441.951137	4431.207527	30477.665280
56.035000	0.028670	-0.008217	0.027201	-0.102928	7894.024497	54469.720673	4354.566970	28306.118556
56.536000	0.049534	0.005783	0.049279	-0.044772	7489.258551	49494.397021	4242.564355	25130.845743
57.038500	0.079792	0.023896	0.079249	0.028109	7067.264273	43986.360985	4120.916900	21707.379990
57.536000	0.108287	0.041458	0.109037	0.088627	6776.376458	40126.932301	4040.896575	19270.220751
58.038000	0.136993	0.059719	0.135802	0.150528	6496.646949	36578.058875	3956.081216	17105.028712
58.536500	0.161128	0.077199	0.163562	0.212087	6205.891747	33337.866903	3880.720830	15237.119577
59.037000	0.180775	0.089153	0.181686	0.250668	6068.054864	31533.931147	3837.874070	14194.416696
59.537000	0.202484	0.101751	0.199112	0.268150	6098.310179	31214.960465	3837.760476	13751.612318
60.037500	0.216597	0.111845	0.217064	0.298846	5981.300144	29907.993203	3812.074296	13015.931849
60.538000	0.223575	0.119296	0.222645	0.317285	5903.004250	29235.884151	3786.912774	12598.381599
61.035000	0.235853	0.128451	0.232140	0.345591	5796.912446	28104.356277	3751.418119	11990.908796
61.535500	0.238556	0.130400	0.237226	0.356286	5745.454679	27603.968319	3741.129311	11771.493476
62.039000	0.242691	0.138369	0.239805	0.370339	5682.901356	27261.751774	3720.489347	11491.276517
62.536500	0.246372	0.143667	0.243579	0.376224	5669.197576	27229.008308	3716.751721	11376.599206
63.036500	0.246601	0.143373	0.243674	0.374082	5683.943973	27332.245011	3720.711284	11418.149880
63.536500	0.249106	0.144682	0.244472	0.374888	5694.563974	27360.456639	3720.698580	11402.493001
64.033500	0.253585	0.146446	0.245324	0.378617	5699.265139	27250.532638	3715.606627	11330.408657
64.537000	0.252475	0.147338	0.251641	0.382691	5666.936892	27073.514301	3719.573247	11252.350301
65.035000	0.254091	0.149338	0.251553	0.382051	5680.962618	27220.271184	3720.552452	11264.571848
65.535500	0.257438	0.151677	0.254479	0.384655	5685.594759	27205.519900	3721.126015	11215.001020
66.035500	0.257477	0.151235	0.248949	0.384776	5685.081405	27174.187784	3711.149981	11212.700725
66.535500	0.259996	0.152689	0.258860	0.390036	5668.031042	26963.284365	3719.351534	11113.486030
67.036500	0.258904	0.153469	0.258954	0.390812	5656.472429	26963.505924	3718.143626	11098.945957
67.536500	0.261113	0.154665	0.257577	0.393168	5655.565734	26899.609493	3711.563818	11054.964920
68.036500	0.260767	0.154399	0.260585	0.394043	5648.040383	26836.921787	3715.315559	11038.698642
68.537000	0.262692	0.156019	0.264934	0.396480	5644.889556	26792.134509	3718.694794	10993.554326
69.037000	0.261126	0.154446	0.264253	0.396968	5632.292229	26679.514296	3716.627300	10984.547526
69.537500	0.267258	0.157936	0.266408	0.399999	5651.335284	26704.572387	3715.083018	10928.815160
70.034500	0.265732	0.158093	0.263069	0.400532	5638.677827	26684.007206	3708.287056	10919.049485
70.538500	0.266461	0.158363	0.263445	0.401324	5638.287747	26655.603297	3707.559774	10904.568069
71.036000	0.268792	0.159652	0.269011	0.401170	5653.574673	26734.297521	3717.609965	10907.385752
71.538500	0.269424	0.160905	0.268021	0.402005	5652.324293	26757.164830	3714.389251	10892.140168
72.036500	0.266579	0.160209	0.263053	0.400502	5644.060285	26801.316673	3708.311328	10919.591177
72.536000	0.272516	0.160564	0.266460	0.400397	5681.452700	26826.529891	3714.473323	10921.525331
73.037000	0.276616	0.162870	0.266039	0.400769	5704.784853	26932.873020	3713.077287	10914.720460
73.537000	0.270541	0.161993	0.267076	0.398926	5678.313682	26986.144405	3718.156089	10948.490869
74.035000	0.271983	0.164230	0.267278	0.399676	5682.622148	27068.368323	3717.186816	10934.730155
74.535000	0.271634	0.163474	0.261835	0.400881	5672.954199	26959.987033	3705.526535	10912.665593
75.034500	0.271479	0.165088	0.271215	0.398202	5688.676364	27197.964365	3726.811672	10961.805667
75.535500	0.274040	0.164864	0.266292	0.397529	5708.956508	27222.958478	3719.242364	10974.188690
76.036000	0.274797	0.165123	0.275438	0.397216	5715.703479	27254.862509	3736.189940	10979.961372
76.536500	0.271649	0.163754	0.269643	0.398452	5688.180945	27109.886193	3723.557753	10957.205949
77.036500	0.275049	0.165997	0.271267	0.397151	5717.707535	27307.354555	3728.788260	10981.169890
77.537000	0.273135	0.163395	0.274474	0.394198	5724.278908	27327.053549	3739.920353	11035.824136
78.037000	0.276836	0.164464	0.277440	0.394922	5743.187918	27346.387209	3744.011395	11022.390488
78.537000	0.275481	0.164718	0.274642	0.398152	5714.117813	27180.113120	3733.058789	10962.723726
79.035000	0.276926	0.163539	0.271800	0.394815	5744.436816	27300.489534	3733.951444	11024.358996
79.535000	0.278314	0.165067	0.271271	0.396309	5743.767875	27302.495414	3730.307892	10996.718536
80.035000	0.276649	0.163917	0.272035	0.396275	5733.384491	27240.073029	3731.742246	10997.331250
80.535500	0.272369	0.160615	0.272758	0.397072	5701.329473	27012.458260	3731.609941	10982.626547
81.038500	0.277821	0.162295	0.274248	0.394728	5750.714901	27235.893892	3738.544147	11025.984162
81.536500	0.274182	0.163064	0.274621	0.396483	5716.454734	27180.988901	3736.038631	10993.503100
82.036500	0.274175	0.162444	0.271421	0.397006	5713.102717	27117.413970	3729.324710	10983.832598
82.536500	0.273274	0.161575	0.276127	0.400040	5688.409805	26901.716558	3732.332489	10928.061249
83.037000	0.272828	0.160182	0.275355	0.395938	5711.349310	27051.198784	3738.358496	11003.571477
83.534500	0.276740	0.162504	0.272822	0.398282	5721.247354	27050.004489	3729.549573	10960.341793
84.035000	0.275383	0.161191	0.278949	0.398303	5712.546032	26976.272093	3740.592860	10959.946293
84.535000	0.276298	0.161780	0.274163	0.398833	5714.973765	26979.551352	3730.970105	10950.211360
85.035500	0.276150	0.161281	0.277227	0.398711	5714.808247	26958.714075	3736.721880	10952.439883
85.538500	0.276141	0.161165	0.277108	0.399093	5712.343012	26931.251207	3735.815558	10945.431188
86.036000	0.274297	0.160656	0.277315	0.399059	5700.957131	26905.123388	3736.252305	10946.051539
86.536500	0.276054	0.162301	0.269244	0.400718	5701.576861	26904.341339	3718.822675	10915.650464
87.036500	0.276575	0.161349	0.277159	0.399116	5714.929347	26940.110718	3735.864995	10944.995980
87.537000	0.275204	0.160915	0.270945	0.399404	5704.491713	26900.399215	3724.181425	10939.723539
88.037500	0.278449	0.161291	0.272662	0.400206	5719.889857	26876.955998	3725.815562	10925.021060
88.537500	0.275277	0.159384	0.269336	0.398456	5710.912242	26868.303159	3723.002901	10957.136011
89.035000	0.276729	0.160479	0.276503	0.400181	5709.193125	26833.712987	3732.755862	10925.467219
89.537500	0.278544	0.160346	0.269947	0.400715	5717.269628	26797.118749	3720.073858	10915.693327
90.035500	0.281014	0.160764	0.272227	0.401369	5728.764109	26784.232682	3722.963757	10903.747047
90.535500	0.278953	0.159970	0.277902	0.401396	5715.552190	26739.300859	3733.086900	10903.243077
91.036500	0.278300	0.159405	0.275976	0.401563	5710.383819	26699.348533	3729.320802	10900.199428
91.537500	0.276094	0.159697	0.276798	0.401921	5694.283383	26695.774325	3730.154912	10893.669886
92.037000	0.278692	0.159674	0.271997	0.402277	5708.356936	26675.103694	3720.940657	10887.174309
92.537000	0.277314	0.159321	0.276297	0.402881	5695.910206	26622.995916	3727.532188	10876.170872
93.037000	0.280752	0.159732	0.272407	0.404187	5709.300637	26574.402616	3718.281044	10852.444056
93.543000	0.280131	0.160239	0.279430	0.405502	5697.138846	26530.564380	3728.450680	10828.611445
94.035000	0.280872	0.160249	0.278444	0.405054	5704.602289	26555.368941	3727.485608	10836.711497
94.539000	0.276396	0.158494	0.274481	0.407991	5658.404052	26302.329373	3715.225256	10783.705850
95.038500	0.282644	0.159679	0.272495	0.406270	5708.100012	26458.742300	3714.757471	10814.731461
95.536500	0.280186	0.158836	0.275744	0.405964	5694.591148	26429.729415	3721.046074	10820.253393
96.036000	0.282692	0.159300	0.274436	0.407329	5701.743516	26381.196303	3716.312563	10795.614712
