sample name	sample
index	445
start time	 03-11-2021  10:51:39 AM


Wavelength (nm)	Absorbance
494.344910	0.132367
494.563924	0.132367
494.782919	0.132367
495.001897	-0.042012
495.220856	0.030867
495.439797	0.022598
495.658719	-0.002716
495.877624	0.001528
496.096510	0.013523
496.315378	0.005810
496.534227	0.005066
496.753059	-0.001362
496.971872	0.018566
497.190667	0.108873
497.409444	0.136654
497.628203	0.144548
497.846943	0.149308
498.065665	0.149494
498.284369	0.151193
498.503055	0.152897
498.721723	0.155165
498.940372	0.155328
499.159003	0.155804
499.377616	0.155880
499.596210	0.157155
499.814787	0.157479
500.033345	0.157985
500.251885	0.159300
500.470406	0.159669
500.688910	0.158134
500.907395	0.157969
501.125862	0.159166
501.344311	0.158969
501.562742	0.159134
501.781154	0.158756
501.999548	0.159609
502.217924	0.158577
502.436282	0.159671
502.654621	0.160550
502.872942	0.160782
503.091245	0.161109
503.309530	0.161576
503.527797	0.161529
503.746045	0.160929
503.964275	0.161116
504.182487	0.162190
504.400681	0.161331
504.618856	0.161430
504.837013	0.161759
505.055152	0.160463
505.273273	0.161092
505.491376	0.161919
505.709460	0.162313
505.927526	0.162983
506.145574	0.162789
506.363604	0.163599
506.581615	0.164324
506.799608	0.164550
507.017583	0.165097
507.235540	0.165076
507.453478	0.164132
507.671399	0.164953
507.889301	0.164711
508.107185	0.165135
508.325050	0.165017
508.542898	0.164603
508.760727	0.164483
508.978538	0.165547
509.196330	0.165814
509.414105	0.166414
509.631861	0.166127
509.849599	0.167204
510.067319	0.167246
510.285021	0.168229
510.502704	0.169021
510.720369	0.169332
510.938016	0.169284
511.155645	0.169253
511.373255	0.170376
511.590848	0.171426
511.808422	0.170867
512.025977	0.171350
512.243515	0.170352
512.461034	0.169685
512.678536	0.170191
512.896018	0.170857
513.113483	0.171133
513.330930	0.170996
513.548358	0.171231
513.765768	0.172044
513.983160	0.171825
514.200533	0.172163
514.417889	0.172659
514.635226	0.173108
514.852545	0.172433
515.069845	0.172792
515.287128	0.172438
515.504392	0.172007
515.721638	0.171965
515.938866	0.172609
516.156075	0.173181
516.373267	0.173875
516.590440	0.174289
516.807594	0.175277
517.024731	0.175930
517.241850	0.175991
517.458950	0.176130
517.676032	0.175998
517.893095	0.176470
518.110141	0.176639
518.327168	0.176918
518.544177	0.176519
518.761168	0.176616
518.978141	0.176634
519.195095	0.177241
519.412031	0.177647
519.628949	0.177654
519.845849	0.177191
520.062731	0.178015
520.279594	0.178242
520.496439	0.178634
520.713266	0.178584
520.930074	0.179215
521.146865	0.179514
521.363637	0.179443
521.580391	0.180011
521.797127	0.180891
522.013844	0.180648
522.230543	0.181145
522.447224	0.181669
522.663887	0.182504
522.880532	0.182373
523.097158	0.182249
523.313766	0.182612
523.530356	0.182294
523.746928	0.182010
523.963481	0.182487
524.180017	0.182365
524.396534	0.182606
524.613032	0.181527
524.829513	0.181157
525.045975	0.181824
525.262420	0.182583
525.478845	0.183267
525.695253	0.184328
525.911643	0.184473
526.128014	0.185180
526.344367	0.185453
526.560702	0.186754
526.777018	0.187837
526.993316	0.188742
527.209597	0.188748
527.425858	0.189426
527.642102	0.189314
527.858328	0.189766
528.074535	0.189963
528.290724	0.190344
528.506894	0.190690
528.723047	0.190498
528.939181	0.190376
529.155297	0.191087
529.371395	0.191342
529.587475	0.191527
529.803536	0.191653
530.019579	0.192028
530.235604	0.192035
530.451611	0.192128
530.667600	0.192408
530.883570	0.192238
531.099522	0.193128
531.315456	0.193190
531.531372	0.193356
531.747269	0.193751
531.963148	0.193675
532.179009	0.194058
532.394852	0.194191
532.610676	0.194246
532.826482	0.194756
533.042271	0.193223
533.258040	0.193738
533.473792	0.194078
533.689525	0.194248
533.905240	0.194779
534.120937	0.195496
534.336616	0.195920
534.552277	0.196928
534.767919	0.197422
534.983543	0.199033
535.199149	0.199258
535.414736	0.199681
535.630306	0.200403
535.845857	0.200434
536.061390	0.200458
536.276904	0.201242
536.492401	0.201488
536.707879	0.201288
536.923339	0.201341
537.138781	0.201586
537.354204	0.201600
537.569610	0.201269
537.784997	0.202146
538.000366	0.202310
538.215716	0.202061
538.431049	0.201862
538.646363	0.202345
538.861659	0.202306
539.076937	0.202266
539.292196	0.202884
539.507438	0.203488
539.722661	0.203614
539.937866	0.203723
540.153052	0.203765
540.368221	0.204494
540.583371	0.204717
540.798503	0.204921
541.013617	0.205505
541.228712	0.205429
541.443789	0.205709
541.658848	0.205949
541.873889	0.206417
542.088912	0.207305
542.303916	0.207298
542.518902	0.208818
542.733870	0.209092
542.948820	0.209009
543.163752	0.209842
543.378665	0.209860
543.593560	0.209621
543.808437	0.210185
544.023295	0.209833
544.238136	0.210294
544.452958	0.209299
544.667762	0.210241
544.882548	0.210907
545.097315	0.211289
545.312064	0.211606
545.526795	0.212238
545.741508	0.212047
545.956203	0.213184
546.170879	0.213955
546.385537	0.214404
546.600177	0.214571
546.814799	0.214994
547.029402	0.214493
547.243988	0.214593
547.458555	0.214465
547.673103	0.214733
547.887634	0.214416
548.102146	0.214017
548.316640	0.214042
548.531116	0.213967
548.745574	0.213964
548.960013	0.214658
549.174435	0.214846
549.388838	0.215417
549.603222	0.215892
549.817589	0.216380
550.031937	0.216777
550.246267	0.217041
550.460579	0.217193
550.674873	0.217235
550.889148	0.217312
551.103405	0.217435
551.317644	0.217424
551.531865	0.217472
551.746068	0.217056
551.960252	0.216699
552.174418	0.217271
552.388566	0.217486
552.602696	0.217699
552.816807	0.217700
553.030900	0.218073
553.244975	0.218388
553.459032	0.218800
553.673070	0.219176
553.887091	0.219738
554.101093	0.219704
554.315077	0.220604
554.529042	0.221349
554.742990	0.221577
554.956919	0.221688
555.170830	0.222121
555.384722	0.222541
555.598597	0.222989
555.812453	0.223289
556.026291	0.223633
556.240111	0.223380
556.453913	0.222905
556.667696	0.223730
556.881461	0.224353
557.095208	0.224725
557.308937	0.224556
557.522647	0.224595
557.736339	0.224702
557.950013	0.224610
558.163669	0.224692
558.377307	0.225238
558.590926	0.225106
558.804527	0.225206
559.018110	0.224909
559.231675	0.224623
559.445221	0.225407
559.658749	0.225477
559.872259	0.225898
560.085751	0.226080
560.299225	0.226479
560.512680	0.226384
560.726117	0.226393
560.939536	0.226564
561.152937	0.227264
561.366319	0.227211
561.579683	0.227653
561.793029	0.227903
562.006357	0.228027
562.219667	0.227922
562.432958	0.228198
562.646231	0.228203
562.859486	0.228760
563.072723	0.228793
563.285941	0.228821
563.499141	0.228903
563.712323	0.228948
563.925487	0.229205
564.138632	0.229187
564.351760	0.229683
564.564869	0.229908
564.777960	0.229665
564.991032	0.230071
565.204087	0.230148
565.417123	0.230370
565.630141	0.230899
565.843140	0.230988
566.056122	0.231259
566.269085	0.231307
566.482030	0.231588
566.694957	0.231853
566.907866	0.231904
567.120756	0.232099
567.333628	0.232479
567.546482	0.232317
567.759318	0.232314
567.972135	0.232292
568.184935	0.232122
568.397716	0.232374
568.610478	0.232550
568.823223	0.232552
569.035949	0.232403
569.248657	0.232014
569.461347	0.231910
569.674019	0.232336
569.886672	0.232655
570.099308	0.233061
570.311925	0.233134
570.524523	0.233515
570.737104	0.233812
570.949666	0.234500
571.162210	0.235108
571.374736	0.235474
571.587244	0.235530
571.799733	0.235852
572.012205	0.235938
572.224658	0.235894
572.437092	0.235510
572.649509	0.235347
572.861907	0.235015
573.074287	0.235074
573.286649	0.235378
573.498993	0.235475
573.711318	0.235803
573.923625	0.236023
574.135914	0.236446
574.348185	0.236664
574.560438	0.237019
574.772672	0.237265
574.984888	0.237726
575.197086	0.237878
575.409266	0.237917
575.621427	0.237744
575.833570	0.237907
576.045695	0.238201
576.257802	0.238410
576.469890	0.238585
576.681961	0.238588
576.894013	0.238132
577.106046	0.238169
577.318062	0.238452
577.530059	0.238583
577.742039	0.238887
577.954000	0.238903
578.165942	0.239416
578.377867	0.239467
578.589773	0.239900
578.801661	0.240266
579.013531	0.240069
579.225382	0.240399
579.437216	0.240345
579.649031	0.240436
579.860828	0.240227
580.072606	0.240494
580.284367	0.241223
580.496109	0.241749
580.707833	0.241704
580.919539	0.242223
581.131227	0.241898
581.342896	0.242031
581.554547	0.241992
581.766180	0.242403
581.977795	0.242327
582.189391	0.242040
582.400969	0.241623
582.612529	0.241909
582.824071	0.242195
583.035595	0.242756
583.247100	0.243036
583.458587	0.242864
583.670056	0.243069
583.881506	0.243092
584.092939	0.243235
584.304353	0.243337
584.515749	0.243389
584.727127	0.243583
584.938486	0.243757
585.149828	0.244057
585.361151	0.244656
585.572456	0.244538
585.783742	0.244731
585.995011	0.244736
586.206261	0.244888
586.417493	0.245159
586.628706	0.245429
586.839902	0.245195
587.051079	0.245539
587.262238	0.245902
587.473379	0.246353
587.684502	0.246288
587.895606	0.246393
588.106692	0.246567
588.317760	0.246722
588.528810	0.246599
588.739841	0.246927
588.950855	0.246954
589.161850	0.246889
589.372827	0.247260
589.583785	0.248073
589.794726	0.248473
590.005648	0.249158
590.216552	0.249615
590.427437	0.249387
590.638305	0.249521
590.849154	0.249516
591.059985	0.249703
591.270798	0.249490
591.481592	0.249288
591.692369	0.249519
591.903127	0.249499
592.113867	0.249310
592.324588	0.249769
592.535292	0.249833
592.745977	0.249734
592.956644	0.249984
593.167293	0.249886
593.377923	0.250253
593.588536	0.250336
593.799130	0.250183
594.009706	0.250412
594.220263	0.250811
594.430803	0.251077
594.641324	0.251825
594.851827	0.251704
595.062312	0.252089
595.272778	0.252018
595.483227	0.252066
595.693657	0.252563
595.904069	0.253101
596.114462	0.253126
596.324838	0.253782
596.535195	0.253738
596.745534	0.254107
596.955855	0.254505
597.166157	0.254794
597.376441	0.254748
597.586707	0.254711
597.796955	0.254733
598.007185	0.255105
598.217396	0.255054
598.427589	0.255175
598.637764	0.255470
598.847921	0.255678
599.058060	0.255724
599.268180	0.256209
599.478282	0.256416
599.688366	0.256662
599.898431	0.256582
600.108479	0.256873
600.318508	0.257273
600.528519	0.257238
600.738511	0.257268
600.948486	0.257361
601.158442	0.257272
601.368380	0.257257
601.578300	0.257184
601.788202	0.257343
601.998085	0.257120
602.207950	0.256969
602.417797	0.257123
602.627626	0.257529
602.837436	0.257786
603.047228	0.258041
603.257002	0.258516
603.466758	0.258541
603.676496	0.258605
603.886215	0.258725
604.095916	0.258979
604.305599	0.258907
604.515264	0.258640
604.724910	0.258537
604.934538	0.258677
605.144148	0.258600
605.353740	0.258647
605.563314	0.258638
605.772869	0.258727
605.982406	0.258374
606.191925	0.258660
606.401425	0.258839
606.610908	0.259247
606.820372	0.259363
607.029818	0.259709
607.239246	0.259861
607.448655	0.260131
607.658047	0.260047
607.867420	0.260266
608.076775	0.260764
608.286111	0.261059
608.495430	0.261004
608.704730	0.261097
608.914012	0.260840
609.123275	0.261262
609.332521	0.261255
609.541748	0.261592
609.750957	0.262141
609.960148	0.262121
610.169321	0.262191
610.378475	0.262479
610.587611	0.262414
610.796729	0.262726
611.005829	0.262969
611.214910	0.263465
611.423974	0.263778
611.633019	0.264020
611.842045	0.263783
612.051054	0.264098
612.260044	0.264251
612.469017	0.264723
612.677970	0.265008
612.886906	0.264634
613.095824	0.264559
613.304723	0.264601
613.513604	0.264475
613.722467	0.264504
613.931311	0.264491
614.140138	0.264684
614.348946	0.264731
614.557736	0.264910
614.766507	0.265229
614.975261	0.265514
615.183996	0.265563
615.392713	0.265918
615.601412	0.266362
615.810092	0.266186
616.018754	0.266272
616.227399	0.266347
616.436024	0.266266
616.644632	0.266791
616.853222	0.266873
617.061793	0.266889
617.270346	0.267076
617.478880	0.267100
617.687397	0.267507
617.895895	0.267506
618.104375	0.267682
618.312837	0.267654
618.521281	0.267391
618.729706	0.267285
618.938113	0.267609
619.146502	0.267541
619.354873	0.267624
619.563226	0.267699
619.771560	0.267696
619.979876	0.267765
620.188174	0.267968
620.396453	0.268310
620.604715	0.268342
620.812958	0.268790
621.021183	0.269038
621.229390	0.269070
621.437578	0.269200
621.645748	0.269345
621.853900	0.269707
622.062034	0.270063
622.270150	0.269952
622.478247	0.270241
622.686326	0.270238
622.894387	0.270190
623.102430	0.270413
623.310454	0.270729
623.518461	0.271257
623.726449	0.271478
623.934418	0.271433
624.142370	0.271590
624.350303	0.272118
624.558218	0.272202
624.766115	0.272282
624.973994	0.272503
625.181855	0.272547
625.389697	0.272457
625.597521	0.272511
625.805327	0.272874
626.013114	0.273019
626.220883	0.272809
626.428634	0.272833
626.636367	0.273102
626.844082	0.273254
627.051778	0.273503
627.259457	0.273999
627.467117	0.274032
627.674758	0.274223
627.882382	0.274479
628.089987	0.274977
628.297574	0.275432
628.505143	0.275494
628.712694	0.275616
628.920226	0.275545
629.127740	0.275175
629.335236	0.275364
629.542714	0.275275
629.750174	0.275366
629.957615	0.275284
630.165038	0.275245
630.372443	0.275537
630.579829	0.275633
630.787198	0.275842
630.994548	0.275862
631.201880	0.276080
631.409194	0.276238
631.616489	0.276478
631.823766	0.276520
632.031025	0.276620
632.238266	0.276815
632.445489	0.277130
632.652693	0.277427
632.859879	0.277794
633.067047	0.277944
633.274197	0.278253
633.481329	0.278200
633.688442	0.278169
633.895537	0.278184
634.102614	0.278263
634.309672	0.278241
634.516713	0.278401
634.723735	0.278863
634.930739	0.278893
635.137724	0.278948
635.344692	0.279083
635.551641	0.279549
635.758572	0.280063
635.965485	0.280157
636.172379	0.280416
636.379256	0.280247
636.586114	0.280255
636.792954	0.280393
636.999775	0.280299
637.206579	0.280539
637.413364	0.280449
637.620131	0.280104
637.826880	0.279878
638.033610	0.279945
638.240323	0.280216
638.447017	0.280028
638.653692	0.279858
638.860350	0.280022
639.066990	0.280158
639.273611	0.280506
639.480214	0.280905
639.686798	0.281413
639.893365	0.281650
640.099913	0.281884
640.306443	0.282189
640.512955	0.282741
640.719449	0.283268
640.925924	0.283513
641.132381	0.283523
641.338820	0.283319
641.545241	0.283441
641.751644	0.283872
641.958028	0.283877
642.164394	0.284046
642.370742	0.284405
642.577071	0.284475
642.783383	0.284587
642.989676	0.284984
643.195951	0.285240
643.402207	0.285557
643.608446	0.285769
643.814666	0.286034
644.020868	0.286525
644.227052	0.286588
644.433218	0.286414
644.639365	0.286463
644.845494	0.286507
645.051605	0.286894
645.257698	0.286927
645.463772	0.286872
645.669828	0.287094
645.875866	0.287209
646.081886	0.287257
646.287888	0.287789
646.493871	0.288022
646.699836	0.288096
646.905783	0.288293
647.111712	0.288564
647.317622	0.288836
647.523514	0.288964
647.729388	0.289059
647.935244	0.289253
648.141082	0.289492
648.346901	0.289842
648.552702	0.290193
648.758485	0.290437
648.964250	0.290886
649.169996	0.290972
649.375724	0.291384
649.581434	0.291444
649.787126	0.291539
649.992800	0.291677
650.198455	0.291645
650.404092	0.291532
650.609711	0.291654
650.815311	0.291499
651.020894	0.291563
651.226458	0.291304
651.432004	0.291486
651.637532	0.291359
651.843041	0.291250
652.048532	0.291431
652.254006	0.291732
652.459460	0.291649
652.664897	0.291767
652.870315	0.291743
653.075716	0.292159
653.281097	0.292332
653.486461	0.292663
653.691807	0.292975
653.897134	0.293137
654.102443	0.293182
654.307734	0.293739
654.513006	0.293881
654.718261	0.294313
654.923497	0.294636
655.128715	0.294770
655.333915	0.295099
655.539096	0.295378
655.744259	0.295765
655.949404	0.296434
656.154531	0.296591
656.359640	0.296790
656.564730	0.297003
656.769802	0.297014
656.974856	0.297414
657.179892	0.297657
657.384909	0.297739
657.589908	0.297789
657.794889	0.297957
657.999852	0.298053
658.204797	0.298563
658.409723	0.298703
658.614631	0.298977
658.819521	0.299094
659.024393	0.299392
659.229246	0.299660
659.434081	0.299962
659.638898	0.299748
659.843697	0.299959
660.048478	0.299978
660.253240	0.300111
660.457984	0.300349
660.662710	0.300580
660.867417	0.300617
661.072107	0.300850
661.276778	0.300853
661.481431	0.301128
661.686066	0.301185
661.890682	0.301466
662.095281	0.301676
662.299861	0.301694
662.504422	0.301642
662.708966	0.301797
662.913491	0.301937
663.117999	0.302222
663.322488	0.302736
663.526958	0.302954
663.731411	0.302887
663.935845	0.302961
664.140261	0.303386
664.344659	0.303456
664.549038	0.303615
664.753400	0.303714
664.957743	0.303852
665.162068	0.303898
665.366375	0.304099
665.570663	0.304303
665.774933	0.304621
665.979185	0.304708
666.183419	0.305298
666.387635	0.305583
666.591832	0.306076
666.796011	0.306275
667.000172	0.306355
667.204315	0.306507
667.408439	0.306838
667.612545	0.306915
667.816634	0.307252
668.020703	0.307407
668.224755	0.307675
668.428788	0.307644
668.632803	0.308011
668.836800	0.308104
669.040779	0.308429
669.244739	0.308721
669.448681	0.308805
669.652605	0.308992
669.856511	0.308773
670.060399	0.309026
670.264268	0.309254
670.468119	0.309310
670.671952	0.309739
670.875767	0.309927
671.079563	0.309801
671.283341	0.310016
671.487101	0.310080
671.690843	0.310524
671.894567	0.310546
672.098272	0.310693
672.301959	0.310973
672.505628	0.310897
672.709278	0.311241
672.912911	0.311477
673.116525	0.311862
673.320121	0.311920
673.523699	0.312269
673.727258	0.312627
673.930799	0.312890
674.134322	0.312855
674.337827	0.312908
674.541314	0.312989
674.744782	0.313439
674.948232	0.313896
675.151664	0.314166
675.355078	0.314249
675.558474	0.314369
675.761851	0.314537
675.965210	0.315106
676.168551	0.315364
676.371873	0.315525
676.575178	0.315793
676.778464	0.315540
676.981732	0.315648
677.184981	0.315857
677.388213	0.315905
677.591426	0.316206
677.794621	0.316384
677.997798	0.316621
678.200956	0.316556
678.404097	0.316633
678.607219	0.316978
678.810323	0.317122
679.013408	0.317465
679.216476	0.317583
679.419525	0.317689
679.622556	0.317846
679.825569	0.318359
680.028563	0.318876
680.231540	0.318999
680.434498	0.319309
680.637438	0.319747
680.840359	0.319506
681.043263	0.319777
681.246148	0.319882
681.449015	0.319911
681.651864	0.319883
681.854694	0.320089
682.057506	0.320320
682.260301	0.320420
682.463076	0.320544
682.665834	0.321018
682.868573	0.321406
683.071295	0.321545
683.273998	0.321486
683.476682	0.321812
683.679349	0.321913
683.881997	0.322080
684.084627	0.322120
684.287239	0.322051
684.489833	0.322150
684.692408	0.321956
684.894965	0.322281
685.097504	0.322663
685.300025	0.322987
685.502527	0.323135
685.705012	0.322946
685.907478	0.323190
686.109925	0.323348
686.312355	0.323535
686.514766	0.324033
686.717159	0.323950
686.919534	0.324096
687.121891	0.323866
687.324230	0.323999
687.526550	0.324345
687.728852	0.324647
687.931136	0.324820
688.133401	0.324914
688.335649	0.325066
688.537878	0.325454
688.740089	0.325819
688.942281	0.325950
689.144456	0.326161
689.346612	0.326393
689.548750	0.326611
689.750870	0.326914
689.952971	0.327134
690.155055	0.327325
690.357120	0.327423
690.559167	0.327284
690.761195	0.327630
690.963206	0.327663
691.165198	0.327891
691.367172	0.327630
691.569128	0.327733
691.771065	0.327982
691.972984	0.328222
692.174885	0.328592
692.376768	0.328767
692.578633	0.329004
692.780479	0.329334
692.982308	0.329603
693.184118	0.330036
693.385909	0.330152
693.587683	0.330067
693.789438	0.330176
693.991175	0.330248
694.192894	0.330389
694.394595	0.330240
694.596277	0.330231
694.797941	0.330303
694.999587	0.330324
695.201215	0.330354
695.402824	0.330596
695.604416	0.330375
695.805989	0.330333
696.007543	0.330534
696.209080	0.330643
696.410598	0.330677
696.612099	0.330687
696.813580	0.330796
697.015044	0.330904
697.216490	0.330857
697.417917	0.331180
697.619326	0.331443
697.820717	0.331524
698.022089	0.331805
698.223444	0.332010
698.424780	0.332148
698.626098	0.332531
698.827397	0.332812
699.028679	0.333148
699.229942	0.333027
699.431187	0.332982
699.632414	0.333078
699.833622	0.333256
700.034813	0.333230
700.235985	0.333415
700.437139	0.333377
700.638274	0.333574
700.839392	0.333775
701.040491	0.334374
701.241572	0.334830
701.442635	0.335214
701.643679	0.335452
701.844706	0.335658
702.045714	0.335641
702.246704	0.335564
702.447675	0.335508
702.648629	0.335516
702.849564	0.335190
703.050481	0.334993
703.251380	0.335014
703.452260	0.334981
703.653122	0.335057
703.853966	0.335042
704.054792	0.335222
704.255600	0.335542
704.456389	0.335466
704.657160	0.335571
704.857913	0.335457
705.058648	0.335420
705.259365	0.335408
705.460063	0.335346
705.660743	0.335580
705.861405	0.335797
706.062048	0.335711
706.262674	0.335704
706.463281	0.335848
706.663870	0.335762
706.864441	0.335464
707.064993	0.335438
707.265527	0.335566
707.466043	0.335683
707.666541	0.335582
707.867021	0.335674
708.067482	0.335630
708.267925	0.335679
708.468350	0.336142
708.668757	0.336465
708.869145	0.336537
709.069516	0.336331
709.269868	0.336262
709.470201	0.336226
709.670517	0.336349
709.870814	0.336824
710.071093	0.337092
710.271354	0.336970
710.471597	0.337071
710.671821	0.337360
710.872028	0.337682
711.072216	0.337808
711.272385	0.337781
711.472537	0.337717
711.672670	0.337549
711.872785	0.337451
712.072882	0.337488
712.272961	0.337394
712.473021	0.337270
712.673063	0.337096
712.873087	0.337011
713.073093	0.337232
713.273081	0.337167
713.473050	0.337356
713.673001	0.337157
713.872934	0.337175
714.072849	0.337213
714.272745	0.337298
714.472623	0.337295
714.672483	0.337312
714.872325	0.337196
715.072148	0.336951
715.271954	0.336887
715.471741	0.336973
715.671509	0.336838
715.871260	0.336786
716.070992	0.336403
716.270707	0.336511
716.470403	0.336493
716.670080	0.336423
716.869740	0.336425
717.069381	0.336210
717.269004	0.336146
717.468609	0.336047
717.668195	0.335907
717.867764	0.335938
718.067314	0.335769
718.266846	0.335801
718.466360	0.335702
718.665855	0.335766
718.865332	0.335682
719.064791	0.335624
719.264232	0.335731
719.463655	0.335870
719.663059	0.335865
719.862445	0.336044
720.061813	0.335769
720.261163	0.335757
720.460494	0.335765
720.659807	0.335832
720.859102	0.335941
721.058379	0.335660
721.257638	0.335527
721.456878	0.335311
721.656100	0.335091
721.855304	0.334790
722.054490	0.334817
722.253657	0.334590
722.452806	0.334275
722.651937	0.333929
722.851050	0.334056
723.050145	0.333919
723.249221	0.333884
723.448279	0.333639
723.647319	0.333808
723.846340	0.333597
724.045344	0.333636
724.244329	0.333749
724.443296	0.333654
724.642245	0.333381
724.841175	0.333467
725.040088	0.333489
725.238982	0.333819
725.437857	0.333730
725.636715	0.333636
725.835554	0.333384
726.034376	0.333310
726.233179	0.333245
726.431963	0.333265
726.630730	0.333175
726.829478	0.333105
727.028208	0.332878
727.226920	0.332558
727.425614	0.332444
727.624289	0.332534
727.822946	0.332342
728.021585	0.332079
728.220206	0.331800
728.418808	0.331404
728.617392	0.331518
728.815958	0.331276
729.014506	0.331382
729.213036	0.331361
729.411547	0.331272
729.610040	0.331456
729.808515	0.331600
730.006972	0.331641
730.205410	0.331589
730.403831	0.331192
730.602233	0.331199
730.800616	0.330934
730.998982	0.330687
731.197329	0.330604
731.395658	0.330304
731.593969	0.330079
731.792262	0.329922
731.990536	0.329568
732.188793	0.329395
732.387031	0.329024
732.585250	0.328965
732.783452	0.328844
732.981635	0.328335
733.179800	0.327883
733.377947	0.327592
733.576076	0.327506
733.774186	0.327752
733.972278	0.327850
734.170352	0.327740
734.368408	0.327655
734.566446	0.327593
734.764465	0.327732
734.962466	0.327509
735.160449	0.327570
735.358413	0.327498
735.556360	0.327246
735.754288	0.326860
735.952198	0.326814
736.150090	0.326614
736.347963	0.326228
736.545818	0.326129
736.743655	0.326157
736.941474	0.325584
737.139275	0.325134
737.337057	0.324711
737.534821	0.324478
737.732567	0.324126
737.930295	0.323725
738.128005	0.323883
738.325696	0.323391
738.523369	0.323170
738.721024	0.323340
738.918660	0.323286
739.116279	0.323159
739.313879	0.323145
739.511461	0.323193
739.709024	0.323175
739.906570	0.322857
740.104097	0.322825
740.301606	0.322843
740.499097	0.322747
740.696569	0.322487
740.894024	0.322578
741.091460	0.322121
741.288878	0.321873
741.486277	0.321922
741.683659	0.321689
741.881022	0.321733
742.078367	0.321518
742.275694	0.321136
742.473002	0.321049
742.670293	0.320887
742.867565	0.320872
743.064819	0.320468
743.262054	0.319925
743.459272	0.319807
743.656471	0.319514
743.853652	0.319478
744.050815	0.319541
744.247959	0.319317
744.445085	0.318872
744.642194	0.318762
744.839283	0.318752
745.036355	0.318730
745.233408	0.318684
745.430444	0.318469
745.627461	0.318279
745.824459	0.317840
746.021440	0.317522
746.218402	0.317545
746.415346	0.317286
746.612272	0.317092
746.809180	0.317112
747.006069	0.316856
747.202940	0.316719
747.399793	0.316483
747.596628	0.316557
747.793444	0.316668
747.990243	0.316610
748.187023	0.316542
748.383784	0.316557
748.580528	0.316447
748.777253	0.316452
748.973960	0.316249
749.170649	0.315941
749.367320	0.315781
749.563973	0.315414
749.760607	0.315132
749.957223	0.315095
750.153821	0.314754
750.350400	0.314258
750.546962	0.313991
750.743505	0.313857
750.940030	0.313869
751.136536	0.313717
751.333025	0.313505
751.529495	0.313279
751.725947	0.312930
751.922381	0.313062
752.118796	0.313102
752.315194	0.313158
752.511573	0.313145
752.707934	0.312876
752.904276	0.312583
753.100601	0.312804
753.296907	0.312429
753.493195	0.312558
753.689465	0.312431
753.885716	0.312299
754.081949	0.311797
754.278164	0.311596
754.474361	0.311461
754.670540	0.311210
754.866700	0.310788
755.062843	0.310875
755.258967	0.310491
755.455072	0.310176
755.651160	0.310250
755.847229	0.310481
756.043280	0.310231
756.239313	0.310161
756.435328	0.310196
756.631324	0.310140
756.827302	0.310396
757.023262	0.310214
757.219204	0.310093
757.415127	0.309767
757.611033	0.309297
757.806920	0.309287
758.002788	0.308892
758.198639	0.308485
758.394471	0.308185
758.590286	0.307755
758.786081	0.307701
758.981859	0.307679
759.177619	0.307248
759.373360	0.307014
759.569083	0.306885
759.764788	0.306952
759.960474	0.307017
760.156143	0.306912
760.351793	0.306600
760.547425	0.306327
760.743038	0.306074
760.938634	0.306102
761.134211	0.306112
761.329770	0.305729
761.525311	0.305454
761.720833	0.305470
761.916338	0.305630
762.111824	0.305590
762.307292	0.305602
762.502741	0.305481
762.698173	0.305562
762.893586	0.305571
763.088981	0.305754
763.284358	0.305795
763.479716	0.305473
763.675057	0.305027
763.870379	0.304864
764.065683	0.304628
764.260968	0.304271
764.456236	0.304001
764.651485	0.303743
764.846716	0.303382
765.041929	0.303149
765.237123	0.302962
765.432299	0.302890
765.627457	0.302740
765.822597	0.302617
766.017719	0.302466
766.212822	0.302218
766.407907	0.301999
766.602974	0.301901
766.798023	0.301841
766.993054	0.301915
767.188066	0.301912
767.383060	0.301700
767.578036	0.301601
767.772993	0.301440
767.967933	0.301617
768.162854	0.301416
768.357757	0.301197
768.552642	0.300952
768.747508	0.300964
768.942356	0.300950
769.137186	0.301027
769.331998	0.301162
769.526792	0.301497
769.721567	0.301329
769.916324	0.301426
770.111063	0.301585
770.305784	0.301694
770.500486	0.301431
770.695171	0.301259
770.889837	0.301285
771.084484	0.301014
771.279114	0.300769
771.473725	0.300382
771.668318	0.300237
771.862893	0.299727
772.057450	0.299323
772.251988	0.299384
772.446509	0.299314
772.641011	0.299228
772.835494	0.299089
773.029960	0.298809
773.224407	0.298959
773.418836	0.299029
773.613247	0.299335
773.807640	0.299318
774.002014	0.298953
774.196370	0.298843
774.390708	0.298366
774.585028	0.298286
774.779330	0.298209
774.973613	0.298057
775.167878	0.298016
775.362125	0.297804
775.556354	0.298008
775.750564	0.298020
775.944756	0.297904
776.138930	0.298022
776.333086	0.297870
776.527223	0.298066
776.721343	0.298126
776.915444	0.297768
777.109526	0.297813
777.303591	0.297405
777.497637	0.297145
777.691666	0.297174
777.885676	0.297104
778.079667	0.297252
778.273641	0.297192
778.467596	0.297268
778.661533	0.297362
778.855452	0.297295
779.049352	0.297640
779.243235	0.297507
779.437099	0.297463
779.630945	0.297522
779.824773	0.297703
780.018582	0.297799
780.212373	0.297661
780.406146	0.297723
780.599901	0.297906
780.793638	0.298001
780.987356	0.298472
781.181056	0.298645
781.374738	0.298709
781.568402	0.298582
781.762047	0.298908
781.955674	0.299194
782.149283	0.299496
782.342874	0.299540
782.536447	0.299252
782.730001	0.299278
782.923537	0.299123
783.117055	0.299424
783.310555	0.299645
783.504036	0.299397
783.697499	0.299213
783.890944	0.298898
784.084371	0.298920
784.277780	0.298892
784.471170	0.298982
784.664542	0.298980
784.857896	0.298902
785.051231	0.298684
785.244549	0.298700
785.437848	0.298656
785.631129	0.298856
785.824392	0.299137
786.017636	0.299532
786.210863	0.299359
786.404071	0.299440
786.597260	0.299369
786.790432	0.299544
786.983585	0.299678
787.176721	0.299619
787.369838	0.299399
787.562936	0.298933
787.756017	0.298581
787.949079	0.298661
788.142123	0.298613
788.335149	0.298634
788.528156	0.298352
788.721146	0.298251
788.914117	0.298393
789.107070	0.298691
789.300005	0.298822
789.492921	0.299102
789.685819	0.299061
789.878699	0.298961
790.071561	0.299122
790.264405	0.299300
790.457230	0.299127
790.650037	0.299359
790.842826	0.299258
791.035597	0.299298
791.228349	0.299265
791.421084	0.299523
791.613800	0.299969
791.806497	0.300035
791.999177	0.300118
792.191838	0.300326
792.384481	0.300294
792.577106	0.300345
792.769713	0.300639
792.962301	0.300958
793.154871	0.300865
793.347423	0.300784
793.539957	0.300834
793.732473	0.301122
793.924970	0.301078
794.117449	0.301123
794.309910	0.301236
794.502353	0.301115
794.694777	0.300968
794.887183	0.301312
795.079571	0.301453
795.271941	0.301471
795.464293	0.301532
795.656626	0.301621
795.848941	0.301682
796.041238	0.301838
796.233516	0.302088
796.425777	0.302161
796.618019	0.302017
796.810243	0.302033
797.002449	0.302280
797.194636	0.302079
797.386805	0.302339
797.578956	0.302254
797.771089	0.302274
797.963204	0.302192
798.155300	0.302603
798.347378	0.302717
798.539438	0.302835
798.731480	0.302960
798.923503	0.303387
799.115509	0.303306
799.307496	0.303844
799.499465	0.304113
799.691415	0.304343
799.883348	0.304598
800.075262	0.304636
800.267158	0.304901
800.459035	0.304882
800.650895	0.304850
800.842736	0.305448
801.034559	0.305648
801.226364	0.306024
801.418150	0.306338
801.609919	0.306392
801.801669	0.306868
801.993401	0.307151
802.185114	0.307545
802.376810	0.307891
802.568487	0.307990
802.760146	0.308009
802.951787	0.308104
803.143409	0.308202
803.335014	0.308150
803.526600	0.308442
803.718168	0.308469
803.909717	0.308547
804.101249	0.308667
804.292762	0.308595
804.484257	0.308760
804.675734	0.308734
804.867192	0.308875
805.058632	0.309040
805.250054	0.309137
805.441458	0.309305
805.632844	0.309522
805.824211	0.309851
806.015561	0.310251
806.206891	0.310263
806.398204	0.310362
806.589499	0.310640
806.780775	0.310953
806.972033	0.311247
807.163273	0.311748
807.354495	0.311891
807.545698	0.312089
807.736883	0.312701
807.928050	0.313170
808.119199	0.313666
808.310329	0.313785
808.501441	0.314301
808.692535	0.314449
808.883611	0.314771
809.074669	0.315235
809.265708	0.315648
809.456729	0.315656
809.647732	0.315874
809.838717	0.316048
810.029683	0.316590
810.220632	0.316775
810.411562	0.317105
810.602474	0.317309
810.793367	0.317616
810.984242	0.317783
811.175100	0.318019
811.365938	0.318412
811.556759	0.318684
811.747562	0.318797
811.938346	0.319106
812.129112	0.319215
812.319860	0.319346
812.510589	0.319306
812.701300	0.319379
812.891994	0.319439
813.082668	0.319585
813.273325	0.319780
813.463964	0.320119
813.654584	0.320141
813.845186	0.320321
814.035769	0.320549
814.226335	0.320966
814.416882	0.321192
814.607411	0.321406
814.797922	0.321792
814.988415	0.322083
815.178889	0.322248
815.369345	0.322523
815.559783	0.323017
815.750203	0.323509
815.940605	0.323835
816.130988	0.324347
816.321353	0.324791
816.511700	0.324916
816.702028	0.325351
816.892339	0.325692
817.082631	0.325960
817.272905	0.325962
817.463161	0.326000
817.653398	0.326117
817.843617	0.326311
818.033819	0.326732
818.224001	0.326785
818.414166	0.326839
818.604312	0.326888
818.794440	0.327146
818.984550	0.327678
819.174642	0.327815
819.364716	0.328308
819.554771	0.328486
819.744808	0.328436
819.934827	0.328749
820.124827	0.329360
820.314810	0.329402
820.504774	0.329807
820.694720	0.329997
820.884647	0.330657
821.074557	0.330880
821.264448	0.331260
821.454321	0.331546
821.644176	0.332214
821.834012	0.332549
822.023831	0.333057
822.213631	0.333239
822.403413	0.333446
822.593176	0.333439
822.782922	0.333858
822.972649	0.333868
823.162358	0.334548
823.352049	0.334893
823.541721	0.335041
823.731376	0.335719
823.921012	0.336039
824.110629	0.336868
824.300229	0.337266
824.489811	0.337562
824.679374	0.338237
824.868919	0.338527
825.058445	0.338623
825.247954	0.338949
825.437444	0.339157
825.626916	0.339630
825.816370	0.339406
826.005806	0.339853
826.195223	0.339654
826.384622	0.339769
826.574003	0.340177
826.763366	0.340319
826.952711	0.340439
827.142037	0.340755
827.331345	0.341232
827.520635	0.341826
827.709906	0.341964
827.899160	0.342867
828.088395	0.343028
828.277612	0.342995
828.466810	0.343749
828.655991	0.344192
828.845153	0.344530
829.034297	0.344536
829.223423	0.344845
829.412531	0.345120
829.601620	0.345443
829.790691	0.346286
829.979744	0.346949
830.168779	0.347158
830.357795	0.347479
830.546793	0.347953
830.735773	0.348523
830.924735	0.348903
831.113679	0.349568
831.302604	0.349778
831.491511	0.349823
831.680400	0.350107
831.869271	0.350423
832.058123	0.350901
832.246957	0.351504
832.435773	0.351783
832.624571	0.352312
832.813351	0.352453
833.002112	0.353188
833.190855	0.353842
833.379580	0.354080
833.568287	0.354370
833.756975	0.354712
833.945645	0.354641
834.134297	0.354895
834.322931	0.355007
834.511547	0.355597
834.700144	0.355577
834.888723	0.355963
835.077284	0.356310
835.265826	0.357145
835.454351	0.357698
835.642857	0.358251
835.831345	0.358726
836.019815	0.359073
836.208266	0.359380
836.396699	0.359797
836.585114	0.359873
836.773511	0.360523
836.961890	0.360734
837.150250	0.361096
837.338592	0.361170
837.526916	0.361310
837.715222	0.361814
837.903510	0.362286
838.091779	0.362681
838.280030	0.363419
838.468263	0.363752
838.656477	0.364148
838.844674	0.364643
839.032852	0.365205
839.221012	0.365735
839.409153	0.366146
839.597277	0.366493
839.785382	0.366797
839.973469	0.367361
840.161538	0.367880
840.349589	0.368180
840.537621	0.368184
840.725635	0.368651
840.913631	0.369213
841.101609	0.369401
841.289568	0.369781
841.477509	0.370515
841.665432	0.370418
841.853337	0.370677
842.041224	0.371067
842.229092	0.371695
842.416942	0.372154
842.604774	0.372299
842.792588	0.372981
842.980383	0.373470
843.168160	0.373558
843.355919	0.373890
843.543660	0.374342
843.731382	0.374834
843.919087	0.375462
844.106773	0.375917
844.294441	0.376405
844.482090	0.376932
844.669722	0.377218
844.857335	0.377557
845.044930	0.378407
845.232507	0.378778
845.420065	0.379498
845.607605	0.379847
845.795127	0.379956
845.982631	0.380542
846.170117	0.380762
846.357584	0.381231
846.545033	0.381841
846.732464	0.382342
846.919877	0.382626
847.107272	0.382712
847.294648	0.383083
847.482006	0.384074
847.669346	0.384435
847.856667	0.384850
848.043971	0.385346
848.231256	0.385896
848.418523	0.386183
848.605771	0.386806
848.793002	0.387378
848.980214	0.387733
849.167408	0.387977
849.354584	0.388718
849.541742	0.388930
849.728881	0.389423
849.916002	0.389882
850.103105	0.390388
850.290190	0.390678
850.477256	0.391023
850.664304	0.391413
850.851334	0.391805
851.038346	0.391947
851.225340	0.392532
851.412315	0.392902
851.599272	0.392609
851.786211	0.392566
851.973132	0.392993
852.160034	0.393155
852.346918	0.393649
852.533784	0.393928
852.720632	0.394634
852.907462	0.395398
853.094273	0.395665
853.281066	0.396615
853.467841	0.397323
853.654598	0.397922
853.841336	0.398484
854.028056	0.399238
854.214758	0.399289
854.401442	0.399299
854.588107	0.399390
854.774755	0.399421
854.961384	0.400205
855.147995	0.400507
855.334587	0.400820
855.521162	0.401639
855.707718	0.401378
855.894256	0.402116
856.080775	0.402872
856.267277	0.403273
856.453760	0.404094
856.640225	0.403756
856.826672	0.404243
857.013101	0.404250
857.199511	0.403987
857.385903	0.404286
857.572277	0.404559
857.758633	0.404620
857.944970	0.405016
858.131290	0.405248
858.317591	0.405790
858.503873	0.405771
858.690138	0.406413
858.876384	0.406793
859.062612	0.407852
859.248822	0.408364
859.435014	0.409019
859.621188	0.409584
859.807343	0.410016
859.993480	0.410773
860.179599	0.411548
860.365699	0.412117
860.551781	0.412778
860.737846	0.412659
860.923891	0.412933
861.109919	0.413110
861.295929	0.413363
861.481920	0.414030
861.667893	0.414044
861.853848	0.414291
862.039784	0.414525
862.225702	0.414513
862.411603	0.414764
862.597484	0.415266
862.783348	0.415500
862.969193	0.415501
863.155021	0.415623
863.340830	0.416033
863.526620	0.416184
863.712393	0.416258
863.898147	0.416688
864.083883	0.417281
864.269601	0.417402
864.455301	0.417898
864.640982	0.418460
864.826645	0.418797
865.012290	0.419399
865.197917	0.419789
865.383526	0.420360
865.569116	0.420902
865.754688	0.420813
865.940242	0.421090
866.125777	0.421074
866.311295	0.421425
866.496794	0.421780
866.682275	0.421785
866.867737	0.422429
867.053182	0.422576
867.238608	0.422820
867.424016	0.422977
867.609406	0.423491
867.794778	0.424163
867.980131	0.424302
868.165466	0.424614
868.350783	0.424972
868.536082	0.425046
868.721362	0.425696
868.906625	0.426106
869.091869	0.426586
869.277094	0.426875
869.462302	0.426763
869.647491	0.426987
869.832662	0.427154
870.017815	0.427249
870.202950	0.427942
870.388066	0.427801
870.573165	0.427621
870.758245	0.427909
870.943306	0.428389
871.128350	0.428660
871.313375	0.428957
871.498382	0.428934
871.683371	0.429435
871.868342	0.429386
872.053294	0.429750
872.238229	0.429891
872.423144	0.430309
872.608042	0.429673
872.792922	0.430149
872.977783	0.430538
873.162626	0.431122
873.347451	0.430830
873.532258	0.430453
873.717046	0.429723
873.901816	0.429948
874.086568	0.429881
874.271302	0.430466
874.456017	0.430487
874.640715	0.430636
874.825394	0.430257
875.010055	0.430410
875.194697	0.430895
875.379322	0.431909
875.563928	0.432040
875.748516	0.432365
875.933085	0.432816
876.117637	0.433273
876.302170	0.433236
876.486685	0.433960
876.671182	0.434676
876.855661	0.434621
877.040121	0.434350
877.224563	0.435053
877.408987	0.434833
877.593393	0.434779
877.777780	0.434848
877.962150	0.435243
878.146501	0.435658
878.330833	0.435510
878.515148	0.436213
878.699444	0.437190
878.883722	0.437373
879.067982	0.438025
879.252224	0.438037
879.436447	0.438312
879.620653	0.438872
879.804840	0.438482
879.989008	0.438589
880.173159	0.438490
880.357291	0.438307
880.541405	0.438698
880.725501	0.438997
880.909579	0.439385
881.093638	0.439764
881.277680	0.439368
881.461703	0.439626
881.645707	0.439518
881.829694	0.439883
882.013662	0.439552
882.197612	0.439396
882.381544	0.439505
882.565458	0.439287
882.749353	0.439452
882.933230	0.439727
883.117089	0.439859
883.300930	0.440022
883.484753	0.440047
883.668557	0.440494
883.852343	0.440413
884.036111	0.440521
884.219861	0.440884
884.403592	0.440639
884.587305	0.440560
884.771000	0.440525
884.954677	0.440708
885.138335	0.440448
885.321976	0.440166
885.505598	0.440536
885.689201	0.440412
885.872787	0.440188
886.056354	0.439896
886.239904	0.440064
886.423434	0.439805
886.606947	0.439955
886.790442	0.439959
886.973918	0.440650
887.157376	0.439907
887.340816	0.439609
887.524237	0.439950
887.707641	0.439882
887.891026	0.440060
888.074393	0.440373
888.257741	0.440026
888.441072	0.440319
888.624384	0.440161
888.807678	0.440312
888.990954	0.440744
889.174211	0.440717
889.357451	0.440427
889.540672	0.439760
889.723875	0.439732
889.907059	0.439811
890.090226	0.439948
890.273374	0.440347
890.456504	0.440700
890.639616	0.440219
890.822709	0.440093
891.005785	0.440354
891.188842	0.440463
891.371881	0.440245
891.554901	0.440386
891.737904	0.439823
891.920888	0.439005
892.103854	0.438752
892.286802	0.439083
892.469731	0.438606
892.652643	0.438871
892.835536	0.438817
893.018410	0.439187
893.201267	0.439571
893.384106	0.439834
893.566926	0.439729
893.749728	0.440122
893.932511	0.439770
894.115277	0.439891
894.298024	0.439461
894.480753	0.439754
894.663464	0.439703
894.846157	0.439178
895.028831	0.438984
895.211487	0.439054
895.394125	0.438581
895.576745	0.439179
895.759346	0.439008
895.941930	0.438745
896.124495	0.437939
896.307041	0.437593
896.489570	0.437828
896.672080	0.437368
896.854573	0.436821
897.037046	0.436694
897.219502	0.435912
897.401940	0.436114
897.584359	0.435673
897.766760	0.435456
897.949143	0.435073
898.131507	0.434791
898.313854	0.434596
898.496182	0.434563
898.678492	0.434330
898.860783	0.433850
899.043057	0.433317
899.225312	0.433933
899.407549	0.433939
899.589768	0.433912
899.771968	0.433323
899.954151	0.433096
900.136315	0.432844
900.318461	0.432663
900.500588	0.432420
900.682698	0.432109
900.864789	0.431300
901.046862	0.431514
901.228917	0.430935
901.410953	0.430860
901.592971	0.430596
901.774972	0.430602
901.956953	0.430155
902.138917	0.430382
902.320862	0.430501
902.502790	0.430801
902.684699	0.429957
902.866589	0.429863
903.048462	0.429160
903.230316	0.429019
903.412152	0.428019
903.593970	0.427635
903.775770	0.426988
903.957551	0.426352
904.139314	0.425581
904.321059	0.425294
904.502786	0.424782
904.684494	0.424873
904.866185	0.424647
905.047857	0.424932
905.229510	0.424981
905.411146	0.424552
905.592763	0.424049
905.774363	0.424075
905.955943	0.423382
906.137506	0.422988
906.319051	0.422349
906.500577	0.421683
906.682085	0.421113
906.863575	0.419597
907.045046	0.419091
907.226500	0.418942
907.407935	0.418015
907.589352	0.417621
907.770750	0.417254
907.952131	0.417017
908.133493	0.416250
908.314837	0.416122
908.496163	0.415953
908.677470	0.415671
908.858760	0.414530
909.040031	0.414915
909.221284	0.415611
909.402518	0.415066
909.583735	0.414186
909.764933	0.414076
909.946113	0.413538
910.127275	0.413422
910.308418	0.413364
910.489544	0.413342
910.670651	0.412026
910.851740	0.411287
911.032810	0.410987
911.213863	0.410574
911.394897	0.410788
911.575913	0.410173
911.756911	0.409116
911.937890	0.407811
912.118851	0.406931
912.299794	0.406533
912.480719	0.405928
912.661626	0.405527
912.842514	0.405318
913.023384	0.404269
913.204236	0.403426
913.385070	0.402931
913.565886	0.402995
913.746683	0.403020
913.927462	0.402504
914.108223	0.401586
914.288965	0.400623
914.469690	0.399823
914.650396	0.399096
914.831084	0.398449
915.011754	0.398103
915.192405	0.397057
915.373038	0.396059
915.553653	0.395186
915.734250	0.394351
915.914829	0.393819
916.095389	0.393201
916.275931	0.391999
916.456455	0.391484
916.636961	0.390103
916.817448	0.389306
916.997917	0.388938
917.178368	0.388705
917.358801	0.388398
917.539216	0.387680
917.719612	0.386930
917.899990	0.386728
918.080350	0.385884
918.260692	0.386694
918.441015	0.386760
918.621320	0.385793
918.801607	0.384779
918.981876	0.383698
919.162127	0.382940
919.342359	0.382260
919.522573	0.381575
919.702769	0.381377
919.882947	0.379394
920.063106	0.377908
920.243247	0.377381
920.423370	0.376719
920.603475	0.376260
920.783562	0.374907
920.963630	0.374505
921.143680	0.373640
921.323712	0.372341
921.503725	0.372117
921.683721	0.371733
921.863698	0.371033
922.043657	0.370505
922.223598	0.369981
922.403520	0.370499
922.583424	0.369455
922.763311	0.368744
922.943178	0.368418
923.123028	0.368164
923.302859	0.367361
923.482673	0.366409
923.662467	0.365196
923.842244	0.364530
924.022003	0.363327
924.201743	0.362322
924.381465	0.361311
924.561169	0.360119
924.740854	0.358957
924.920522	0.358222
925.100171	0.356987
925.279802	0.356448
925.459414	0.354700
925.639009	0.354198
925.818585	0.353585
925.998143	0.353267
926.177683	0.352251
926.357205	0.351206
926.536708	0.350635
926.716193	0.350146
926.895660	0.348900
927.075109	0.348525
927.254539	0.347334
927.433951	0.346928
927.613345	0.345722
927.792721	0.344840
927.972079	0.343749
928.151418	0.342130
928.330739	0.341651
928.510042	0.341231
928.689327	0.340095
928.868593	0.339568
929.047841	0.337909
929.227071	0.336985
929.406283	0.335762
929.585476	0.335462
929.764652	0.335401
929.943809	0.334015
930.122948	0.332850
930.302068	0.332243
930.481171	0.331350
930.660255	0.330922
930.839321	0.329763
931.018369	0.330338
931.197398	0.328652
931.376409	0.326905
931.555402	0.326786
931.734377	0.325557
931.913334	0.324696
932.092272	0.323623
932.271192	0.321804
932.450094	0.321354
932.628978	0.318886
932.807844	0.319200
932.986691	0.318331
933.165520	0.316472
933.344331	0.315794
933.523123	0.314241
933.701898	0.312881
933.880654	0.312928
934.059392	0.310786
934.238111	0.310620
934.416813	0.309202
934.595496	0.309289
934.774161	0.308652
934.952808	0.307959
935.131437	0.307383
935.310047	0.305953
935.488639	0.304289
935.667213	0.304157
935.845769	0.302902
936.024306	0.301169
936.202825	0.299708
936.381326	0.298854
936.559809	0.297334
936.738274	0.295727
936.916720	0.295029
937.095148	0.293640
937.273558	0.292135
937.451950	0.290945
937.630323	0.289634
937.808678	0.288135
937.987015	0.286494
938.165334	0.285039
938.343635	0.285320
938.521917	0.283708
938.700181	0.282877
938.878427	0.282557
939.056655	0.282024
939.234864	0.281863
939.413055	0.280560
939.591228	0.279419
939.769383	0.278790
939.947519	0.277180
940.125638	0.276057
940.303738	0.275977
940.481820	0.273884
940.659883	0.273383
940.837929	0.271171
941.015956	0.270527
941.193965	0.269849
941.371955	0.268490
941.549928	0.266348
941.727882	0.265916
941.905818	0.264069
942.083736	0.264214
942.261636	0.261479
942.439517	0.261204
942.617380	0.259203
942.795225	0.258508
942.973052	0.257977
943.150860	0.256276
943.328651	0.254935
943.506423	0.253723
943.684176	0.253217
943.861912	0.252352
944.039629	0.252247
944.217328	0.252460
944.395009	0.250329
944.572672	0.249349
944.750317	0.249412
944.927943	0.248516
945.105551	0.247300
945.283141	0.244883
945.460712	0.243461
945.638265	0.242194
945.815801	0.239853
945.993317	0.239254
946.170816	0.238209
946.348297	0.235668
946.525759	0.233411
946.703203	0.230354
946.880629	0.229569
947.058036	0.228830
947.235425	0.226444
947.412797	0.224809
947.590149	0.224127
947.767484	0.221805
947.944800	0.220792
948.122099	0.220279
948.299379	0.220985
948.476640	0.219105
948.653884	0.217512
948.831109	0.215726
949.008316	0.216068
949.185505	0.214588
949.362676	0.214146
949.539828	0.213825
949.716962	0.213080
949.894078	0.211024
950.071176	0.210084
950.248256	0.209896
950.425317	0.209508
950.602360	0.206856
950.779385	0.205553
950.956391	0.204433
951.133380	0.203453
951.310350	0.201728
951.487302	0.201506
951.664235	0.200322
951.841151	0.198447
952.018048	0.199349
952.194927	0.199166
952.371788	0.197041
952.548631	0.195890
952.725455	0.194864
952.902261	0.195063
953.079049	0.193923
953.255819	0.193356
953.432570	0.191239
953.609303	0.187245
953.786018	0.185025
953.962715	0.185004
954.139394	0.184611
954.316054	0.185150
954.492696	0.184139
954.669320	0.184806
954.845926	0.183180
955.022513	0.184910
955.199083	0.184114
955.375634	0.183654
955.552166	0.181210
955.728681	0.178385
955.905177	0.176847
956.081655	0.176202
956.258115	0.174162
956.434557	0.174533
956.610980	0.171247
956.787385	0.170084
956.963772	0.171072
957.140141	0.171859
957.316492	0.172730
957.492824	0.169604
957.669138	0.166069
957.845434	0.165266
958.021712	0.162592
958.197971	0.162297
958.374212	0.161021
958.550435	0.158363
958.726640	0.157486
958.902826	0.155387
959.078995	0.156299
959.255145	0.157067
959.431277	0.154760
959.607390	0.155614
959.783486	0.154567
959.959563	0.154704
960.135622	0.155562
960.311662	0.153376
960.487685	0.153630
960.663689	0.152917
960.839675	0.152671
961.015643	0.153405
961.191593	0.151812
961.367524	0.152947
961.543437	0.153335
961.719332	0.153386
961.895209	0.154950
962.071067	0.154066
962.246907	0.153967
962.422730	0.151788
962.598533	0.152480
962.774319	0.154497
962.950086	0.154104
963.125835	0.155818
963.301566	0.152915
963.477279	0.150908
963.652973	0.150788
963.828650	0.149228
964.004308	0.150214
964.179947	0.148379
964.355569	0.147519
964.531172	0.148409
964.706757	0.147291
964.882324	0.145847
965.057873	0.148028
965.233403	0.146325
965.408916	0.146805
965.584410	0.145732
965.759885	0.145109
965.935343	0.145507
966.110782	0.145113
966.286203	0.144098
966.461606	0.146640
966.636991	0.144323
966.812357	0.145679
966.987705	0.146153
967.163035	0.146884
967.338347	0.145678
967.513641	0.144430
967.688916	0.143238
967.864173	0.143713
968.039412	0.140995
968.214632	0.143309
968.389835	0.143389
968.565019	0.144095
968.740185	0.144656
968.915333	0.147660
969.090462	0.147695
969.265573	0.147945
969.440667	0.146707
969.615741	0.149066
969.790798	0.148367
969.965836	0.148697
970.140856	0.147454
970.315858	0.148005
970.490842	0.148682
970.665808	0.148661
970.840755	0.149086
971.015684	0.148609
971.190595	0.147372
971.365487	0.148542
971.540362	0.149237
971.715218	0.150735
971.890056	0.148233
972.064875	0.147440
972.239677	0.146391
972.414460	0.145473
972.589225	0.146480
972.763972	0.146734
972.938700	0.145196
973.113411	0.141761
973.288103	0.140050
973.462777	0.141302
973.637432	0.140450
973.812070	0.142267
973.986689	0.143522
974.161290	0.142956
974.335873	0.144008
974.510437	0.142103
974.684984	0.144469
974.859512	0.143893
975.034022	0.143151
975.208513	0.143206
975.382987	0.143252
975.557442	0.141218
975.731879	0.140833
975.906298	0.139436
976.080698	0.140905
976.255080	0.140984
976.429445	0.141496
976.603790	0.143129
976.778118	0.142514
976.952427	0.141065
977.126719	0.141431
977.300992	0.141368
977.475246	0.143174
977.649483	0.143180
977.823701	0.144713
977.997901	0.144363
978.172083	0.144487
978.346247	0.144230
978.520392	0.144568
978.694519	0.144660
978.868628	0.143171
979.042719	0.141865
979.216791	0.142561
979.390845	0.140332
979.564882	0.142113
979.738899	0.142239
979.912899	0.141655
980.086880	0.141883
980.260843	0.141358
980.434788	0.143804
980.608715	0.144094
980.782623	0.142915
980.956514	0.142254
981.130386	0.140768
981.304240	0.140670
981.478075	0.141705
981.651892	0.140512
981.825692	0.142477
981.999472	0.141609
982.173235	0.142550
982.346980	0.140953
982.520706	0.141935
982.694414	0.140624
982.868104	0.141260
983.041775	0.140730
983.215428	0.142665
983.389064	0.141282
983.562680	0.143243
983.736279	0.142919
983.909860	0.146340
984.083422	0.147021
984.256966	0.149566
984.430491	0.148540
984.603999	0.149385
984.777488	0.147455
984.950959	0.146732
985.124412	0.146298
985.297847	0.147978
985.471263	0.146017
985.644661	0.146210
985.818041	0.146369
985.991403	0.147069
986.164747	0.146992
986.338072	0.147160
986.511379	0.149632
986.684668	0.149496
986.857938	0.149998
987.031191	0.150243
987.204425	0.151017
987.377641	0.149817
987.550839	0.149773
987.724018	0.150260
987.897179	0.149420
988.070322	0.147571
988.243447	0.145716
988.416554	0.143268
988.589642	0.143553
988.762712	0.142469
988.935764	0.143146
989.108798	0.142191
989.281813	0.141990
989.454811	0.143851
989.627790	0.143396
989.800751	0.144027
989.973693	0.143062
990.146617	0.142719
990.319524	0.143879
990.492412	0.142983
990.665281	0.142645
990.838133	0.142623
991.010966	0.143406
991.183781	0.144289
991.356578	0.144962
991.529356	0.146915
991.702117	0.146739
991.874859	0.144464
992.047583	0.145341
992.220288	0.146555
992.392976	0.146699
992.565645	0.146170
992.738296	0.147282
992.910929	0.147667
993.083543	0.148818
993.256139	0.148353
993.428718	0.149018
993.601277	0.148319
993.773819	0.148695
993.946342	0.148796
994.118848	0.149905
994.291335	0.148147
994.463803	0.148411
994.636254	0.147358
994.808686	0.147157
994.981100	0.148285
995.153496	0.149793
995.325874	0.149326
995.498233	0.150562
995.670574	0.149116
995.842897	0.150160
996.015202	0.148650
996.187488	0.147958
996.359757	0.151591
996.532007	0.148993
996.704239	0.147615
996.876452	0.147094
997.048648	0.145541
997.220825	0.145144
997.392984	0.145559
997.565124	0.146482
997.737247	0.147135
997.909351	0.145237
998.081437	0.147259
998.253505	0.147960
998.425554	0.148318
998.597586	0.149699
998.769599	0.150234
998.941594	0.148705
999.113571	0.147593
999.285529	0.147334
999.457469	0.144574
999.629391	0.144135
999.801295	0.144027
999.973181	0.143465
1000.145048	0.143130
1000.316897	0.140278
1000.488728	0.140090
1000.660541	0.140639
1000.832335	0.140842
1001.004111	0.144359
1001.175869	0.144190
1001.347609	0.142848
1001.519331	0.142366
1001.691034	0.141799
1001.862719	0.144438
1002.034386	0.146089
1002.206035	0.148265
1002.377665	0.147863
1002.549277	0.147991
1002.720871	0.148530
1002.892447	0.149689
1003.064004	0.150868
1003.235544	0.152215
1003.407065	0.152891
1003.578568	0.152562
1003.750052	0.150420
1003.921519	0.151011
1004.092967	0.150964
1004.264397	0.150721
1004.435809	0.150139
1004.607202	0.149120
1004.778577	0.146276
1004.949934	0.146023
1005.121273	0.146686
1005.292594	0.145534
1005.463896	0.145704
1005.635180	0.145216
1005.806446	0.144943
1005.977694	0.145175
1006.148923	0.145251
1006.320135	0.145398
1006.491328	0.142880
1006.662503	0.141734
1006.833659	0.143970
1007.004798	0.143922
1007.175918	0.143438
1007.347020	0.142144
1007.518103	0.142808
1007.689169	0.142865
1007.860216	0.143642
1008.031245	0.145777
1008.202256	0.145538
1008.373248	0.145167
1008.544223	0.144776
1008.715179	0.145089
1008.886117	0.145318
1009.057036	0.146831
1009.227938	0.147766
1009.398821	0.148499
1009.569686	0.147289
1009.740533	0.148070
1009.911361	0.148408
1010.082172	0.148134
1010.252964	0.147380
1010.423738	0.149336
1010.594493	0.148453
1010.765231	0.149405
1010.935950	0.149072
1011.106651	0.151604
1011.277334	0.151405
1011.447998	0.151205
1011.618645	0.151764
1011.789273	0.151481
1011.959882	0.150810
1012.130474	0.150161
1012.301048	0.149077
1012.471603	0.150474
1012.642140	0.149344
1012.812658	0.149578
1012.983159	0.150949
1013.153641	0.151102
1013.324105	0.151396
1013.494551	0.151736
1013.664979	0.150983
1013.835388	0.151354
1014.005779	0.150130
1014.176152	0.148947
1014.346507	0.148894
1014.516843	0.147559
1014.687162	0.146151
1014.857462	0.146289
1015.027744	0.145387
1015.198007	0.145521
1015.368252	0.145644
1015.538480	0.145087
1015.708689	0.147017
1015.878879	0.148007
1016.049052	0.147857
1016.219206	0.148667
1016.389342	0.148404
1016.559460	0.148680
1016.729559	0.148526
1016.899641	0.146665
1017.069704	0.147276
1017.239749	0.146893
1017.409775	0.145563
1017.579784	0.146762
1017.749774	0.146578
1017.919746	0.146485
1018.089700	0.146863
1018.259635	0.146378
1018.429553	0.148208
1018.599452	0.147703
1018.769333	0.146973
1018.939195	0.148315
1019.109040	0.147983
1019.278866	0.148359
1019.448674	0.149629
1019.618464	0.151138
1019.788235	0.151871
1019.957989	0.151783
1020.127724	0.151548
1020.297441	0.152070
1020.467139	0.150056
1020.636820	0.149063
1020.806482	0.149764
1020.976126	0.147516
1021.145752	0.147270
1021.315359	0.148047
1021.484948	0.147058
1021.654519	0.148454
1021.824072	0.149099
1021.993607	0.148980
1022.163123	0.150107
1022.332621	0.148317
1022.502101	0.150245
1022.671563	0.147768
1022.841007	0.147508
1023.010432	0.148603
1023.179839	0.148441
1023.349228	0.146544
1023.518598	0.147247
1023.687951	0.146057
1023.857285	0.147833
1024.026601	0.146289
1024.195899	0.147641
1024.365178	0.146640
1024.534439	0.147067
1024.703682	0.147380
1024.872907	0.147098
1025.042114	0.148213
1025.211302	0.147985
1025.380472	0.146051
1025.549624	0.146173
1025.718758	0.146537
1025.887873	0.147651
1026.056970	0.145926
1026.226049	0.144535
1026.395110	0.147174
1026.564153	0.146783
1026.733177	0.146251
1026.902183	0.146755
1027.071171	0.147937
1027.240141	0.147467
1027.409092	0.147107
1027.578026	0.148535
1027.746940	0.149296
1027.915837	0.149758
1028.084716	0.150125
1028.253576	0.151598
1028.422418	0.152520
1028.591242	0.152717
1028.760048	0.152557
1028.928835	0.153273
1029.097604	0.151940
1029.266355	0.153751
1029.435088	0.152117
1029.603803	0.151666
1029.772499	0.151429
1029.941177	0.151034
1030.109837	0.149803
1030.278478	0.150509
1030.447102	0.150007
1030.615707	0.150514
1030.784294	0.148297
1030.952863	0.146926
1031.121413	0.147406
1031.289945	0.147219
1031.458460	0.147195
1031.626955	0.147249
1031.795433	0.146156
1031.963892	0.144351
1032.132334	0.143987
1032.300756	0.143649
1032.469161	0.144209
1032.637548	0.144535
1032.805916	0.145994
1032.974266	0.146709
1033.142598	0.147959
1033.310911	0.148177
1033.479207	0.150532
1033.647484	0.152271
1033.815743	0.153543
1033.983983	0.154374
1034.152206	0.153450
1034.320410	0.150505
1034.488596	0.149452
1034.656764	0.147817
1034.824914	0.147401
1034.993045	0.148297
1035.161158	0.147055
1035.329253	0.145218
1035.497330	0.146073
1035.665388	0.146404
1035.833428	0.148987
1036.001450	0.149889
1036.169454	0.151102
1036.337440	0.152416
1036.505407	0.151206
1036.673356	0.151131
1036.841287	0.151084
1037.009200	0.149919
1037.177094	0.149551
1037.344970	0.147504
1037.512828	0.146456
1037.680668	0.145341
1037.848489	0.144812
1038.016293	0.144438
1038.184078	0.143954
1038.351845	0.143971
1038.519593	0.143643
1038.687324	0.143437
1038.855036	0.143774
1039.022730	0.144423
1039.190406	0.146246
1039.358063	0.146912
1039.525702	0.146808
1039.693323	0.147831
1039.860926	0.148026
1040.028511	0.148585
1040.196077	0.146699
1040.363625	0.147230
1040.531155	0.147417
1040.698667	0.145097
1040.866161	0.144423
1041.033636	0.144324
1041.201093	0.143383
1041.368532	0.145129
1041.535952	0.145785
1041.703355	0.146691
1041.870739	0.145279
1042.038105	0.143634
1042.205452	0.145177
1042.372782	0.145072
1042.540093	0.145555
1042.707386	0.145453
1042.874661	0.144550
1043.041918	0.145429
1043.209156	0.147249
1043.376376	0.148787
1043.543578	0.151197
1043.710762	0.149619
1043.877927	0.151182
1044.045074	0.148758
1044.212203	0.148837
1044.379314	0.148730
1044.546407	0.146675
1044.713481	0.145860
1044.880537	0.146976
1045.047575	0.145894
1045.214595	0.145779
1045.381596	0.143779
1045.548579	0.143333
1045.715544	0.143248
1045.882491	0.142897
1046.049420	0.144253
1046.216330	0.145906
1046.383222	0.143897
1046.550096	0.143601
1046.716951	0.145985
1046.883789	0.147229
1047.050608	0.149836
1047.217409	0.150452
1047.384192	0.151098
1047.550956	0.151615
1047.717703	0.148860
1047.884431	0.149618
1048.051140	0.150008
1048.217832	0.149329
1048.384505	0.148501
1048.551161	0.148470
1048.717798	0.148162
1048.884416	0.147064
1049.051017	0.144998
1049.217599	0.146075
1049.384163	0.143594
1049.550709	0.143985
1049.717237	0.145392
1049.883746	0.145052
1050.050237	0.144227
1050.216710	0.142010
1050.383165	0.141376
1050.549601	0.141289
1050.716019	0.139974
1050.882420	0.142517
1051.048801	0.142962
1051.215165	0.140490
1051.381510	0.140357
1051.547837	0.141742
1051.714146	0.144112
1051.880437	0.145474
1052.046709	0.144021
1052.212964	0.144664
1052.379200	0.142798
1052.545417	0.141029
1052.711617	0.141145
1052.877798	0.142990
1053.043961	0.143918
1053.210106	0.143945
1053.376233	0.142748
1053.542341	0.145811
1053.708432	0.147301
1053.874504	0.149464
1054.040557	0.150745
1054.206593	0.149989
1054.372610	0.150031
1054.538609	0.148388
1054.704590	0.150046
1054.870553	0.152923
1055.036497	0.150189
1055.202424	0.149789
1055.368331	0.149588
1055.534221	0.147144
1055.700093	0.148173
1055.865946	0.147313
1056.031781	0.145874
1056.197598	0.144970
1056.363397	0.142898
1056.529177	0.145183
1056.694939	0.143971
1056.860683	0.144229
1057.026409	0.146658
1057.192116	0.145613
1057.357806	0.144184
1057.523477	0.144903
1057.689130	0.142409
1057.854764	0.143448
1058.020381	0.141513
1058.185979	0.141903
1058.351559	0.143225
1058.517120	0.141202
1058.682664	0.143693
1058.848189	0.146913
1059.013696	0.146800
1059.179185	0.148798
1059.344656	0.147997
1059.510108	0.149397
1059.675542	0.149147
1059.840958	0.146597
1060.006356	0.149920
1060.171735	0.147990
1060.337096	0.145931
1060.502439	0.147605
1060.667764	0.146247
1060.833071	0.146125
1060.998359	0.146102
1061.163629	0.147052
1061.328881	0.147203
1061.494115	0.145776
1061.659330	0.146202
1061.824527	0.146000
1061.989706	0.145223
1062.154867	0.145039
1062.320010	0.146702
1062.485134	0.146705
1062.650240	0.148976
1062.815328	0.147873
1062.980398	0.147842
1063.145449	0.147991
1063.310482	0.148476
1063.475497	0.147361
1063.640494	0.149392
1063.805473	0.148727
1063.970433	0.149894
1064.135375	0.147188
1064.300299	0.149406
1064.465204	0.150190
1064.630092	0.149924
1064.794961	0.149315
1064.959812	0.151735
1065.124645	0.151125
1065.289459	0.151221
1065.454256	0.151055
1065.619034	0.151951
1065.783793	0.151942
1065.948535	0.152695
1066.113258	0.153722
1066.277964	0.154547
1066.442651	0.153161
1066.607319	0.153571
1066.771970	0.151953
1066.936602	0.151087
1067.101216	0.149074
1067.265812	0.148926
1067.430389	0.148870
1067.594949	0.150782
1067.759490	0.151508
1067.924013	0.152584
1068.088518	0.154551
1068.253004	0.154263
1068.417472	0.156158
1068.581922	0.157422
1068.746354	0.157351
1068.910768	0.157095
1069.075163	0.155885
1069.239540	0.153401
1069.403899	0.151995
1069.568240	0.149079
1069.732562	0.151227
1069.896866	0.149365
1070.061152	0.149604
1070.225420	0.151744
1070.389670	0.150129
1070.553901	0.149035
1070.718114	0.151172
1070.882309	0.150122
1071.046486	0.150788
1071.210644	0.149714
1071.374784	0.150628
1071.538906	0.149475
1071.703010	0.147656
1071.867096	0.147259
1072.031163	0.150286
1072.195212	0.150081
1072.359243	0.152401
1072.523256	0.152109
1072.687250	0.151773
1072.851226	0.151814
1073.015184	0.153407
1073.179124	0.152892
1073.343045	0.155046
1073.506949	0.150846
1073.670834	0.151298
1073.834701	0.152116
1073.998549	0.151003
1074.162380	0.151315
1074.326192	0.152296
1074.489986	0.151185
1074.653761	0.152597
1074.817519	0.150408
1074.981258	0.152563
1075.144979	0.151987
1075.308682	0.153767
1075.472367	0.156414
1075.636033	0.158750
1075.799681	0.157416
1075.963311	0.160025
1076.126923	0.157735
1076.290516	0.159323
1076.454092	0.158844
1076.617649	0.158930
1076.781187	0.154642
1076.944708	0.152427
1077.108210	0.152364
1077.271695	0.152420
1077.435160	0.149941
1077.598608	0.152831
1077.762038	0.152456
1077.925449	0.152479
1078.088842	0.153093
1078.252217	0.156008
1078.415573	0.156312
1078.578912	0.153310
1078.742232	0.153692
1078.905534	0.155339
1079.068817	0.153555
1079.232083	0.152813
1079.395330	0.150415
1079.558559	0.149742
1079.721770	0.146493
1079.884962	0.147267
1080.048136	0.149210
1080.211293	0.149190
1080.374430	0.149821
1080.537550	0.147063
1080.700651	0.150063
1080.863735	0.153229
1081.026800	0.154759
1081.189846	0.157290
1081.352875	0.158477
1081.515885	0.157518
1081.678877	0.157173
1081.841851	0.155190
1082.004807	0.160043
1082.167744	0.160612
1082.330663	0.161520
1082.493564	0.160947
1082.656447	0.160404
1082.819312	0.158456
1082.982158	0.160467
1083.144986	0.162778
1083.307796	0.164974
1083.470587	0.163550
1083.633361	0.162694
1083.796116	0.159971
1083.958853	0.158243
1084.121571	0.159745
1084.284272	0.160365
1084.446954	0.160870
1084.609618	0.158855
1084.772264	0.157316
1084.934892	0.156670
1085.097501	0.156134
1085.260092	0.157709
1085.422665	0.157853
1085.585220	0.157013
1085.747756	0.158997
1085.910274	0.157076
1086.072774	0.156462
1086.235256	0.155616
1086.397720	0.157048
1086.560165	0.155833
1086.722592	0.158388
1086.885001	0.159752
1087.047392	0.159626
1087.209764	0.158079
1087.372119	0.159127
1087.534455	0.156791
1087.696772	0.158442
1087.859072	0.156101
1088.021353	0.154168
1088.183616	0.150626
1088.345861	0.151636
1088.508088	0.151100
1088.670296	0.150703
1088.832486	0.151029
1088.994658	0.152652
1089.156812	0.150957
1089.318948	0.150146
1089.481065	0.151913
1089.643164	0.151622
1089.805245	0.149193
1089.967308	0.149702
1090.129352	0.149911
1090.291378	0.148661
1090.453386	0.149282
1090.615376	0.150640
1090.777347	0.156027
1090.939301	0.157454
1091.101236	0.159195
1091.263153	0.159393
1091.425051	0.161406
1091.586932	0.163496
1091.748794	0.164411
1091.910638	0.162611
1092.072463	0.162552
1092.234271	0.158212
1092.396060	0.158788
1092.557831	0.158695
1092.719584	0.160059
1092.881319	0.156047
1093.043035	0.152498
1093.204733	0.151937
1093.366413	0.156309
1093.528075	0.158408
1093.689718	0.160441
1093.851343	0.156769
1094.012950	0.157061
1094.174539	0.160812
1094.336110	0.164380
1094.497662	0.167406
1094.659196	0.167263
1094.820712	0.165725
1094.982210	0.162908
1095.143689	0.160074
1095.305151	0.162275
1095.466594	0.162213
1095.628018	0.157904
1095.789425	0.157751
1095.950813	0.157771
1096.112183	0.159691
1096.273535	0.160835
1096.434869	0.160092
1096.596184	0.160217
1096.757482	0.160925
1096.918761	0.163828
1097.080021	0.165210
1097.241264	0.167302
1097.402488	0.167279
1097.563694	0.170293
1097.724882	0.167628
1097.886052	0.166896
1098.047203	0.168262
1098.208336	0.167270
1098.369451	0.164865
1098.530548	0.164201
1098.691627	0.162840
1098.852687	0.164554
1099.013729	0.159973
1099.174753	0.161211
1099.335758	0.160204
1099.496746	0.158241
1099.657715	0.155722
1099.818666	0.155778
1099.979599	0.154446
1100.140513	0.151103
1100.301409	0.146889
1100.462287	0.147056
1100.623147	0.148662
1100.783989	0.149922
1100.944812	0.153813
1101.105617	0.160773
1101.266404	0.160820
1101.427173	0.160831
1101.587923	0.162665
1101.748656	0.164941
1101.909370	0.163699
1102.070066	0.161330
1102.230743	0.161276
1102.391403	0.159833
1102.552044	0.158689
1102.712667	0.160747
1102.873271	0.162475
1103.033858	0.161280
1103.194426	0.160558
1103.354976	0.163056
1103.515508	0.161014
1103.676021	0.166784
1103.836517	0.168669
1103.996994	0.165795
1104.157453	0.162629
1104.317893	0.162612
1104.478316	0.161037
1104.638720	0.162126
1104.799106	0.158088
1104.959474	0.158932
1105.119823	0.158454
1105.280155	0.156522
1105.440468	0.154882
1105.600763	0.156987
1105.761039	0.154419
1105.921298	0.153846
1106.081538	0.156575
1106.241760	0.158382
1106.401964	0.158868
1106.562149	0.154812
1106.722316	0.153658
1106.882465	0.152693
1107.042596	0.149547
1107.202709	0.151741
1107.362803	0.157576
1107.522879	0.150551
1107.682937	0.151884
1107.842977	0.153293
1108.002999	0.153911
1108.163002	0.160112
1108.322987	0.159772
1108.482954	0.162188
1108.642902	0.164686
1108.802833	0.163658
1108.962745	0.168801
1109.122639	0.171128
1109.282515	0.167784
1109.442372	0.166243
1109.602211	0.161361
1109.762032	0.164005
1109.921835	0.163489
1110.081620	0.159004
1110.241386	0.155359
1110.401134	0.154238
1110.560864	0.150856
1110.720576	0.153013
1110.880269	0.156401
1111.039945	0.158740
1111.199602	0.159713
1111.359240	0.159501
1111.518861	0.162367
1111.678463	0.158972
1111.838047	0.160771
1111.997613	0.163411
1112.157161	0.162240
1112.316690	0.160972
1112.476202	0.156694
1112.635695	0.155380
1112.795169	0.156486
1112.954626	0.155813
1113.114064	0.156917
1113.273484	0.154290
1113.432886	0.152036
1113.592270	0.157863
1113.751635	0.157220
1113.910983	0.160632
1114.070312	0.158697
1114.229622	0.158870
1114.388915	0.158659
1114.548189	0.164605
1114.707445	0.162773
1114.866683	0.163372
1115.025903	0.157450
1115.185104	0.157571
1115.344287	0.157616
1115.503452	0.160923
1115.662599	0.158551
1115.821727	0.158325
1115.980838	0.160154
1116.139930	0.161152
1116.299004	0.159563
1116.458059	0.164995
1116.617097	0.165508
1116.776116	0.165662
1116.935117	0.163448
1117.094099	0.164575
1117.253064	0.165912
1117.412010	0.161091
1117.570938	0.163347
1117.729848	0.162137
1117.888740	0.161171
1118.047613	0.164680
1118.206468	0.165910
1118.365305	0.167900
1118.524124	0.166520
1118.682924	0.163756
1118.841707	0.165343
1119.000471	0.166701
1119.159216	0.169316
1119.317944	0.165946
1119.476653	0.163077
1119.635344	0.159368
1119.794017	0.158936
1119.952672	0.163098
1120.111308	0.164432
1120.269927	0.161553
1120.428527	0.159398
1120.587108	0.161744
1120.745672	0.166348
1120.904217	0.163474
1121.062744	0.169580
1121.221253	0.174747
1121.379744	0.173070
1121.538216	0.175846
1121.696671	0.176324
1121.855107	0.177469
1122.013524	0.171579
1122.171924	0.168515
1122.330305	0.168203
1122.488668	0.163340
1122.647013	0.158387
1122.805340	0.156796
1122.963648	0.151927
1123.121938	0.155806
1123.280210	0.155580
1123.438464	0.160307
1123.596700	0.157927
1123.754917	0.162137
1123.913116	0.161779
1124.071297	0.160370
1124.229459	0.160297
1124.387604	0.160750
1124.545730	0.157606
1124.703838	0.153148
1124.861928	0.150731
1125.019999	0.151572
1125.178052	0.151737
1125.336088	0.153520
1125.494104	0.154390
1125.652103	0.156245
1125.810083	0.161790
1125.968045	0.165445
1126.125989	0.162839
1126.283915	0.165086
1126.441823	0.167072
1126.599712	0.168204
1126.757583	0.162988
1126.915436	0.160543
1127.073270	0.160345
1127.231087	0.155482
1127.388885	0.152697
1127.546665	0.158741
1127.704426	0.152736
1127.862170	0.155970
1128.019895	0.153022
1128.177602	0.158182
1128.335291	0.159878
1128.492961	0.162672
1128.650614	0.164277
1128.808248	0.163215
1128.965864	0.167822
1129.123461	0.169705
1129.281041	0.166499
1129.438602	0.166387
1129.596145	0.161889
1129.753670	0.160071
1129.911176	0.156121
1130.068665	0.158993
1130.226135	0.161555
1130.383587	0.159291
1130.541020	0.161388
1130.698436	0.159949
1130.855833	0.159051
1131.013212	0.164469
1131.170573	0.165679
1131.327915	0.166010
1131.485239	0.162098
1131.642545	0.162254
1131.799833	0.163933
1131.957103	0.169512
1132.114354	0.170453
1132.271588	0.177132
1132.428803	0.176848
1132.585999	0.178486
1132.743178	0.178763
1132.900338	0.177323
1133.057480	0.178256
1133.214604	0.172273
1133.371710	0.165957
1133.528797	0.166083
1133.685866	0.158307
1133.842917	0.157783
1133.999950	0.157160
1134.156964	0.159685
1134.313960	0.164110
1134.470938	0.160817
1134.627898	0.164435
1134.784840	0.167249
1134.941763	0.169894
1135.098668	0.174596
1135.255555	0.180057
1135.412424	0.179717
1135.569274	0.176385
1135.726107	0.171369
1135.882921	0.177129
1136.039716	0.178229
1136.196494	0.175211
1136.353253	0.177270
1136.509995	0.171599
1136.666717	0.166553
1136.823422	0.169050
1136.980109	0.166004
1137.136777	0.164365
1137.293427	0.157864
1137.450059	0.155518
1137.606672	0.164982
1137.763267	0.162487
1137.919844	0.166721
1138.076403	0.163344
1138.232944	0.161364
1138.389466	0.158605
1138.545971	0.159878
1138.702457	0.157199
1138.858924	0.158717
1139.015374	0.150273
1139.171805	0.150918
1139.328218	0.147991
1139.484613	0.150029
1139.640990	0.149374
1139.797348	0.154453
1139.953688	0.159778
1140.110010	0.171914
1140.266314	0.168444
1140.422600	0.171606
1140.578867	0.174743
1140.735116	0.178191
1140.891347	0.175495
1141.047559	0.171655
1141.203754	0.176151
1141.359930	0.171852
1141.516088	0.158984
1141.672228	0.163649
1141.828349	0.158537
1141.984452	0.152914
1142.140537	0.148551
1142.296604	0.154947
1142.452653	0.160432
1142.608683	0.150770
1142.764695	0.152560
1142.920689	0.158431
1143.076665	0.151784
1143.232622	0.151944
1143.388562	0.153291
1143.544483	0.157415
1143.700385	0.152143
1143.856270	0.153334
1144.012136	0.155868
1144.167985	0.158485
1144.323814	0.162683
1144.479626	0.167484
1144.635420	0.176091
1144.791195	0.170566
1144.946952	0.171050
1145.102691	0.176530
1145.258411	0.172860
1145.414113	0.173146
1145.569798	0.168180
1145.725463	0.157702
1145.881111	0.155247
1146.036741	0.147013
1146.192352	0.148335
1146.347945	0.151836
1146.503519	0.145654
1146.659076	0.152614
1146.814614	0.156512
1146.970134	0.154743
1147.125636	0.162529
1147.281120	0.165501
1147.436585	0.164195
1147.592032	0.164509
1147.747461	0.162225
1147.902872	0.161675
1148.058265	0.159286
1148.213639	0.155707
1148.368995	0.162847
1148.524333	0.160634
1148.679653	0.149644
1148.834954	0.152364
1148.990237	0.151302
1149.145502	0.149995
1149.300749	0.153977
1149.455977	0.151573
1149.611188	0.155280
1149.766380	0.148143
1149.921553	0.150068
1150.076709	0.165112
1150.231846	0.164818
1150.386966	0.172858
1150.542066	0.176418
1150.697149	0.172605
1150.852214	0.172777
1151.007260	0.168142
1151.162288	0.169321
1151.317298	0.169913
1151.472289	0.160523
1151.627263	0.172189
1151.782218	0.168272
1151.937155	0.165469
1152.092073	0.176961
1152.246974	0.164552
1152.401856	0.168113
1152.556720	0.167037
1152.711566	0.161442
1152.866393	0.159337
1153.021203	0.146755
1153.175994	0.149010
1153.330767	0.144138
1153.485521	0.138745
1153.640258	0.145358
1153.794976	0.153058
1153.949676	0.163159
1154.104358	0.167136
1154.259021	0.179184
1154.413667	0.176752
1154.568294	0.169933
1154.722903	0.173574
1154.877493	0.166416
1155.032066	0.171348
1155.186620	0.165038
1155.341156	0.157862
1155.495674	0.154417
1155.650173	0.145963
1155.804654	0.150721
1155.959118	0.150908
1156.113562	0.141806
1156.267989	0.150122
1156.422397	0.156004
1156.576788	0.154495
1156.731160	0.159088
1156.885513	0.157218
1157.039849	0.154775
1157.194166	0.147727
1157.348465	0.146612
1157.502746	0.156837
1157.657009	0.146593
1157.811253	0.135990
1157.965479	0.131699
1158.119687	0.124071
1158.273877	0.122403
1158.428048	0.131988
1158.582201	0.137392
1158.736337	0.141699
1158.890453	0.134837
1159.044552	0.145085
1159.198632	0.149034
1159.352694	0.158156
1159.506738	0.157385
1159.660764	0.166171
1159.814771	0.151292
1159.968761	0.147622
1160.122732	0.140739
1160.276685	0.139063
1160.430619	0.134093
1160.584535	0.139575
1160.738434	0.131037
1160.892313	0.131529
1161.046175	0.129440
1161.200019	0.139029
1161.353844	0.143818
1161.507651	0.150001
1161.661440	0.156945
1161.815210	0.152418
1161.968962	0.145548
1162.122697	0.143669
1162.276412	0.138521
1162.430110	0.132967
1162.583789	0.125765
1162.737451	0.119272
1162.891094	0.117606
1163.044718	0.114803
1163.198325	0.109082
1163.351913	0.106129
1163.505483	0.106489
1163.659035	0.109631
1163.812569	0.110591
1163.966084	0.121543
1164.119581	0.127652
1164.273060	0.129272
1164.426521	0.130074
1164.579964	0.140343
1164.733388	0.148055
1164.886794	0.159628
1165.040182	0.159686
1165.193551	0.163213
1165.346903	0.156455
1165.500236	0.164021
1165.653551	0.151187
1165.806848	0.156325
1165.960126	0.152719
1166.113386	0.149139
1166.266628	0.142348
1166.419852	0.145343
1166.573058	0.148815
1166.726245	0.144975
1166.879414	0.138291
1167.032565	0.153584
1167.185698	0.144093
1167.338812	0.139135
1167.491909	0.139953
1167.644987	0.137061
1167.798046	0.134225
1167.951088	0.127283
1168.104111	0.131624
1168.257117	0.125572
1168.410103	0.118827
1168.563072	0.128158
1168.716023	0.133363
1168.868955	0.133147
1169.021869	0.133804
1169.174765	0.136627
1169.327642	0.139361
1169.480501	0.140023
1169.633343	0.138334
1169.786165	0.138681
1169.938970	0.128490
1170.091757	0.131031
1170.244525	0.129729
1170.397275	0.124120
1170.550007	0.119757
1170.702720	0.124847
1170.855415	0.122342
1171.008092	0.125775
1171.160751	0.123752
1171.313392	0.124821
1171.466014	0.122009
1171.618619	0.108724
1171.771205	0.108724
1171.923772	0.108724
