sample name	sample
index	814
start time	 03-31-2021  03:29:59 PM


Wavelength (nm)	Absorbance
494.344910	-0.445829
494.563924	-0.445829
494.782919	-0.445829
495.001897	-13.706657
495.220856	0.035993
495.439797	0.016404
495.658719	-0.165841
495.877624	-0.170746
496.096510	-0.628724
496.315378	-0.530165
496.534227	-0.602769
496.753059	-0.564970
496.971872	-0.289886
497.190667	0.049347
497.409444	0.066551
497.628203	0.068389
497.846943	0.067818
498.065665	0.070085
498.284369	0.069032
498.503055	0.069162
498.721723	0.069777
498.940372	0.069471
499.159003	0.069627
499.377616	0.067694
499.596210	0.068175
499.814787	0.068641
500.033345	0.067900
500.251885	0.068455
500.470406	0.068551
500.688910	0.067873
500.907395	0.067398
501.125862	0.067243
501.344311	0.068366
501.562742	0.068110
501.781154	0.067757
501.999548	0.068115
502.217924	0.068144
502.436282	0.067777
502.654621	0.067633
502.872942	0.068101
503.091245	0.067798
503.309530	0.066890
503.527797	0.067953
503.746045	0.068189
503.964275	0.068297
504.182487	0.069022
504.400681	0.069822
504.618856	0.070383
504.837013	0.070122
505.055152	0.070296
505.273273	0.071702
505.491376	0.070651
505.709460	0.071128
505.927526	0.071954
506.145574	0.070827
506.363604	0.070705
506.581615	0.070534
506.799608	0.069997
507.017583	0.070525
507.235540	0.069065
507.453478	0.069394
507.671399	0.069444
507.889301	0.068794
508.107185	0.069098
508.325050	0.068771
508.542898	0.069372
508.760727	0.070113
508.978538	0.069852
509.196330	0.070794
509.414105	0.071362
509.631861	0.071177
509.849599	0.071431
510.067319	0.071686
510.285021	0.072250
510.502704	0.072347
510.720369	0.072588
510.938016	0.072383
511.155645	0.072206
511.373255	0.070827
511.590848	0.070541
511.808422	0.070325
512.025977	0.070539
512.243515	0.070482
512.461034	0.070090
512.678536	0.070378
512.896018	0.070686
513.113483	0.071345
513.330930	0.071692
513.548358	0.071619
513.765768	0.071060
513.983160	0.071298
514.200533	0.070223
514.417889	0.070601
514.635226	0.070321
514.852545	0.070306
515.069845	0.070622
515.287128	0.071039
515.504392	0.070989
515.721638	0.071781
515.938866	0.072068
516.156075	0.072693
516.373267	0.072122
516.590440	0.072353
516.807594	0.072000
517.024731	0.071386
517.241850	0.071211
517.458950	0.071951
517.676032	0.072572
517.893095	0.072176
518.110141	0.071895
518.327168	0.071496
518.544177	0.071272
518.761168	0.071188
518.978141	0.070835
519.195095	0.071343
519.412031	0.071127
519.628949	0.071329
519.845849	0.071207
520.062731	0.071803
520.279594	0.072492
520.496439	0.072350
520.713266	0.072675
520.930074	0.073326
521.146865	0.072981
521.363637	0.072311
521.580391	0.072223
521.797127	0.072881
522.013844	0.072211
522.230543	0.073113
522.447224	0.073178
522.663887	0.073508
522.880532	0.073474
523.097158	0.073676
523.313766	0.074354
523.530356	0.074181
523.746928	0.073697
523.963481	0.074109
524.180017	0.074040
524.396534	0.074118
524.613032	0.074440
524.829513	0.074679
525.045975	0.075345
525.262420	0.075723
525.478845	0.076214
525.695253	0.076738
525.911643	0.076893
526.128014	0.076371
526.344367	0.076114
526.560702	0.076135
526.777018	0.076165
526.993316	0.075431
527.209597	0.075090
527.425858	0.074786
527.642102	0.074520
527.858328	0.074861
528.074535	0.074556
528.290724	0.075037
528.506894	0.074838
528.723047	0.074976
528.939181	0.075260
529.155297	0.075589
529.371395	0.075729
529.587475	0.075754
529.803536	0.075865
530.019579	0.077034
530.235604	0.077555
530.451611	0.077733
530.667600	0.077585
530.883570	0.077924
531.099522	0.078279
531.315456	0.078332
531.531372	0.078312
531.747269	0.078528
531.963148	0.078019
532.179009	0.078124
532.394852	0.079047
532.610676	0.079352
532.826482	0.079541
533.042271	0.079719
533.258040	0.079866
533.473792	0.080698
533.689525	0.080478
533.905240	0.081016
534.120937	0.080747
534.336616	0.080522
534.552277	0.080789
534.767919	0.081153
534.983543	0.081283
535.199149	0.081201
535.414736	0.081085
535.630306	0.081929
535.845857	0.082144
536.061390	0.082580
536.276904	0.082258
536.492401	0.081889
536.707879	0.081619
536.923339	0.081575
537.138781	0.081758
537.354204	0.081739
537.569610	0.081835
537.784997	0.081873
538.000366	0.082076
538.215716	0.082958
538.431049	0.083927
538.646363	0.084256
538.861659	0.084598
539.076937	0.084599
539.292196	0.084511
539.507438	0.084498
539.722661	0.084306
539.937866	0.084935
540.153052	0.084810
540.368221	0.084851
540.583371	0.084924
540.798503	0.084839
541.013617	0.085388
541.228712	0.085499
541.443789	0.085358
541.658848	0.085418
541.873889	0.084935
542.088912	0.085123
542.303916	0.085061
542.518902	0.085402
542.733870	0.085739
542.948820	0.085611
543.163752	0.085863
543.378665	0.086237
543.593560	0.087103
543.808437	0.086893
544.023295	0.086830
544.238136	0.086724
544.452958	0.086360
544.667762	0.085990
544.882548	0.086867
545.097315	0.087515
545.312064	0.087325
545.526795	0.087102
545.741508	0.087719
545.956203	0.088611
546.170879	0.088859
546.385537	0.089177
546.600177	0.089670
546.814799	0.089092
547.029402	0.089368
547.243988	0.089875
547.458555	0.090298
547.673103	0.090278
547.887634	0.089802
548.102146	0.090029
548.316640	0.090194
548.531116	0.090430
548.745574	0.091304
548.960013	0.090896
549.174435	0.091160
549.388838	0.091335
549.603222	0.091823
549.817589	0.091694
550.031937	0.092146
550.246267	0.092327
550.460579	0.092396
550.674873	0.092262
550.889148	0.092646
551.103405	0.092695
551.317644	0.092409
551.531865	0.092076
551.746068	0.092127
551.960252	0.091979
552.174418	0.092168
552.388566	0.092361
552.602696	0.092716
552.816807	0.092662
553.030900	0.092224
553.244975	0.092239
553.459032	0.092716
553.673070	0.092886
553.887091	0.093376
554.101093	0.093316
554.315077	0.093793
554.529042	0.093558
554.742990	0.094025
554.956919	0.094935
555.170830	0.095001
555.384722	0.095395
555.598597	0.095798
555.812453	0.095418
556.026291	0.095688
556.240111	0.095756
556.453913	0.095621
556.667696	0.095370
556.881461	0.095154
557.095208	0.095628
557.308937	0.095460
557.522647	0.095757
557.736339	0.095574
557.950013	0.095784
558.163669	0.095235
558.377307	0.095195
558.590926	0.095405
558.804527	0.095553
559.018110	0.095437
559.231675	0.095166
559.445221	0.095090
559.658749	0.095398
559.872259	0.095637
560.085751	0.096199
560.299225	0.096607
560.512680	0.096902
560.726117	0.096990
560.939536	0.097208
561.152937	0.097723
561.366319	0.097661
561.579683	0.097753
561.793029	0.097332
562.006357	0.097488
562.219667	0.097352
562.432958	0.097362
562.646231	0.097385
562.859486	0.097187
563.072723	0.097211
563.285941	0.097711
563.499141	0.097850
563.712323	0.098183
563.925487	0.098034
564.138632	0.098407
564.351760	0.098469
564.564869	0.098591
564.777960	0.098835
564.991032	0.098975
565.204087	0.098722
565.417123	0.099097
565.630141	0.099572
565.843140	0.099785
566.056122	0.099864
566.269085	0.100076
566.482030	0.100355
566.694957	0.100464
566.907866	0.100742
567.120756	0.101355
567.333628	0.101596
567.546482	0.101202
567.759318	0.101422
567.972135	0.101443
568.184935	0.101622
568.397716	0.101638
568.610478	0.102163
568.823223	0.101923
569.035949	0.101733
569.248657	0.101887
569.461347	0.102385
569.674019	0.102295
569.886672	0.102347
570.099308	0.102177
570.311925	0.102378
570.524523	0.102431
570.737104	0.102619
570.949666	0.102733
571.162210	0.102650
571.374736	0.102614
571.587244	0.102988
571.799733	0.103227
572.012205	0.103536
572.224658	0.103509
572.437092	0.103433
572.649509	0.103874
572.861907	0.104095
573.074287	0.104223
573.286649	0.104419
573.498993	0.104664
573.711318	0.104890
573.923625	0.105230
574.135914	0.105609
574.348185	0.105852
574.560438	0.106001
574.772672	0.105935
574.984888	0.105850
575.197086	0.106083
575.409266	0.106151
575.621427	0.106449
575.833570	0.106136
576.045695	0.106004
576.257802	0.105952
576.469890	0.106096
576.681961	0.106269
576.894013	0.106490
577.106046	0.106499
577.318062	0.106343
577.530059	0.106025
577.742039	0.106436
577.954000	0.106617
578.165942	0.106885
578.377867	0.106690
578.589773	0.106345
578.801661	0.106410
579.013531	0.106473
579.225382	0.106562
579.437216	0.106853
579.649031	0.106666
579.860828	0.106806
580.072606	0.107050
580.284367	0.107001
580.496109	0.107479
580.707833	0.107606
580.919539	0.107711
581.131227	0.108011
581.342896	0.108031
581.554547	0.108310
581.766180	0.108283
581.977795	0.108452
582.189391	0.109080
582.400969	0.109546
582.612529	0.109588
582.824071	0.110173
583.035595	0.110285
583.247100	0.110469
583.458587	0.110864
583.670056	0.111196
583.881506	0.110987
584.092939	0.110728
584.304353	0.110698
584.515749	0.111119
584.727127	0.110945
584.938486	0.111157
585.149828	0.111375
585.361151	0.111244
585.572456	0.111344
585.783742	0.111265
585.995011	0.111352
586.206261	0.111194
586.417493	0.111086
586.628706	0.111141
586.839902	0.111293
587.051079	0.111460
587.262238	0.111744
587.473379	0.111605
587.684502	0.111945
587.895606	0.111954
588.106692	0.112455
588.317760	0.112654
588.528810	0.112763
588.739841	0.112517
588.950855	0.112552
589.161850	0.112631
589.372827	0.112914
589.583785	0.113041
589.794726	0.113694
590.005648	0.113744
590.216552	0.114220
590.427437	0.114176
590.638305	0.114533
590.849154	0.114638
591.059985	0.114387
591.270798	0.114517
591.481592	0.114577
591.692369	0.114558
591.903127	0.114559
592.113867	0.114431
592.324588	0.115007
592.535292	0.115145
592.745977	0.115435
592.956644	0.115905
593.167293	0.116157
593.377923	0.116449
593.588536	0.116345
593.799130	0.116668
594.009706	0.116349
594.220263	0.116264
594.430803	0.116468
594.641324	0.116426
594.851827	0.116206
595.062312	0.116273
595.272778	0.116158
595.483227	0.116377
595.693657	0.116444
595.904069	0.116965
596.114462	0.116922
596.324838	0.116625
596.535195	0.116672
596.745534	0.116767
596.955855	0.116665
597.166157	0.117209
597.376441	0.117196
597.586707	0.117206
597.796955	0.117447
598.007185	0.117589
598.217396	0.118079
598.427589	0.118481
598.637764	0.118887
598.847921	0.119129
599.058060	0.119098
599.268180	0.119114
599.478282	0.119178
599.688366	0.119124
599.898431	0.119433
600.108479	0.119258
600.318508	0.119036
600.528519	0.119113
600.738511	0.118943
600.948486	0.118739
601.158442	0.118988
601.368380	0.118841
601.578300	0.119039
601.788202	0.119165
601.998085	0.119498
602.207950	0.119668
602.417797	0.119795
602.627626	0.119962
602.837436	0.120156
603.047228	0.120155
603.257002	0.120578
603.466758	0.120694
603.676496	0.120492
603.886215	0.120480
604.095916	0.120616
604.305599	0.120467
604.515264	0.120938
604.724910	0.120989
604.934538	0.121428
605.144148	0.121280
605.353740	0.121275
605.563314	0.121367
605.772869	0.121368
605.982406	0.121587
606.191925	0.121735
606.401425	0.121843
606.610908	0.122141
606.820372	0.122047
607.029818	0.122492
607.239246	0.122611
607.448655	0.123099
607.658047	0.123276
607.867420	0.122831
608.076775	0.122943
608.286111	0.123008
608.495430	0.123153
608.704730	0.123401
608.914012	0.123571
609.123275	0.123785
609.332521	0.123693
609.541748	0.123817
609.750957	0.124371
609.960148	0.124694
610.169321	0.124632
610.378475	0.124753
610.587611	0.124903
610.796729	0.124765
611.005829	0.124994
611.214910	0.124848
611.423974	0.124685
611.633019	0.124853
611.842045	0.124909
612.051054	0.125001
612.260044	0.124938
612.469017	0.124812
612.677970	0.124751
612.886906	0.124541
613.095824	0.124727
613.304723	0.125119
613.513604	0.125328
613.722467	0.125536
613.931311	0.125681
614.140138	0.126001
614.348946	0.125943
614.557736	0.126473
614.766507	0.126829
614.975261	0.127199
615.183996	0.127255
615.392713	0.127143
615.601412	0.127179
615.810092	0.127413
616.018754	0.127474
616.227399	0.127868
616.436024	0.127839
616.644632	0.127760
616.853222	0.127973
617.061793	0.128063
617.270346	0.128313
617.478880	0.128449
617.687397	0.128580
617.895895	0.128598
618.104375	0.128667
618.312837	0.128792
618.521281	0.129070
618.729706	0.128795
618.938113	0.128963
619.146502	0.128830
619.354873	0.128868
619.563226	0.128850
619.771560	0.129242
619.979876	0.129326
620.188174	0.129382
620.396453	0.129273
620.604715	0.129431
620.812958	0.129607
621.021183	0.129878
621.229390	0.129894
621.437578	0.129990
621.645748	0.129842
621.853900	0.129957
622.062034	0.129840
622.270150	0.130133
622.478247	0.130453
622.686326	0.130653
622.894387	0.130739
623.102430	0.130945
623.310454	0.131215
623.518461	0.131446
623.726449	0.131733
623.934418	0.132047
624.142370	0.132047
624.350303	0.132148
624.558218	0.132050
624.766115	0.132343
624.973994	0.132468
625.181855	0.132382
625.389697	0.132357
625.597521	0.132285
625.805327	0.132349
626.013114	0.132565
626.220883	0.132381
626.428634	0.132621
626.636367	0.132305
626.844082	0.132315
627.051778	0.132497
627.259457	0.132664
627.467117	0.132423
627.674758	0.132613
627.882382	0.132434
628.089987	0.132630
628.297574	0.132751
628.505143	0.133157
628.712694	0.133338
628.920226	0.133727
629.127740	0.133882
629.335236	0.134299
629.542714	0.134143
629.750174	0.134450
629.957615	0.134529
630.165038	0.134469
630.372443	0.134445
630.579829	0.134478
630.787198	0.134034
630.994548	0.134040
631.201880	0.134225
631.409194	0.134446
631.616489	0.134667
631.823766	0.134652
632.031025	0.134832
632.238266	0.135027
632.445489	0.135160
632.652693	0.135576
632.859879	0.135643
633.067047	0.135622
633.274197	0.135928
633.481329	0.135889
633.688442	0.136269
633.895537	0.136250
634.102614	0.136414
634.309672	0.136504
634.516713	0.136314
634.723735	0.136392
634.930739	0.136580
635.137724	0.136687
635.344692	0.136887
635.551641	0.136922
635.758572	0.137042
635.965485	0.136967
636.172379	0.136891
636.379256	0.137018
636.586114	0.137150
636.792954	0.137375
636.999775	0.137183
637.206579	0.137115
637.413364	0.137107
637.620131	0.137348
637.826880	0.137576
638.033610	0.137934
638.240323	0.138227
638.447017	0.138355
638.653692	0.138383
638.860350	0.138594
639.066990	0.138700
639.273611	0.138824
639.480214	0.138780
639.686798	0.138681
639.893365	0.138605
640.099913	0.138627
640.306443	0.138744
640.512955	0.138781
640.719449	0.139058
640.925924	0.139196
641.132381	0.139458
641.338820	0.139754
641.545241	0.139950
641.751644	0.140285
641.958028	0.140714
642.164394	0.140744
642.370742	0.140625
642.577071	0.140701
642.783383	0.141147
642.989676	0.141000
643.195951	0.141112
643.402207	0.141083
643.608446	0.140972
643.814666	0.140736
644.020868	0.140697
644.227052	0.140875
644.433218	0.140838
644.639365	0.140586
644.845494	0.140910
645.051605	0.140927
645.257698	0.141200
645.463772	0.141405
645.669828	0.141750
645.875866	0.141904
646.081886	0.141900
646.287888	0.141885
646.493871	0.142278
646.699836	0.142542
646.905783	0.142607
647.111712	0.142938
647.317622	0.143237
647.523514	0.143187
647.729388	0.143408
647.935244	0.143799
648.141082	0.143980
648.346901	0.143698
648.552702	0.143591
648.758485	0.143570
648.964250	0.143376
649.169996	0.143106
649.375724	0.143078
649.581434	0.143360
649.787126	0.143521
649.992800	0.143456
650.198455	0.143779
650.404092	0.144105
650.609711	0.144332
650.815311	0.144445
651.020894	0.144791
651.226458	0.144879
651.432004	0.144937
651.637532	0.144834
651.843041	0.145265
652.048532	0.145289
652.254006	0.145152
652.459460	0.145238
652.664897	0.145547
652.870315	0.145775
653.075716	0.145905
653.281097	0.146004
653.486461	0.146136
653.691807	0.146460
653.897134	0.146524
654.102443	0.146812
654.307734	0.147015
654.513006	0.147059
654.718261	0.147217
654.923497	0.147834
655.128715	0.148143
655.333915	0.148543
655.539096	0.148370
655.744259	0.148468
655.949404	0.148535
656.154531	0.148807
656.359640	0.148960
656.564730	0.148894
656.769802	0.148795
656.974856	0.148559
657.179892	0.148559
657.384909	0.148801
657.589908	0.148977
657.794889	0.148948
657.999852	0.148954
658.204797	0.149259
658.409723	0.149476
658.614631	0.149363
658.819521	0.149512
659.024393	0.149708
659.229246	0.149740
659.434081	0.150052
659.638898	0.150218
659.843697	0.150240
660.048478	0.150093
660.253240	0.149985
660.457984	0.150041
660.662710	0.150113
660.867417	0.150027
661.072107	0.150261
661.276778	0.149995
661.481431	0.150212
661.686066	0.150302
661.890682	0.150365
662.095281	0.150511
662.299861	0.150774
662.504422	0.151096
662.708966	0.151120
662.913491	0.151254
663.117999	0.151673
663.322488	0.151887
663.526958	0.152192
663.731411	0.152298
663.935845	0.152858
664.140261	0.153262
664.344659	0.153296
664.549038	0.153673
664.753400	0.153727
664.957743	0.154021
665.162068	0.154138
665.366375	0.154343
665.570663	0.154655
665.774933	0.154485
665.979185	0.154434
666.183419	0.154538
666.387635	0.154750
666.591832	0.154925
666.796011	0.154944
667.000172	0.155151
667.204315	0.155218
667.408439	0.155238
667.612545	0.155284
667.816634	0.155285
668.020703	0.155701
668.224755	0.155735
668.428788	0.155727
668.632803	0.155789
668.836800	0.155680
669.040779	0.155724
669.244739	0.155981
669.448681	0.156268
669.652605	0.156424
669.856511	0.156505
670.060399	0.156560
670.264268	0.156756
670.468119	0.156812
670.671952	0.157140
670.875767	0.157294
671.079563	0.157445
671.283341	0.157671
671.487101	0.157901
671.690843	0.158096
671.894567	0.158276
672.098272	0.158544
672.301959	0.158597
672.505628	0.158383
672.709278	0.158805
672.912911	0.158980
673.116525	0.159072
673.320121	0.159143
673.523699	0.159165
673.727258	0.159394
673.930799	0.159332
674.134322	0.159600
674.337827	0.159975
674.541314	0.159799
674.744782	0.159855
674.948232	0.159827
675.151664	0.159989
675.355078	0.159922
675.558474	0.160001
675.761851	0.160089
675.965210	0.160105
676.168551	0.160183
676.371873	0.160429
676.575178	0.160440
676.778464	0.160605
676.981732	0.160788
677.184981	0.161063
677.388213	0.161293
677.591426	0.161343
677.794621	0.161633
677.997798	0.161814
678.200956	0.161795
678.404097	0.161944
678.607219	0.162263
678.810323	0.162455
679.013408	0.162571
679.216476	0.162587
679.419525	0.162918
679.622556	0.163158
679.825569	0.163279
680.028563	0.163352
680.231540	0.163602
680.434498	0.163618
680.637438	0.163344
680.840359	0.163490
681.043263	0.163635
681.246148	0.163735
681.449015	0.163931
681.651864	0.163957
681.854694	0.164269
682.057506	0.164249
682.260301	0.164378
682.463076	0.164883
682.665834	0.164759
682.868573	0.165031
683.071295	0.165177
683.273998	0.165187
683.476682	0.165573
683.679349	0.165614
683.881997	0.165811
684.084627	0.165840
684.287239	0.165891
684.489833	0.166247
684.692408	0.166136
684.894965	0.166191
685.097504	0.166143
685.300025	0.166035
685.502527	0.165872
685.705012	0.165929
685.907478	0.166118
686.109925	0.166300
686.312355	0.166405
686.514766	0.166570
686.717159	0.166763
686.919534	0.166776
687.121891	0.166600
687.324230	0.166963
687.526550	0.167008
687.728852	0.166985
687.931136	0.166914
688.133401	0.166932
688.335649	0.167099
688.537878	0.167303
688.740089	0.167488
688.942281	0.167991
689.144456	0.168007
689.346612	0.168334
689.548750	0.168528
689.750870	0.168757
689.952971	0.168884
690.155055	0.169022
690.357120	0.168978
690.559167	0.169322
690.761195	0.169511
690.963206	0.169732
691.165198	0.169813
691.367172	0.169879
691.569128	0.169866
691.771065	0.169926
691.972984	0.169985
692.174885	0.170338
692.376768	0.170306
692.578633	0.170178
692.780479	0.170152
692.982308	0.170321
693.184118	0.170416
693.385909	0.170622
693.587683	0.170816
693.789438	0.170877
693.991175	0.170746
694.192894	0.170909
694.394595	0.171251
694.596277	0.171524
694.797941	0.171528
694.999587	0.171865
695.201215	0.172101
695.402824	0.172267
695.604416	0.172369
695.805989	0.172286
696.007543	0.172352
696.209080	0.172428
696.410598	0.172409
696.612099	0.172510
696.813580	0.172427
697.015044	0.172416
697.216490	0.172423
697.417917	0.172651
697.619326	0.172906
697.820717	0.172872
698.022089	0.172957
698.223444	0.173233
698.424780	0.173451
698.626098	0.173446
698.827397	0.173443
699.028679	0.173551
699.229942	0.173413
699.431187	0.173384
699.632414	0.173507
699.833622	0.173539
700.034813	0.173520
700.235985	0.173445
700.437139	0.173620
700.638274	0.173736
700.839392	0.173859
701.040491	0.174108
701.241572	0.174224
701.442635	0.174625
701.643679	0.174842
701.844706	0.175029
702.045714	0.175210
702.246704	0.175346
702.447675	0.175586
702.648629	0.175607
702.849564	0.175607
703.050481	0.176035
703.251380	0.175837
703.452260	0.175867
703.653122	0.175933
703.853966	0.175922
704.054792	0.175896
704.255600	0.175785
704.456389	0.175813
704.657160	0.175960
704.857913	0.175793
705.058648	0.175802
705.259365	0.175689
705.460063	0.175486
705.660743	0.175493
705.861405	0.175250
706.062048	0.175585
706.262674	0.175524
706.463281	0.175484
706.663870	0.175390
706.864441	0.175469
707.064993	0.175634
707.265527	0.175862
707.466043	0.175902
707.666541	0.176104
707.867021	0.175928
708.067482	0.176133
708.267925	0.176257
708.468350	0.176693
708.668757	0.176865
708.869145	0.176860
709.069516	0.177170
709.269868	0.177242
709.470201	0.177578
709.670517	0.177853
709.870814	0.177909
710.071093	0.177799
710.271354	0.177541
710.471597	0.177609
710.671821	0.177687
710.872028	0.177608
711.072216	0.177559
711.272385	0.177560
711.472537	0.177403
711.672670	0.177345
711.872785	0.177427
712.072882	0.177587
712.272961	0.177533
712.473021	0.177450
712.673063	0.177141
712.873087	0.177265
713.073093	0.177208
713.273081	0.176997
713.473050	0.177079
713.673001	0.176965
713.872934	0.176776
714.072849	0.176831
714.272745	0.176760
714.472623	0.176873
714.672483	0.176780
714.872325	0.176798
715.072148	0.176867
715.271954	0.176731
715.471741	0.176958
715.671509	0.176975
715.871260	0.176786
716.070992	0.176621
716.270707	0.176444
716.470403	0.176438
716.670080	0.176466
716.869740	0.176624
717.069381	0.176636
717.269004	0.176494
717.468609	0.176478
717.668195	0.176550
717.867764	0.176922
718.067314	0.176948
718.266846	0.177177
718.466360	0.177107
718.665855	0.177091
718.865332	0.177175
719.064791	0.177115
719.264232	0.177074
719.463655	0.176846
719.663059	0.176771
719.862445	0.177004
720.061813	0.176731
720.261163	0.176599
720.460494	0.176490
720.659807	0.176261
720.859102	0.176301
721.058379	0.176324
721.257638	0.176354
721.456878	0.176338
721.656100	0.176274
721.855304	0.176203
722.054490	0.176337
722.253657	0.176275
722.452806	0.176586
722.651937	0.176416
722.851050	0.176448
723.050145	0.176609
723.249221	0.176565
723.448279	0.176478
723.647319	0.176569
723.846340	0.176462
724.045344	0.176461
724.244329	0.176209
724.443296	0.176421
724.642245	0.176272
724.841175	0.176092
725.040088	0.175849
725.238982	0.175666
725.437857	0.175454
725.636715	0.175319
725.835554	0.175261
726.034376	0.175204
726.233179	0.175012
726.431963	0.174824
726.630730	0.174831
726.829478	0.174909
727.028208	0.174904
727.226920	0.175026
727.425614	0.175089
727.624289	0.174796
727.822946	0.174799
728.021585	0.174666
728.220206	0.174770
728.418808	0.174800
728.617392	0.174638
728.815958	0.174538
729.014506	0.174386
729.213036	0.174142
729.411547	0.174370
729.610040	0.174020
729.808515	0.173832
730.006972	0.173808
730.205410	0.173763
730.403831	0.173664
730.602233	0.173890
730.800616	0.173979
730.998982	0.174205
731.197329	0.174053
731.395658	0.174239
731.593969	0.174421
731.792262	0.174381
731.990536	0.174289
732.188793	0.174418
732.387031	0.174082
732.585250	0.173990
732.783452	0.173808
732.981635	0.173682
733.179800	0.173773
733.377947	0.173479
733.576076	0.173523
733.774186	0.173499
733.972278	0.173423
734.170352	0.173623
734.368408	0.173560
734.566446	0.173379
734.764465	0.173418
734.962466	0.173280
735.160449	0.173284
735.358413	0.172818
735.556360	0.172375
735.754288	0.172401
735.952198	0.172062
736.150090	0.171718
736.347963	0.171525
736.545818	0.171603
736.743655	0.171519
736.941474	0.171520
737.139275	0.171487
737.337057	0.171683
737.534821	0.171383
737.732567	0.171368
737.930295	0.171515
738.128005	0.171594
738.325696	0.171149
738.523369	0.171050
738.721024	0.171028
738.918660	0.171514
739.116279	0.171488
739.313879	0.171487
739.511461	0.171375
739.709024	0.171317
739.906570	0.171387
740.104097	0.171577
740.301606	0.171718
740.499097	0.171518
740.696569	0.171165
740.894024	0.171164
741.091460	0.171106
741.288878	0.171095
741.486277	0.171062
741.683659	0.171151
741.881022	0.171173
742.078367	0.171077
742.275694	0.171251
742.473002	0.171181
742.670293	0.171072
742.867565	0.170968
743.064819	0.171006
743.262054	0.170800
743.459272	0.170628
743.656471	0.170401
743.853652	0.170136
744.050815	0.169978
744.247959	0.169964
744.445085	0.169960
744.642194	0.169938
744.839283	0.169932
745.036355	0.169885
745.233408	0.169654
745.430444	0.169498
745.627461	0.169424
745.824459	0.169319
746.021440	0.169224
746.218402	0.169086
746.415346	0.168838
746.612272	0.168197
746.809180	0.168201
747.006069	0.168056
747.202940	0.168096
747.399793	0.168093
747.596628	0.167886
747.793444	0.167681
747.990243	0.167512
748.187023	0.167425
748.383784	0.167822
748.580528	0.167730
748.777253	0.167487
748.973960	0.167267
749.170649	0.167121
749.367320	0.167041
749.563973	0.166729
749.760607	0.166619
749.957223	0.166660
750.153821	0.166689
750.350400	0.166496
750.546962	0.166586
750.743505	0.166472
750.940030	0.166363
751.136536	0.166634
751.333025	0.166824
751.529495	0.166896
751.725947	0.166731
751.922381	0.166477
752.118796	0.166431
752.315194	0.166660
752.511573	0.166570
752.707934	0.166247
752.904276	0.165747
753.100601	0.165428
753.296907	0.165181
753.493195	0.165209
753.689465	0.165103
753.885716	0.165029
754.081949	0.164614
754.278164	0.164670
754.474361	0.164848
754.670540	0.165082
754.866700	0.165227
755.062843	0.165034
755.258967	0.164829
755.455072	0.164581
755.651160	0.164623
755.847229	0.164562
756.043280	0.164267
756.239313	0.164118
756.435328	0.163838
756.631324	0.163676
756.827302	0.163661
757.023262	0.163632
757.219204	0.163799
757.415127	0.163638
757.611033	0.163440
757.806920	0.163251
758.002788	0.163120
758.198639	0.162933
758.394471	0.162854
758.590286	0.162754
758.786081	0.162546
758.981859	0.162041
759.177619	0.161921
759.373360	0.162225
759.569083	0.162372
759.764788	0.162252
759.960474	0.162242
760.156143	0.162133
760.351793	0.162348
760.547425	0.162245
760.743038	0.162592
760.938634	0.162536
761.134211	0.161924
761.329770	0.161787
761.525311	0.161680
761.720833	0.161499
761.916338	0.161631
762.111824	0.161114
762.307292	0.161062
762.502741	0.160649
762.698173	0.160730
762.893586	0.160971
763.088981	0.160919
763.284358	0.160840
763.479716	0.160779
763.675057	0.160300
763.870379	0.160118
764.065683	0.159927
764.260968	0.159909
764.456236	0.159449
764.651485	0.159004
764.846716	0.158812
765.041929	0.158607
765.237123	0.158542
765.432299	0.158449
765.627457	0.158632
765.822597	0.158730
766.017719	0.158642
766.212822	0.158771
766.407907	0.158871
766.602974	0.158914
766.798023	0.158876
766.993054	0.158813
767.188066	0.158760
767.383060	0.158527
767.578036	0.158392
767.772993	0.158275
767.967933	0.158183
768.162854	0.158241
768.357757	0.158046
768.552642	0.158106
768.747508	0.157993
768.942356	0.158184
769.137186	0.158238
769.331998	0.158269
769.526792	0.158275
769.721567	0.158007
769.916324	0.157742
770.111063	0.157832
770.305784	0.157714
770.500486	0.157880
770.695171	0.157756
770.889837	0.157967
771.084484	0.157918
771.279114	0.157795
771.473725	0.157648
771.668318	0.157586
771.862893	0.157516
772.057450	0.157063
772.251988	0.157039
772.446509	0.156811
772.641011	0.156598
772.835494	0.156457
773.029960	0.156458
773.224407	0.156677
773.418836	0.156953
773.613247	0.156829
773.807640	0.157148
774.002014	0.156961
774.196370	0.156886
774.390708	0.156629
774.585028	0.156558
774.779330	0.156472
774.973613	0.156456
775.167878	0.156094
775.362125	0.156096
775.556354	0.156103
775.750564	0.155910
775.944756	0.156012
776.138930	0.156132
776.333086	0.156117
776.527223	0.156069
776.721343	0.155882
776.915444	0.155803
777.109526	0.155673
777.303591	0.155643
777.497637	0.155778
777.691666	0.155585
777.885676	0.155207
778.079667	0.155218
778.273641	0.155346
778.467596	0.155530
778.661533	0.155688
778.855452	0.155675
779.049352	0.155763
779.243235	0.155623
779.437099	0.155937
779.630945	0.156176
779.824773	0.156126
780.018582	0.155896
780.212373	0.155939
780.406146	0.156071
780.599901	0.156233
780.793638	0.156083
780.987356	0.156109
781.181056	0.156082
781.374738	0.156128
781.568402	0.156114
781.762047	0.156118
781.955674	0.155872
782.149283	0.155528
782.342874	0.155505
782.536447	0.155511
782.730001	0.155332
782.923537	0.155237
783.117055	0.154964
783.310555	0.154799
783.504036	0.154680
783.697499	0.154721
783.890944	0.154907
784.084371	0.154786
784.277780	0.154826
784.471170	0.155099
784.664542	0.155163
784.857896	0.155427
785.051231	0.155507
785.244549	0.155902
785.437848	0.156107
785.631129	0.156085
785.824392	0.156259
786.017636	0.155988
786.210863	0.156052
786.404071	0.155729
786.597260	0.155870
786.790432	0.155919
786.983585	0.155598
787.176721	0.155357
787.369838	0.155359
787.562936	0.155258
787.756017	0.155789
787.949079	0.155685
788.142123	0.155823
788.335149	0.155680
788.528156	0.155635
788.721146	0.155834
788.914117	0.155844
789.107070	0.155808
789.300005	0.155789
789.492921	0.155458
789.685819	0.155299
789.878699	0.155408
790.071561	0.155488
790.264405	0.155432
790.457230	0.155256
790.650037	0.155164
790.842826	0.155278
791.035597	0.155135
791.228349	0.155188
791.421084	0.155261
791.613800	0.155133
791.806497	0.154911
791.999177	0.154984
792.191838	0.155097
792.384481	0.155153
792.577106	0.155038
792.769713	0.155228
792.962301	0.155104
793.154871	0.155028
793.347423	0.154927
793.539957	0.154987
793.732473	0.154936
793.924970	0.155008
794.117449	0.155050
794.309910	0.155004
794.502353	0.155047
794.694777	0.155317
794.887183	0.155589
795.079571	0.155873
795.271941	0.155943
795.464293	0.156135
795.656626	0.156052
795.848941	0.156025
796.041238	0.156272
796.233516	0.156128
796.425777	0.156180
796.618019	0.156107
796.810243	0.156161
797.002449	0.156228
797.194636	0.156122
797.386805	0.156318
797.578956	0.156130
797.771089	0.155850
797.963204	0.155672
798.155300	0.155585
798.347378	0.155478
798.539438	0.155315
798.731480	0.155363
798.923503	0.155521
799.115509	0.155757
799.307496	0.155979
799.499465	0.155951
799.691415	0.156566
799.883348	0.156604
800.075262	0.156847
800.267158	0.156908
800.459035	0.156800
800.650895	0.157196
800.842736	0.157079
801.034559	0.157303
801.226364	0.157855
801.418150	0.157838
801.609919	0.157985
801.801669	0.157967
801.993401	0.158211
802.185114	0.158704
802.376810	0.158566
802.568487	0.158670
802.760146	0.158717
802.951787	0.158604
803.143409	0.158513
803.335014	0.158475
803.526600	0.158652
803.718168	0.158690
803.909717	0.158605
804.101249	0.158776
804.292762	0.158905
804.484257	0.158911
804.675734	0.158957
804.867192	0.159045
805.058632	0.159389
805.250054	0.159618
805.441458	0.159539
805.632844	0.159643
805.824211	0.159557
806.015561	0.159527
806.206891	0.159626
806.398204	0.159712
806.589499	0.159954
806.780775	0.159823
806.972033	0.159592
807.163273	0.159700
807.354495	0.159908
807.545698	0.159981
807.736883	0.160205
807.928050	0.160702
808.119199	0.160796
808.310329	0.160794
808.501441	0.161060
808.692535	0.161289
808.883611	0.161558
809.074669	0.161346
809.265708	0.161409
809.456729	0.161554
809.647732	0.161265
809.838717	0.161318
810.029683	0.161474
810.220632	0.161323
810.411562	0.161532
810.602474	0.161895
810.793367	0.162159
810.984242	0.162448
811.175100	0.162480
811.365938	0.162711
811.556759	0.162930
811.747562	0.162878
811.938346	0.163096
812.129112	0.162996
812.319860	0.162932
812.510589	0.163090
812.701300	0.162888
812.891994	0.162814
813.082668	0.162837
813.273325	0.162956
813.463964	0.163052
813.654584	0.163190
813.845186	0.163282
814.035769	0.163249
814.226335	0.163079
814.416882	0.163659
814.607411	0.163949
814.797922	0.164186
814.988415	0.164461
815.178889	0.164693
815.369345	0.164808
815.559783	0.165109
815.750203	0.165238
815.940605	0.165564
816.130988	0.165586
816.321353	0.165453
816.511700	0.165465
816.702028	0.165364
816.892339	0.165413
817.082631	0.165896
817.272905	0.165741
817.463161	0.165954
817.653398	0.165685
817.843617	0.165346
818.033819	0.165761
818.224001	0.165965
818.414166	0.166198
818.604312	0.166414
818.794440	0.166203
818.984550	0.166705
819.174642	0.166880
819.364716	0.167567
819.554771	0.167938
819.744808	0.167940
819.934827	0.168166
820.124827	0.168158
820.314810	0.168230
820.504774	0.168303
820.694720	0.168195
820.884647	0.168171
821.074557	0.168067
821.264448	0.168176
821.454321	0.168190
821.644176	0.168009
821.834012	0.168118
822.023831	0.168120
822.213631	0.168134
822.403413	0.168465
822.593176	0.168789
822.782922	0.168791
822.972649	0.168719
823.162358	0.168830
823.352049	0.169256
823.541721	0.169419
823.731376	0.169800
823.921012	0.170130
824.110629	0.170032
824.300229	0.169971
824.489811	0.170194
824.679374	0.170744
824.868919	0.170986
825.058445	0.170958
825.247954	0.171108
825.437444	0.170873
825.626916	0.171027
825.816370	0.171332
826.005806	0.171656
826.195223	0.171998
826.384622	0.171911
826.574003	0.172136
826.763366	0.172576
826.952711	0.172737
827.142037	0.173337
827.331345	0.173608
827.520635	0.173622
827.709906	0.173589
827.899160	0.173815
828.088395	0.174201
828.277612	0.174527
828.466810	0.174309
828.655991	0.174675
828.845153	0.174918
829.034297	0.174741
829.223423	0.175188
829.412531	0.175656
829.601620	0.175614
829.790691	0.175575
829.979744	0.175603
830.168779	0.176117
830.357795	0.176177
830.546793	0.176156
830.735773	0.176195
830.924735	0.176050
831.113679	0.176009
831.302604	0.176304
831.491511	0.176782
831.680400	0.176877
831.869271	0.176972
832.058123	0.177053
832.246957	0.177346
832.435773	0.177912
832.624571	0.178229
832.813351	0.178485
833.002112	0.178756
833.190855	0.178798
833.379580	0.179220
833.568287	0.179445
833.756975	0.180009
833.945645	0.180130
834.134297	0.180073
834.322931	0.180509
834.511547	0.180783
834.700144	0.180697
834.888723	0.181061
835.077284	0.181062
835.265826	0.181244
835.454351	0.181247
835.642857	0.181487
835.831345	0.181934
836.019815	0.182300
836.208266	0.182592
836.396699	0.182801
836.585114	0.182990
836.773511	0.183355
836.961890	0.183703
837.150250	0.184058
837.338592	0.184121
837.526916	0.184477
837.715222	0.184244
837.903510	0.184333
838.091779	0.184894
838.280030	0.184900
838.468263	0.184915
838.656477	0.184689
838.844674	0.184620
839.032852	0.185011
839.221012	0.185126
839.409153	0.185464
839.597277	0.185679
839.785382	0.185808
839.973469	0.186123
840.161538	0.186466
840.349589	0.186888
840.537621	0.187266
840.725635	0.187188
840.913631	0.187479
841.101609	0.187723
841.289568	0.187709
841.477509	0.187908
841.665432	0.188145
841.853337	0.188150
842.041224	0.188278
842.229092	0.188383
842.416942	0.188560
842.604774	0.188464
842.792588	0.188742
842.980383	0.189300
843.168160	0.189455
843.355919	0.189686
843.543660	0.189715
843.731382	0.190353
843.919087	0.190591
844.106773	0.191198
844.294441	0.191543
844.482090	0.191694
844.669722	0.191786
844.857335	0.191963
845.044930	0.192099
845.232507	0.192558
845.420065	0.192473
845.607605	0.192891
845.795127	0.193023
845.982631	0.193183
846.170117	0.192980
846.357584	0.192904
846.545033	0.193180
846.732464	0.193160
846.919877	0.193415
847.107272	0.193404
847.294648	0.193340
847.482006	0.193461
847.669346	0.194010
847.856667	0.194357
848.043971	0.194954
848.231256	0.194935
848.418523	0.195357
848.605771	0.195562
848.793002	0.195981
848.980214	0.196475
849.167408	0.196823
849.354584	0.196611
849.541742	0.197228
849.728881	0.197123
849.916002	0.197400
850.103105	0.197655
850.290190	0.197947
850.477256	0.198111
850.664304	0.198127
850.851334	0.198260
851.038346	0.198774
851.225340	0.198812
851.412315	0.199046
851.599272	0.199017
851.786211	0.198919
851.973132	0.199378
852.160034	0.199670
852.346918	0.199927
852.533784	0.200336
852.720632	0.200150
852.907462	0.200311
853.094273	0.200542
853.281066	0.201074
853.467841	0.201487
853.654598	0.201508
853.841336	0.201502
854.028056	0.201644
854.214758	0.201471
854.401442	0.201679
854.588107	0.202306
854.774755	0.202196
854.961384	0.202431
855.147995	0.202576
855.334587	0.203006
855.521162	0.203539
855.707718	0.203693
855.894256	0.203790
856.080775	0.204344
856.267277	0.204236
856.453760	0.205017
856.640225	0.205430
856.826672	0.205668
857.013101	0.205642
857.199511	0.205721
857.385903	0.205636
857.572277	0.206149
857.758633	0.206287
857.944970	0.206147
858.131290	0.206315
858.317591	0.206507
858.503873	0.206785
858.690138	0.206882
858.876384	0.206937
859.062612	0.207390
859.248822	0.207288
859.435014	0.207304
859.621188	0.207494
859.807343	0.207388
859.993480	0.207263
860.179599	0.206976
860.365699	0.207137
860.551781	0.207307
860.737846	0.207542
860.923891	0.207999
861.109919	0.208423
861.295929	0.208949
861.481920	0.209039
861.667893	0.209371
861.853848	0.209801
862.039784	0.209967
862.225702	0.210289
862.411603	0.210463
862.597484	0.210314
862.783348	0.210375
862.969193	0.210455
863.155021	0.210785
863.340830	0.210844
863.526620	0.211125
863.712393	0.211374
863.898147	0.211652
864.083883	0.211572
864.269601	0.212058
864.455301	0.212139
864.640982	0.212037
864.826645	0.212255
865.012290	0.212629
865.197917	0.213167
865.383526	0.213341
865.569116	0.213197
865.754688	0.213682
865.940242	0.213651
866.125777	0.213796
866.311295	0.214378
866.496794	0.214742
866.682275	0.214697
866.867737	0.214549
867.053182	0.214792
867.238608	0.215128
867.424016	0.215219
867.609406	0.215349
867.794778	0.215529
867.980131	0.215518
868.165466	0.215537
868.350783	0.215611
868.536082	0.215498
868.721362	0.215481
868.906625	0.215390
869.091869	0.215763
869.277094	0.216240
869.462302	0.216224
869.647491	0.216264
869.832662	0.216284
870.017815	0.216637
870.202950	0.216974
870.388066	0.217190
870.573165	0.217132
870.758245	0.217009
870.943306	0.216573
871.128350	0.216737
871.313375	0.216498
871.498382	0.216449
871.683371	0.216231
871.868342	0.215854
872.053294	0.216264
872.238229	0.216570
872.423144	0.216678
872.608042	0.216851
872.792922	0.216937
872.977783	0.217526
873.162626	0.217483
873.347451	0.217323
873.532258	0.217830
873.717046	0.217364
873.901816	0.217359
874.086568	0.217176
874.271302	0.216966
874.456017	0.217064
874.640715	0.216939
874.825394	0.217430
875.010055	0.218175
875.194697	0.218107
875.379322	0.218184
875.563928	0.218855
875.748516	0.219177
875.933085	0.219626
876.117637	0.219856
876.302170	0.220100
876.486685	0.219919
876.671182	0.219269
876.855661	0.219427
877.040121	0.219610
877.224563	0.219162
877.408987	0.218778
877.593393	0.218784
877.777780	0.219155
877.962150	0.219370
878.146501	0.219226
878.330833	0.219782
878.515148	0.220096
878.699444	0.220016
878.883722	0.220113
879.067982	0.220849
879.252224	0.220882
879.436447	0.220508
879.620653	0.220128
879.804840	0.220716
879.989008	0.220487
880.173159	0.220368
880.357291	0.220441
880.541405	0.220331
880.725501	0.219850
880.909579	0.220117
881.093638	0.220303
881.277680	0.220219
881.461703	0.220154
881.645707	0.220612
881.829694	0.220832
882.013662	0.221082
882.197612	0.221011
882.381544	0.221367
882.565458	0.221279
882.749353	0.221217
882.933230	0.221828
883.117089	0.221999
883.300930	0.221841
883.484753	0.221669
883.668557	0.221729
883.852343	0.222368
884.036111	0.222203
884.219861	0.222393
884.403592	0.222428
884.587305	0.222508
884.771000	0.222376
884.954677	0.222537
885.138335	0.222743
885.321976	0.222720
885.505598	0.222736
885.689201	0.222961
885.872787	0.223036
886.056354	0.223561
886.239904	0.223383
886.423434	0.223075
886.606947	0.223107
886.790442	0.223217
886.973918	0.222899
887.157376	0.223022
887.340816	0.223135
887.524237	0.223225
887.707641	0.222873
887.891026	0.223079
888.074393	0.223146
888.257741	0.223306
888.441072	0.222676
888.624384	0.223065
888.807678	0.222487
888.990954	0.222365
889.174211	0.222214
889.357451	0.222316
889.540672	0.221862
889.723875	0.222359
889.907059	0.222133
890.090226	0.222435
890.273374	0.222404
890.456504	0.222331
890.639616	0.222399
890.822709	0.221782
891.005785	0.220900
891.188842	0.220865
891.371881	0.220456
891.554901	0.220071
891.737904	0.220299
891.920888	0.220151
892.103854	0.220312
892.286802	0.219953
892.469731	0.220405
892.652643	0.220710
892.835536	0.220777
893.018410	0.220815
893.201267	0.221166
893.384106	0.221153
893.566926	0.221217
893.749728	0.221411
893.932511	0.221447
894.115277	0.221419
894.298024	0.221262
894.480753	0.221316
894.663464	0.220920
894.846157	0.220710
895.028831	0.220483
895.211487	0.220015
895.394125	0.219495
895.576745	0.219612
895.759346	0.219374
895.941930	0.219884
896.124495	0.219738
896.307041	0.219989
896.489570	0.219492
896.672080	0.219058
896.854573	0.219311
897.037046	0.219179
897.219502	0.219062
897.401940	0.218994
897.584359	0.218946
897.766760	0.218693
897.949143	0.218602
898.131507	0.219148
898.313854	0.219566
898.496182	0.219235
898.678492	0.219119
898.860783	0.218752
899.043057	0.219207
899.225312	0.218919
899.407549	0.218727
899.589768	0.218191
899.771968	0.217989
899.954151	0.217354
900.136315	0.217237
900.318461	0.217355
900.500588	0.217067
900.682698	0.216660
900.864789	0.216445
901.046862	0.216232
901.228917	0.216457
901.410953	0.215929
901.592971	0.215883
901.774972	0.215862
901.956953	0.215759
902.138917	0.215951
902.320862	0.215503
902.502790	0.215231
902.684699	0.215321
902.866589	0.214451
903.048462	0.214707
903.230316	0.214557
903.412152	0.214397
903.593970	0.214283
903.775770	0.213697
903.957551	0.213570
904.139314	0.213081
904.321059	0.212808
904.502786	0.213165
904.684494	0.212493
904.866185	0.211622
905.047857	0.211357
905.229510	0.211322
905.411146	0.211216
905.592763	0.210975
905.774363	0.211213
905.955943	0.211162
906.137506	0.211556
906.319051	0.211457
906.500577	0.212166
906.682085	0.212135
906.863575	0.211832
907.045046	0.212005
907.226500	0.211665
907.407935	0.211737
907.589352	0.211137
907.770750	0.210547
907.952131	0.210738
908.133493	0.210374
908.314837	0.210445
908.496163	0.209875
908.677470	0.209431
908.858760	0.209814
909.040031	0.209252
909.221284	0.209480
909.402518	0.208926
909.583735	0.208178
909.764933	0.207649
909.946113	0.206948
910.127275	0.206986
910.308418	0.206741
910.489544	0.205697
910.670651	0.205719
910.851740	0.205493
911.032810	0.205698
911.213863	0.205650
911.394897	0.205903
911.575913	0.205090
911.756911	0.204472
911.937890	0.204297
912.118851	0.204350
912.299794	0.203877
912.480719	0.202976
912.661626	0.202705
912.842514	0.202538
913.023384	0.201875
913.204236	0.201790
913.385070	0.201695
913.565886	0.200985
913.746683	0.200578
913.927462	0.200095
914.108223	0.200339
914.288965	0.199888
914.469690	0.199412
914.650396	0.198948
914.831084	0.198944
915.011754	0.198774
915.192405	0.198774
915.373038	0.198537
915.553653	0.198295
915.734250	0.197940
915.914829	0.197779
916.095389	0.197529
916.275931	0.197691
916.456455	0.197604
916.636961	0.197252
916.817448	0.196946
916.997917	0.196185
917.178368	0.195987
917.358801	0.196018
917.539216	0.195268
917.719612	0.195344
917.899990	0.194879
918.080350	0.194112
918.260692	0.194271
918.441015	0.194279
918.621320	0.194546
918.801607	0.193968
918.981876	0.193346
919.162127	0.193209
919.342359	0.192627
919.522573	0.192102
919.702769	0.192063
919.882947	0.190775
920.063106	0.190207
920.243247	0.189795
920.423370	0.189144
920.603475	0.188359
920.783562	0.187625
920.963630	0.186802
921.143680	0.186535
921.323712	0.186057
921.503725	0.185692
921.683721	0.185045
921.863698	0.184565
922.043657	0.184169
922.223598	0.184216
922.403520	0.183379
922.583424	0.183360
922.763311	0.182884
922.943178	0.182251
923.123028	0.181880
923.302859	0.181793
923.482673	0.181171
923.662467	0.181145
923.842244	0.180720
924.022003	0.181146
924.201743	0.180288
924.381465	0.179806
924.561169	0.179108
924.740854	0.179100
924.920522	0.178637
925.100171	0.178135
925.279802	0.177603
925.459414	0.177220
925.639009	0.176413
925.818585	0.176159
925.998143	0.175472
926.177683	0.175491
926.357205	0.175268
926.536708	0.174129
926.716193	0.173784
926.895660	0.173209
927.075109	0.172782
927.254539	0.172697
927.433951	0.172597
927.613345	0.173112
927.792721	0.172338
927.972079	0.171656
928.151418	0.171194
928.330739	0.170520
928.510042	0.169844
928.689327	0.169122
928.868593	0.168595
929.047841	0.167395
929.227071	0.165929
929.406283	0.165873
929.585476	0.164745
929.764652	0.165026
929.943809	0.165415
930.122948	0.165471
930.302068	0.164992
930.481171	0.164640
930.660255	0.164407
930.839321	0.163583
931.018369	0.162849
931.197398	0.162631
931.376409	0.161839
931.555402	0.160857
931.734377	0.159684
931.913334	0.158556
932.092272	0.157994
932.271192	0.157968
932.450094	0.158227
932.628978	0.157859
932.807844	0.157769
932.986691	0.156734
933.165520	0.156151
933.344331	0.156640
933.523123	0.156355
933.701898	0.155892
933.880654	0.155313
934.059392	0.154338
934.238111	0.154074
934.416813	0.152772
934.595496	0.152922
934.774161	0.151835
934.952808	0.150805
935.131437	0.150607
935.310047	0.149543
935.488639	0.148825
935.667213	0.148649
935.845769	0.147224
936.024306	0.147017
936.202825	0.145708
936.381326	0.145865
936.559809	0.144708
936.738274	0.144256
936.916720	0.143847
937.095148	0.143559
937.273558	0.142376
937.451950	0.142501
937.630323	0.141290
937.808678	0.141199
937.987015	0.140255
938.165334	0.140537
938.343635	0.139638
938.521917	0.138819
938.700181	0.138587
938.878427	0.139102
939.056655	0.138650
939.234864	0.139214
939.413055	0.138755
939.591228	0.138603
939.769383	0.138281
939.947519	0.137108
940.125638	0.136406
940.303738	0.135162
940.481820	0.134325
940.659883	0.132936
940.837929	0.132539
941.015956	0.131880
941.193965	0.131414
941.371955	0.129933
941.549928	0.130302
941.727882	0.129979
941.905818	0.128458
942.083736	0.127913
942.261636	0.128434
942.439517	0.126312
942.617380	0.126041
942.795225	0.124661
942.973052	0.123957
943.150860	0.123176
943.328651	0.122872
943.506423	0.123692
943.684176	0.122602
943.861912	0.121337
944.039629	0.119284
944.217328	0.117707
944.395009	0.117083
944.572672	0.117181
944.750317	0.115988
944.927943	0.114591
945.105551	0.112017
945.283141	0.111601
945.460712	0.110938
945.638265	0.114784
945.815801	0.113430
945.993317	0.112747
946.170816	0.110609
946.348297	0.110226
946.525759	0.109651
946.703203	0.110569
946.880629	0.109431
947.058036	0.108446
947.235425	0.105424
947.412797	0.107137
947.590149	0.107225
947.767484	0.106939
947.944800	0.105688
948.122099	0.105595
948.299379	0.105368
948.476640	0.106273
948.653884	0.106785
948.831109	0.107779
949.008316	0.106536
949.185505	0.107285
949.362676	0.107455
949.539828	0.107202
949.716962	0.105991
949.894078	0.104658
950.071176	0.102365
950.248256	0.101755
950.425317	0.100369
950.602360	0.100049
950.779385	0.098094
950.956391	0.097435
951.133380	0.098118
951.310350	0.098266
951.487302	0.097759
951.664235	0.098047
951.841151	0.096299
952.018048	0.096119
952.194927	0.094686
952.371788	0.094950
952.548631	0.093907
952.725455	0.093539
952.902261	0.093138
953.079049	0.091957
953.255819	0.091660
953.432570	0.094356
953.609303	0.094119
953.786018	0.095951
953.962715	0.094737
954.139394	0.094843
954.316054	0.094797
954.492696	0.094966
954.669320	0.095109
954.845926	0.093646
955.022513	0.091725
955.199083	0.090213
955.375634	0.086492
955.552166	0.085666
955.728681	0.085996
955.905177	0.084314
956.081655	0.083504
956.258115	0.083571
956.434557	0.084075
956.610980	0.081316
956.787385	0.079397
956.963772	0.080968
957.140141	0.082385
957.316492	0.081441
957.492824	0.080850
957.669138	0.080202
957.845434	0.080462
958.021712	0.079217
958.197971	0.079999
958.374212	0.081000
958.550435	0.080294
958.726640	0.080126
958.902826	0.078270
959.078995	0.077850
959.255145	0.076408
959.431277	0.075378
959.607390	0.074790
959.783486	0.073831
959.959563	0.073043
960.135622	0.072033
960.311662	0.070349
960.487685	0.070024
960.663689	0.070392
960.839675	0.070437
961.015643	0.069340
961.191593	0.069206
961.367524	0.067807
961.543437	0.068731
961.719332	0.068729
961.895209	0.069176
962.071067	0.073013
962.246907	0.072210
962.422730	0.072627
962.598533	0.073078
962.774319	0.074631
962.950086	0.076272
963.125835	0.073915
963.301566	0.076720
963.477279	0.078763
963.652973	0.076137
963.828650	0.076630
964.004308	0.076477
964.179947	0.075196
964.355569	0.071833
964.531172	0.070699
964.706757	0.072773
964.882324	0.070543
965.057873	0.064775
965.233403	0.066655
965.408916	0.065356
965.584410	0.066865
965.759885	0.067236
965.935343	0.068462
966.110782	0.068314
966.286203	0.066765
966.461606	0.064861
966.636991	0.068526
966.812357	0.066933
966.987705	0.069407
967.163035	0.067112
967.338347	0.066068
967.513641	0.065629
967.688916	0.067323
967.864173	0.069131
968.039412	0.071868
968.214632	0.070021
968.389835	0.070512
968.565019	0.071257
968.740185	0.074046
968.915333	0.073295
969.090462	0.074445
969.265573	0.075629
969.440667	0.074052
969.615741	0.072381
969.790798	0.073036
969.965836	0.071530
970.140856	0.069976
970.315858	0.068811
970.490842	0.072207
970.665808	0.073157
970.840755	0.070589
971.015684	0.069202
971.190595	0.070507
971.365487	0.069477
971.540362	0.069644
971.715218	0.067674
971.890056	0.066499
972.064875	0.064308
972.239677	0.062963
972.414460	0.064396
972.589225	0.065602
972.763972	0.061841
972.938700	0.061798
973.113411	0.062179
973.288103	0.061579
973.462777	0.062932
973.637432	0.066050
973.812070	0.066195
973.986689	0.064324
974.161290	0.065687
974.335873	0.068536
974.510437	0.069734
974.684984	0.071103
974.859512	0.073275
975.034022	0.072319
975.208513	0.070511
975.382987	0.070169
975.557442	0.072711
975.731879	0.072094
975.906298	0.069286
976.080698	0.069530
976.255080	0.068900
976.429445	0.066498
976.603790	0.065230
976.778118	0.065094
976.952427	0.065971
977.126719	0.064440
977.300992	0.063820
977.475246	0.066667
977.649483	0.064574
977.823701	0.065683
977.997901	0.068189
978.172083	0.069581
978.346247	0.068184
978.520392	0.066283
978.694519	0.064634
978.868628	0.069243
979.042719	0.069880
979.216791	0.070005
979.390845	0.067306
979.564882	0.065043
979.738899	0.064545
979.912899	0.064733
980.086880	0.067721
980.260843	0.069373
980.434788	0.064961
980.608715	0.063495
980.782623	0.064771
980.956514	0.064954
981.130386	0.066707
981.304240	0.068196
981.478075	0.069293
981.651892	0.066463
981.825692	0.067088
981.999472	0.068756
982.173235	0.069333
982.346980	0.067804
982.520706	0.068206
982.694414	0.066094
982.868104	0.064265
983.041775	0.063331
983.215428	0.064910
983.389064	0.064471
983.562680	0.063709
983.736279	0.064012
983.909860	0.064517
984.083422	0.063825
984.256966	0.064234
984.430491	0.063933
984.603999	0.063622
984.777488	0.063874
984.950959	0.064097
985.124412	0.062229
985.297847	0.064244
985.471263	0.064863
985.644661	0.065211
985.818041	0.066110
985.991403	0.065155
986.164747	0.065360
986.338072	0.064594
986.511379	0.065052
986.684668	0.068198
986.857938	0.066377
987.031191	0.067103
987.204425	0.068811
987.377641	0.067561
987.550839	0.068905
987.724018	0.070190
987.897179	0.069975
988.070322	0.070001
988.243447	0.067290
988.416554	0.065496
988.589642	0.064921
988.762712	0.064104
988.935764	0.065309
989.108798	0.064767
989.281813	0.064672
989.454811	0.064194
989.627790	0.062616
989.800751	0.062914
989.973693	0.066730
990.146617	0.067168
990.319524	0.066122
990.492412	0.066435
990.665281	0.066060
990.838133	0.064873
991.010966	0.064029
991.183781	0.064332
991.356578	0.065009
991.529356	0.063542
991.702117	0.060644
991.874859	0.060906
992.047583	0.061132
992.220288	0.062567
992.392976	0.064333
992.565645	0.063571
992.738296	0.062406
992.910929	0.061572
993.083543	0.061591
993.256139	0.063509
993.428718	0.064535
993.601277	0.063407
993.773819	0.062272
993.946342	0.063203
994.118848	0.065153
994.291335	0.067053
994.463803	0.066212
994.636254	0.065187
994.808686	0.064758
994.981100	0.064030
995.153496	0.064662
995.325874	0.065878
995.498233	0.063700
995.670574	0.062043
995.842897	0.062175
996.015202	0.063466
996.187488	0.063179
996.359757	0.063165
996.532007	0.061971
996.704239	0.063241
996.876452	0.064529
997.048648	0.064118
997.220825	0.065529
997.392984	0.064852
997.565124	0.065446
997.737247	0.065647
997.909351	0.067836
998.081437	0.068423
998.253505	0.066677
998.425554	0.065446
998.597586	0.065040
998.769599	0.065155
998.941594	0.066089
999.113571	0.063451
999.285529	0.063913
999.457469	0.062769
999.629391	0.063270
999.801295	0.063736
999.973181	0.064361
1000.145048	0.064942
1000.316897	0.064658
1000.488728	0.063739
1000.660541	0.066434
1000.832335	0.066321
1001.004111	0.067002
1001.175869	0.065675
1001.347609	0.065719
1001.519331	0.064254
1001.691034	0.064269
1001.862719	0.063772
1002.034386	0.064137
1002.206035	0.062971
1002.377665	0.061774
1002.549277	0.061098
1002.720871	0.063256
1002.892447	0.062064
1003.064004	0.063076
1003.235544	0.064184
1003.407065	0.063708
1003.578568	0.062101
1003.750052	0.064095
1003.921519	0.063795
1004.092967	0.063060
1004.264397	0.061505
1004.435809	0.062651
1004.607202	0.061039
1004.778577	0.060931
1004.949934	0.062229
1005.121273	0.061984
1005.292594	0.058397
1005.463896	0.059559
1005.635180	0.058449
1005.806446	0.058061
1005.977694	0.058066
1006.148923	0.057545
1006.320135	0.057987
1006.491328	0.058250
1006.662503	0.060134
1006.833659	0.063261
1007.004798	0.063593
1007.175918	0.065085
1007.347020	0.066231
1007.518103	0.063814
1007.689169	0.065735
1007.860216	0.064862
1008.031245	0.062655
1008.202256	0.061900
1008.373248	0.060000
1008.544223	0.060651
1008.715179	0.057704
1008.886117	0.057434
1009.057036	0.058797
1009.227938	0.058705
1009.398821	0.058080
1009.569686	0.058120
1009.740533	0.057388
1009.911361	0.056781
1010.082172	0.056568
1010.252964	0.058241
1010.423738	0.058242
1010.594493	0.057723
1010.765231	0.057810
1010.935950	0.058950
1011.106651	0.060708
1011.277334	0.060998
1011.447998	0.061519
1011.618645	0.060297
1011.789273	0.060608
1011.959882	0.061986
1012.130474	0.063110
1012.301048	0.063623
1012.471603	0.062528
1012.642140	0.062356
1012.812658	0.063798
1012.983159	0.064610
1013.153641	0.064639
1013.324105	0.065297
1013.494551	0.064667
1013.664979	0.066372
1013.835388	0.065233
1014.005779	0.065804
1014.176152	0.064884
1014.346507	0.063962
1014.516843	0.063816
1014.687162	0.065117
1014.857462	0.064385
1015.027744	0.066577
1015.198007	0.066272
1015.368252	0.066607
1015.538480	0.065966
1015.708689	0.067581
1015.878879	0.067102
1016.049052	0.066286
1016.219206	0.065053
1016.389342	0.064046
1016.559460	0.059996
1016.729559	0.059431
1016.899641	0.058853
1017.069704	0.058026
1017.239749	0.056269
1017.409775	0.055603
1017.579784	0.055169
1017.749774	0.054682
1017.919746	0.056801
1018.089700	0.058206
1018.259635	0.057061
1018.429553	0.056651
1018.599452	0.058467
1018.769333	0.058057
1018.939195	0.059297
1019.109040	0.061177
1019.278866	0.061669
1019.448674	0.059977
1019.618464	0.058699
1019.788235	0.058579
1019.957989	0.058564
1020.127724	0.057861
1020.297441	0.058343
1020.467139	0.058230
1020.636820	0.057051
1020.806482	0.057595
1020.976126	0.059059
1021.145752	0.061103
1021.315359	0.060902
1021.484948	0.060861
1021.654519	0.059648
1021.824072	0.059825
1021.993607	0.059377
1022.163123	0.059291
1022.332621	0.058691
1022.502101	0.057780
1022.671563	0.057210
1022.841007	0.056778
1023.010432	0.057020
1023.179839	0.057185
1023.349228	0.058896
1023.518598	0.058371
1023.687951	0.058592
1023.857285	0.058351
1024.026601	0.057776
1024.195899	0.054942
1024.365178	0.054455
1024.534439	0.054333
1024.703682	0.052655
1024.872907	0.051896
1025.042114	0.052631
1025.211302	0.052185
1025.380472	0.051557
1025.549624	0.053860
1025.718758	0.056839
1025.887873	0.058991
1026.056970	0.059863
1026.226049	0.061470
1026.395110	0.061544
1026.564153	0.060664
1026.733177	0.061135
1026.902183	0.061151
1027.071171	0.059678
1027.240141	0.058927
1027.409092	0.058896
1027.578026	0.057923
1027.746940	0.057465
1027.915837	0.054830
1028.084716	0.053720
1028.253576	0.054567
1028.422418	0.057154
1028.591242	0.056536
1028.760048	0.054920
1028.928835	0.053084
1029.097604	0.053505
1029.266355	0.055378
1029.435088	0.056906
1029.603803	0.058077
1029.772499	0.056570
1029.941177	0.054585
1030.109837	0.054010
1030.278478	0.054566
1030.447102	0.055395
1030.615707	0.056408
1030.784294	0.055038
1030.952863	0.055687
1031.121413	0.054950
1031.289945	0.053500
1031.458460	0.053127
1031.626955	0.053323
1031.795433	0.053892
1031.963892	0.053553
1032.132334	0.052885
1032.300756	0.053042
1032.469161	0.053800
1032.637548	0.056766
1032.805916	0.058565
1032.974266	0.058913
1033.142598	0.058719
1033.310911	0.058821
1033.479207	0.059281
1033.647484	0.058665
1033.815743	0.059291
1033.983983	0.059322
1034.152206	0.057228
1034.320410	0.056043
1034.488596	0.055289
1034.656764	0.056779
1034.824914	0.056554
1034.993045	0.056425
1035.161158	0.056761
1035.329253	0.055950
1035.497330	0.055387
1035.665388	0.054848
1035.833428	0.057524
1036.001450	0.058325
1036.169454	0.056830
1036.337440	0.058881
1036.505407	0.058027
1036.673356	0.057566
1036.841287	0.056277
1037.009200	0.054972
1037.177094	0.054873
1037.344970	0.053910
1037.512828	0.052584
1037.680668	0.052484
1037.848489	0.051010
1038.016293	0.052164
1038.184078	0.051565
1038.351845	0.053159
1038.519593	0.053242
1038.687324	0.053520
1038.855036	0.051843
1039.022730	0.054510
1039.190406	0.053640
1039.358063	0.053674
1039.525702	0.051770
1039.693323	0.051338
1039.860926	0.050270
1040.028511	0.051686
1040.196077	0.051753
1040.363625	0.053914
1040.531155	0.052913
1040.698667	0.054673
1040.866161	0.052907
1041.033636	0.055240
1041.201093	0.055894
1041.368532	0.057562
1041.535952	0.056748
1041.703355	0.056620
1041.870739	0.053870
1042.038105	0.052571
1042.205452	0.052107
1042.372782	0.053524
1042.540093	0.052858
1042.707386	0.053415
1042.874661	0.050889
1043.041918	0.050887
1043.209156	0.051331
1043.376376	0.053352
1043.543578	0.053946
1043.710762	0.054298
1043.877927	0.054875
1044.045074	0.053531
1044.212203	0.054088
1044.379314	0.056448
1044.546407	0.056086
1044.713481	0.056776
1044.880537	0.057344
1045.047575	0.056953
1045.214595	0.057428
1045.381596	0.055714
1045.548579	0.056538
1045.715544	0.054405
1045.882491	0.053921
1046.049420	0.052668
1046.216330	0.050902
1046.383222	0.049559
1046.550096	0.049619
1046.716951	0.050501
1046.883789	0.051014
1047.050608	0.051417
1047.217409	0.051761
1047.384192	0.050903
1047.550956	0.052859
1047.717703	0.053245
1047.884431	0.054358
1048.051140	0.056062
1048.217832	0.054587
1048.384505	0.054317
1048.551161	0.054863
1048.717798	0.057035
1048.884416	0.057125
1049.051017	0.057096
1049.217599	0.057310
1049.384163	0.056864
1049.550709	0.054568
1049.717237	0.052631
1049.883746	0.053340
1050.050237	0.053109
1050.216710	0.050338
1050.383165	0.049290
1050.549601	0.049483
1050.716019	0.051922
1050.882420	0.052420
1051.048801	0.053771
1051.215165	0.054759
1051.381510	0.053304
1051.547837	0.053274
1051.714146	0.055358
1051.880437	0.058019
1052.046709	0.057246
1052.212964	0.054924
1052.379200	0.054917
1052.545417	0.054598
1052.711617	0.054871
1052.877798	0.057405
1053.043961	0.056630
1053.210106	0.055970
1053.376233	0.055594
1053.542341	0.056872
1053.708432	0.057664
1053.874504	0.057315
1054.040557	0.055332
1054.206593	0.054999
1054.372610	0.054480
1054.538609	0.054439
1054.704590	0.055876
1054.870553	0.055055
1055.036497	0.054714
1055.202424	0.053440
1055.368331	0.053024
1055.534221	0.054114
1055.700093	0.056086
1055.865946	0.053538
1056.031781	0.053821
1056.197598	0.053252
1056.363397	0.055039
1056.529177	0.053572
1056.694939	0.053635
1056.860683	0.054630
1057.026409	0.054748
1057.192116	0.054483
1057.357806	0.058057
1057.523477	0.059570
1057.689130	0.058851
1057.854764	0.055992
1058.020381	0.058483
1058.185979	0.060604
1058.351559	0.058395
1058.517120	0.060255
1058.682664	0.060974
1058.848189	0.058733
1059.013696	0.056431
1059.179185	0.054768
1059.344656	0.056267
1059.510108	0.055258
1059.675542	0.051957
1059.840958	0.055577
1060.006356	0.053714
1060.171735	0.052409
1060.337096	0.053600
1060.502439	0.054968
1060.667764	0.055713
1060.833071	0.055590
1060.998359	0.055441
1061.163629	0.058091
1061.328881	0.055311
1061.494115	0.056138
1061.659330	0.056622
1061.824527	0.057348
1061.989706	0.057384
1062.154867	0.056835
1062.320010	0.057764
1062.485134	0.058813
1062.650240	0.056834
1062.815328	0.059670
1062.980398	0.060583
1063.145449	0.061084
1063.310482	0.060176
1063.475497	0.061506
1063.640494	0.062621
1063.805473	0.061675
1063.970433	0.060623
1064.135375	0.061281
1064.300299	0.059682
1064.465204	0.058492
1064.630092	0.056425
1064.794961	0.056960
1064.959812	0.054750
1065.124645	0.055450
1065.289459	0.055223
1065.454256	0.053493
1065.619034	0.055944
1065.783793	0.056565
1065.948535	0.055857
1066.113258	0.056662
1066.277964	0.056403
1066.442651	0.057064
1066.607319	0.056175
1066.771970	0.057483
1066.936602	0.058273
1067.101216	0.057750
1067.265812	0.055722
1067.430389	0.056882
1067.594949	0.058173
1067.759490	0.057049
1067.924013	0.056154
1068.088518	0.056415
1068.253004	0.054291
1068.417472	0.054204
1068.581922	0.051255
1068.746354	0.052169
1068.910768	0.053213
1069.075163	0.054201
1069.239540	0.054581
1069.403899	0.055020
1069.568240	0.057549
1069.732562	0.059404
1069.896866	0.058955
1070.061152	0.061264
1070.225420	0.062467
1070.389670	0.063030
1070.553901	0.060509
1070.718114	0.060465
1070.882309	0.060604
1071.046486	0.059651
1071.210644	0.058547
1071.374784	0.061499
1071.538906	0.061730
1071.703010	0.059745
1071.867096	0.059454
1072.031163	0.060609
1072.195212	0.062321
1072.359243	0.063221
1072.523256	0.062018
1072.687250	0.063391
1072.851226	0.061101
1073.015184	0.060287
1073.179124	0.059697
1073.343045	0.057522
1073.506949	0.058827
1073.670834	0.058386
1073.834701	0.056689
1073.998549	0.056192
1074.162380	0.056076
1074.326192	0.058153
1074.489986	0.058822
1074.653761	0.059655
1074.817519	0.059501
1074.981258	0.057322
1075.144979	0.059410
1075.308682	0.060599
1075.472367	0.061191
1075.636033	0.062069
1075.799681	0.063160
1075.963311	0.065201
1076.126923	0.067292
1076.290516	0.068618
1076.454092	0.068435
1076.617649	0.066358
1076.781187	0.069764
1076.944708	0.069670
1077.108210	0.068276
1077.271695	0.064869
1077.435160	0.062922
1077.598608	0.061126
1077.762038	0.061469
1077.925449	0.062200
1078.088842	0.061300
1078.252217	0.060822
1078.415573	0.063337
1078.578912	0.066044
1078.742232	0.065834
1078.905534	0.066445
1079.068817	0.069235
1079.232083	0.070612
1079.395330	0.073053
1079.558559	0.071802
1079.721770	0.070348
1079.884962	0.069922
1080.048136	0.066691
1080.211293	0.067792
1080.374430	0.067703
1080.537550	0.065115
1080.700651	0.065059
1080.863735	0.065644
1081.026800	0.066847
1081.189846	0.066846
1081.352875	0.065859
1081.515885	0.067401
1081.678877	0.067771
1081.841851	0.068990
1082.004807	0.069497
1082.167744	0.067769
1082.330663	0.067069
1082.493564	0.069781
1082.656447	0.067407
1082.819312	0.067958
1082.982158	0.068968
1083.144986	0.070130
1083.307796	0.069235
1083.470587	0.067880
1083.633361	0.069555
1083.796116	0.067467
1083.958853	0.065275
1084.121571	0.067378
1084.284272	0.066334
1084.446954	0.063586
1084.609618	0.062587
1084.772264	0.062291
1084.934892	0.061890
1085.097501	0.060233
1085.260092	0.058530
1085.422665	0.058395
1085.585220	0.058050
1085.747756	0.057852
1085.910274	0.057524
1086.072774	0.058825
1086.235256	0.058448
1086.397720	0.060747
1086.560165	0.061578
1086.722592	0.064334
1086.885001	0.064340
1087.047392	0.063703
1087.209764	0.063390
1087.372119	0.069951
1087.534455	0.069256
1087.696772	0.071174
1087.859072	0.069897
1088.021353	0.068302
1088.183616	0.068915
1088.345861	0.067146
1088.508088	0.067920
1088.670296	0.070038
1088.832486	0.064958
1088.994658	0.064768
1089.156812	0.063259
1089.318948	0.064603
1089.481065	0.066221
1089.643164	0.063784
1089.805245	0.065756
1089.967308	0.065447
1090.129352	0.063543
1090.291378	0.062392
1090.453386	0.062119
1090.615376	0.062194
1090.777347	0.062370
1090.939301	0.061459
1091.101236	0.063005
1091.263153	0.062288
1091.425051	0.063300
1091.586932	0.063560
1091.748794	0.063133
1091.910638	0.061103
1092.072463	0.059679
1092.234271	0.059288
1092.396060	0.059860
1092.557831	0.060165
1092.719584	0.058347
1092.881319	0.056836
1093.043035	0.058005
1093.204733	0.062846
1093.366413	0.065111
1093.528075	0.066932
1093.689718	0.067058
1093.851343	0.067253
1094.012950	0.067704
1094.174539	0.073462
1094.336110	0.075235
1094.497662	0.078753
1094.659196	0.076107
1094.820712	0.074963
1094.982210	0.076933
1095.143689	0.077609
1095.305151	0.078513
1095.466594	0.078216
1095.628018	0.078273
1095.789425	0.078778
1095.950813	0.076935
1096.112183	0.079610
1096.273535	0.080052
1096.434869	0.076965
1096.596184	0.075335
1096.757482	0.075926
1096.918761	0.076842
1097.080021	0.072784
1097.241264	0.070752
1097.402488	0.068304
1097.563694	0.064564
1097.724882	0.067069
1097.886052	0.068155
1098.047203	0.069327
1098.208336	0.067600
1098.369451	0.068229
1098.530548	0.071602
1098.691627	0.073781
1098.852687	0.075042
1099.013729	0.073829
1099.174753	0.073278
1099.335758	0.075785
1099.496746	0.075880
1099.657715	0.077513
1099.818666	0.077122
1099.979599	0.075109
1100.140513	0.073667
1100.301409	0.073693
1100.462287	0.076672
1100.623147	0.075404
1100.783989	0.074031
1100.944812	0.077093
1101.105617	0.079428
1101.266404	0.078450
1101.427173	0.076693
1101.587923	0.077842
1101.748656	0.075877
1101.909370	0.075025
1102.070066	0.076081
1102.230743	0.079376
1102.391403	0.078818
1102.552044	0.076375
1102.712667	0.079834
1102.873271	0.083561
1103.033858	0.082769
1103.194426	0.085929
1103.354976	0.084707
1103.515508	0.084210
1103.676021	0.080635
1103.836517	0.074750
1103.996994	0.073835
1104.157453	0.070213
1104.317893	0.068483
1104.478316	0.071800
1104.638720	0.070182
1104.799106	0.074187
1104.959474	0.075409
1105.119823	0.073429
1105.280155	0.077966
1105.440468	0.077823
1105.600763	0.076991
1105.761039	0.078933
1105.921298	0.074080
1106.081538	0.080715
1106.241760	0.077099
1106.401964	0.077357
1106.562149	0.081201
1106.722316	0.078762
1106.882465	0.080347
1107.042596	0.084381
1107.202709	0.083112
1107.362803	0.078653
1107.522879	0.069265
1107.682937	0.070642
1107.842977	0.070944
1108.002999	0.066529
1108.163002	0.072165
1108.322987	0.072828
1108.482954	0.070780
1108.642902	0.071534
1108.802833	0.077613
1108.962745	0.083402
1109.122639	0.080683
1109.282515	0.079600
1109.442372	0.085579
1109.602211	0.080693
1109.762032	0.080015
1109.921835	0.080987
1110.081620	0.076654
1110.241386	0.078207
1110.401134	0.078047
1110.560864	0.077969
1110.720576	0.079241
1110.880269	0.072507
1111.039945	0.073347
1111.199602	0.075347
1111.359240	0.075761
1111.518861	0.077771
1111.678463	0.080381
1111.838047	0.078874
1111.997613	0.083642
1112.157161	0.085958
1112.316690	0.089666
1112.476202	0.092572
1112.635695	0.089017
1112.795169	0.087055
1112.954626	0.088987
1113.114064	0.082671
1113.273484	0.082590
1113.432886	0.084762
1113.592270	0.080830
1113.751635	0.081603
1113.910983	0.083037
1114.070312	0.082260
1114.229622	0.082557
1114.388915	0.084895
1114.548189	0.086120
1114.707445	0.087717
1114.866683	0.085506
1115.025903	0.092309
1115.185104	0.091918
1115.344287	0.089327
1115.503452	0.090091
1115.662599	0.086539
1115.821727	0.085297
1115.980838	0.089105
1116.139930	0.091956
1116.299004	0.088801
1116.458059	0.079358
1116.617097	0.076503
1116.776116	0.071619
1116.935117	0.070311
1117.094099	0.072534
1117.253064	0.070290
1117.412010	0.069212
1117.570938	0.065860
1117.729848	0.067077
1117.888740	0.072797
1118.047613	0.077470
1118.206468	0.078894
1118.365305	0.082964
1118.524124	0.085788
1118.682924	0.085370
1118.841707	0.088814
1119.000471	0.083546
1119.159216	0.082879
1119.317944	0.080448
1119.476653	0.079941
1119.635344	0.081222
1119.794017	0.082196
1119.952672	0.076847
1120.111308	0.078561
1120.269927	0.079264
1120.428527	0.079893
1120.587108	0.084483
1120.745672	0.084191
1120.904217	0.084623
1121.062744	0.087253
1121.221253	0.085016
1121.379744	0.088594
1121.538216	0.090077
1121.696671	0.084380
1121.855107	0.091618
1122.013524	0.089533
1122.171924	0.092548
1122.330305	0.092340
1122.488668	0.096022
1122.647013	0.097078
1122.805340	0.101446
1122.963648	0.096796
1123.121938	0.098241
1123.280210	0.093427
1123.438464	0.091589
1123.596700	0.087024
1123.754917	0.084996
1123.913116	0.078271
1124.071297	0.078078
1124.229459	0.071593
1124.387604	0.075077
1124.545730	0.077083
1124.703838	0.074472
1124.861928	0.076372
1125.019999	0.075387
1125.178052	0.079441
1125.336088	0.083379
1125.494104	0.086510
1125.652103	0.092352
1125.810083	0.091136
1125.968045	0.084138
1126.125989	0.090420
1126.283915	0.086220
1126.441823	0.088532
1126.599712	0.084412
1126.757583	0.085324
1126.915436	0.074932
1127.073270	0.074665
1127.231087	0.077532
1127.388885	0.086758
1127.546665	0.087884
1127.704426	0.091687
1127.862170	0.090265
1128.019895	0.090027
1128.177602	0.088240
1128.335291	0.094128
1128.492961	0.092535
1128.650614	0.095320
1128.808248	0.093752
1128.965864	0.092054
1129.123461	0.089981
1129.281041	0.093708
1129.438602	0.095498
1129.596145	0.096644
1129.753670	0.098930
1129.911176	0.096361
1130.068665	0.094707
1130.226135	0.093549
1130.383587	0.093290
1130.541020	0.093198
1130.698436	0.089189
1130.855833	0.089390
1131.013212	0.083528
1131.170573	0.083091
1131.327915	0.084460
1131.485239	0.087264
1131.642545	0.085043
1131.799833	0.082995
1131.957103	0.081671
1132.114354	0.086400
1132.271588	0.091949
1132.428803	0.095933
1132.585999	0.097124
1132.743178	0.097236
1132.900338	0.093852
1133.057480	0.093922
1133.214604	0.095354
1133.371710	0.099801
1133.528797	0.098835
1133.685866	0.093369
1133.842917	0.090216
1133.999950	0.089324
1134.156964	0.091172
1134.313960	0.091280
1134.470938	0.089370
1134.627898	0.084974
1134.784840	0.084320
1134.941763	0.080540
1135.098668	0.081559
1135.255555	0.080955
1135.412424	0.081460
1135.569274	0.075975
1135.726107	0.076687
1135.882921	0.077197
1136.039716	0.077311
1136.196494	0.078295
1136.353253	0.082212
1136.509995	0.083430
1136.666717	0.087973
1136.823422	0.087157
1136.980109	0.085482
1137.136777	0.086487
1137.293427	0.093260
1137.450059	0.101435
1137.606672	0.107814
1137.763267	0.109271
1137.919844	0.100802
1138.076403	0.104697
1138.232944	0.106594
1138.389466	0.116211
1138.545971	0.118419
1138.702457	0.117590
1138.858924	0.110973
1139.015374	0.099419
1139.171805	0.093469
1139.328218	0.100597
1139.484613	0.095771
1139.640990	0.088835
1139.797348	0.082553
1139.953688	0.079633
1140.110010	0.075649
1140.266314	0.077204
1140.422600	0.086616
1140.578867	0.091052
1140.735116	0.084049
1140.891347	0.081079
1141.047559	0.096387
1141.203754	0.099893
1141.359930	0.100408
1141.516088	0.098638
1141.672228	0.101667
1141.828349	0.097484
1141.984452	0.097625
1142.140537	0.105818
1142.296604	0.106245
1142.452653	0.097599
1142.608683	0.105867
1142.764695	0.105676
1142.920689	0.101276
1143.076665	0.096151
1143.232622	0.099574
1143.388562	0.103581
1143.544483	0.095606
1143.700385	0.102577
1143.856270	0.106935
1144.012136	0.099181
1144.167985	0.098848
1144.323814	0.113034
1144.479626	0.117086
1144.635420	0.113795
1144.791195	0.117319
1144.946952	0.127107
1145.102691	0.124048
1145.258411	0.118751
1145.414113	0.115408
1145.569798	0.116045
1145.725463	0.106126
1145.881111	0.113531
1146.036741	0.112571
1146.192352	0.098461
1146.347945	0.089043
1146.503519	0.091424
1146.659076	0.088141
1146.814614	0.097605
1146.970134	0.100683
1147.125636	0.107970
1147.281120	0.102643
1147.436585	0.101215
1147.592032	0.115914
1147.747461	0.120070
1147.902872	0.117811
1148.058265	0.117618
1148.213639	0.117049
1148.368995	0.102024
1148.524333	0.093754
1148.679653	0.092533
1148.834954	0.091145
1148.990237	0.090556
1149.145502	0.096680
1149.300749	0.086535
1149.455977	0.087303
1149.611188	0.077034
1149.766380	0.094804
1149.921553	0.098921
1150.076709	0.095172
1150.231846	0.100895
1150.386966	0.094788
1150.542066	0.092490
1150.697149	0.105082
1150.852214	0.098530
1151.007260	0.104413
1151.162288	0.095798
1151.317298	0.089753
1151.472289	0.093217
1151.627263	0.092898
1151.782218	0.088448
1151.937155	0.090442
1152.092073	0.091775
1152.246974	0.105037
1152.401856	0.106310
1152.556720	0.099026
1152.711566	0.102724
1152.866393	0.106120
1153.021203	0.107402
1153.175994	0.106090
1153.330767	0.105098
1153.485521	0.102138
1153.640258	0.098768
1153.794976	0.105302
1153.949676	0.114493
1154.104358	0.114322
1154.259021	0.117148
1154.413667	0.111627
1154.568294	0.117273
1154.722903	0.105234
1154.877493	0.108578
1155.032066	0.109620
1155.186620	0.097979
1155.341156	0.099781
1155.495674	0.103591
1155.650173	0.097092
1155.804654	0.101596
1155.959118	0.106032
1156.113562	0.114092
1156.267989	0.108130
1156.422397	0.111632
1156.576788	0.117102
1156.731160	0.115656
1156.885513	0.114715
1157.039849	0.119767
1157.194166	0.122878
1157.348465	0.115084
1157.502746	0.116235
1157.657009	0.116358
1157.811253	0.106549
1157.965479	0.097991
1158.119687	0.094396
1158.273877	0.102374
1158.428048	0.102304
1158.582201	0.097511
1158.736337	0.104143
1158.890453	0.108234
1159.044552	0.112041
1159.198632	0.124198
1159.352694	0.136452
1159.506738	0.128348
1159.660764	0.118084
1159.814771	0.113990
1159.968761	0.110484
1160.122732	0.105060
1160.276685	0.102262
1160.430619	0.103804
1160.584535	0.097139
1160.738434	0.091869
1160.892313	0.100764
1161.046175	0.104404
1161.200019	0.110459
1161.353844	0.099243
1161.507651	0.105208
1161.661440	0.101805
1161.815210	0.099217
1161.968962	0.091983
1162.122697	0.093931
1162.276412	0.100645
1162.430110	0.103282
1162.583789	0.088773
1162.737451	0.090371
1162.891094	0.093866
1163.044718	0.095988
1163.198325	0.089546
1163.351913	0.098981
1163.505483	0.108049
1163.659035	0.106002
1163.812569	0.102734
1163.966084	0.103948
1164.119581	0.116259
1164.273060	0.111881
1164.426521	0.116213
1164.579964	0.124438
1164.733388	0.125447
1164.886794	0.100197
1165.040182	0.092023
1165.193551	0.088383
1165.346903	0.093429
1165.500236	0.102488
1165.653551	0.099725
1165.806848	0.097644
1165.960126	0.094001
1166.113386	0.100980
1166.266628	0.110972
1166.419852	0.116913
1166.573058	0.126419
1166.726245	0.131766
1166.879414	0.130218
1167.032565	0.134592
1167.185698	0.130629
1167.338812	0.129002
1167.491909	0.109863
1167.644987	0.119787
1167.798046	0.123049
1167.951088	0.120782
1168.104111	0.105135
1168.257117	0.104608
1168.410103	0.102458
1168.563072	0.103648
1168.716023	0.101672
1168.868955	0.105203
1169.021869	0.110457
1169.174765	0.111814
1169.327642	0.114639
1169.480501	0.125860
1169.633343	0.121077
1169.786165	0.106991
1169.938970	0.103267
1170.091757	0.109663
1170.244525	0.111514
1170.397275	0.111149
1170.550007	0.104161
1170.702720	0.098967
1170.855415	0.104203
1171.008092	0.099209
1171.160751	0.107552
1171.313392	0.111129
1171.466014	0.133614
1171.618619	0.087410
1171.771205	0.087410
1171.923772	0.087410
