sample name	sample
index	212
start time	 02-22-2021  09:57:06 AM


Wavelength (nm)	Absorbance
494.344910	-0.022336
494.563924	-0.022336
494.782919	-0.022336
495.001897	0.014310
495.220856	-0.048289
495.439797	-0.050994
495.658719	-0.051884
495.877624	-0.040945
496.096510	-0.037989
496.315378	-0.033696
496.534227	-0.023236
496.753059	-0.013580
496.971872	-0.004881
497.190667	0.097069
497.409444	0.137250
497.628203	0.151807
497.846943	0.157391
498.065665	0.161247
498.284369	0.163756
498.503055	0.167353
498.721723	0.167185
498.940372	0.168135
499.159003	0.169317
499.377616	0.169849
499.596210	0.169282
499.814787	0.169329
500.033345	0.169763
500.251885	0.169402
500.470406	0.167595
500.688910	0.169028
500.907395	0.170044
501.125862	0.170497
501.344311	0.171547
501.562742	0.171428
501.781154	0.172532
501.999548	0.171577
502.217924	0.172267
502.436282	0.174029
502.654621	0.173391
502.872942	0.173661
503.091245	0.173599
503.309530	0.172691
503.527797	0.173411
503.746045	0.172685
503.964275	0.173863
504.182487	0.174628
504.400681	0.173913
504.618856	0.174129
504.837013	0.174254
505.055152	0.174485
505.273273	0.174843
505.491376	0.176517
505.709460	0.176909
505.927526	0.176853
506.145574	0.176710
506.363604	0.176245
506.581615	0.176307
506.799608	0.176634
507.017583	0.176570
507.235540	0.176958
507.453478	0.175839
507.671399	0.176010
507.889301	0.176341
508.107185	0.177208
508.325050	0.178459
508.542898	0.179439
508.760727	0.179593
508.978538	0.179932
509.196330	0.180276
509.414105	0.179769
509.631861	0.179561
509.849599	0.180852
510.067319	0.180090
510.285021	0.181081
510.502704	0.181540
510.720369	0.181423
510.938016	0.181853
511.155645	0.182406
511.373255	0.183623
511.590848	0.183572
511.808422	0.182706
512.025977	0.183975
512.243515	0.183580
512.461034	0.183426
512.678536	0.183360
512.896018	0.183654
513.113483	0.183654
513.330930	0.183682
513.548358	0.184312
513.765768	0.184210
513.983160	0.184146
514.200533	0.185686
514.417889	0.186143
514.635226	0.186219
514.852545	0.186622
515.069845	0.185747
515.287128	0.186142
515.504392	0.186202
515.721638	0.187298
515.938866	0.187197
516.156075	0.186259
516.373267	0.186990
516.590440	0.187691
516.807594	0.187409
517.024731	0.188834
517.241850	0.189240
517.458950	0.190214
517.676032	0.190469
517.893095	0.190671
518.110141	0.191040
518.327168	0.190876
518.544177	0.192003
518.761168	0.192375
518.978141	0.191988
519.195095	0.192102
519.412031	0.192379
519.628949	0.192094
519.845849	0.192517
520.062731	0.192385
520.279594	0.193038
520.496439	0.193140
520.713266	0.193303
520.930074	0.193927
521.146865	0.193513
521.363637	0.192783
521.580391	0.192814
521.797127	0.193043
522.013844	0.193400
522.230543	0.193215
522.447224	0.193277
522.663887	0.193577
522.880532	0.193657
523.097158	0.194457
523.313766	0.195037
523.530356	0.195735
523.746928	0.195927
523.963481	0.196452
524.180017	0.196518
524.396534	0.195784
524.613032	0.196565
524.829513	0.197389
525.045975	0.197576
525.262420	0.198302
525.478845	0.197912
525.695253	0.198135
525.911643	0.198708
526.128014	0.199100
526.344367	0.200466
526.560702	0.200403
526.777018	0.200342
526.993316	0.200768
527.209597	0.200458
527.425858	0.200858
527.642102	0.201247
527.858328	0.201359
528.074535	0.201334
528.290724	0.201139
528.506894	0.201587
528.723047	0.201920
528.939181	0.202775
529.155297	0.203493
529.371395	0.203798
529.587475	0.204215
529.803536	0.204029
530.019579	0.205032
530.235604	0.205556
530.451611	0.205262
530.667600	0.205415
530.883570	0.205557
531.099522	0.206067
531.315456	0.206893
531.531372	0.207369
531.747269	0.208685
531.963148	0.208955
532.179009	0.209615
532.394852	0.210572
532.610676	0.210776
532.826482	0.210727
533.042271	0.210408
533.258040	0.210218
533.473792	0.210440
533.689525	0.210415
533.905240	0.210472
534.120937	0.210612
534.336616	0.210943
534.552277	0.211779
534.767919	0.212007
534.983543	0.213411
535.199149	0.214583
535.414736	0.214628
535.630306	0.215006
535.845857	0.215327
536.061390	0.215574
536.276904	0.215274
536.492401	0.215373
536.707879	0.216037
536.923339	0.215582
537.138781	0.215756
537.354204	0.216590
537.569610	0.216895
537.784997	0.217170
538.000366	0.217606
538.215716	0.218263
538.431049	0.218717
538.646363	0.219175
538.861659	0.219410
539.076937	0.220274
539.292196	0.220477
539.507438	0.221014
539.722661	0.221321
539.937866	0.221553
540.153052	0.221984
540.368221	0.222598
540.583371	0.222322
540.798503	0.222764
541.013617	0.222686
541.228712	0.223237
541.443789	0.222653
541.658848	0.222341
541.873889	0.222664
542.088912	0.223569
542.303916	0.223803
542.518902	0.224122
542.733870	0.224509
542.948820	0.224521
543.163752	0.224229
543.378665	0.225024
543.593560	0.226078
543.808437	0.225992
544.023295	0.225889
544.238136	0.225807
544.452958	0.226228
544.667762	0.227011
544.882548	0.227442
545.097315	0.227773
545.312064	0.227980
545.526795	0.228162
545.741508	0.229298
545.956203	0.229323
546.170879	0.229427
546.385537	0.229913
546.600177	0.230010
546.814799	0.230029
547.029402	0.230465
547.243988	0.230385
547.458555	0.230888
547.673103	0.231178
547.887634	0.231734
548.102146	0.232644
548.316640	0.232651
548.531116	0.232453
548.745574	0.232528
548.960013	0.232927
549.174435	0.233318
549.388838	0.233559
549.603222	0.233263
549.817589	0.233501
550.031937	0.233086
550.246267	0.233447
550.460579	0.233686
550.674873	0.234213
550.889148	0.234315
551.103405	0.234649
551.317644	0.234551
551.531865	0.234604
551.746068	0.234857
551.960252	0.235419
552.174418	0.235883
552.388566	0.236702
552.602696	0.236732
552.816807	0.237187
553.030900	0.237315
553.244975	0.237709
553.459032	0.238450
553.673070	0.238727
553.887091	0.238560
554.101093	0.238445
554.315077	0.238072
554.529042	0.238437
554.742990	0.238383
554.956919	0.239227
555.170830	0.239586
555.384722	0.239851
555.598597	0.239787
555.812453	0.240211
556.026291	0.240612
556.240111	0.241136
556.453913	0.241545
556.667696	0.241948
556.881461	0.242114
557.095208	0.242417
557.308937	0.242525
557.522647	0.242964
557.736339	0.243034
557.950013	0.243596
558.163669	0.243868
558.377307	0.243970
558.590926	0.243892
558.804527	0.243627
559.018110	0.243411
559.231675	0.243505
559.445221	0.243511
559.658749	0.243865
559.872259	0.243658
560.085751	0.243891
560.299225	0.244246
560.512680	0.244832
560.726117	0.244946
560.939536	0.245359
561.152937	0.245800
561.366319	0.246260
561.579683	0.246544
561.793029	0.246799
562.006357	0.246839
562.219667	0.246614
562.432958	0.246738
562.646231	0.247412
562.859486	0.247732
563.072723	0.247561
563.285941	0.247440
563.499141	0.247774
563.712323	0.248193
563.925487	0.248271
564.138632	0.248982
564.351760	0.249397
564.564869	0.249252
564.777960	0.249623
564.991032	0.250364
565.204087	0.250851
565.417123	0.251068
565.630141	0.251367
565.843140	0.251941
566.056122	0.251829
566.269085	0.251783
566.482030	0.252255
566.694957	0.251799
566.907866	0.251496
567.120756	0.251534
567.333628	0.251633
567.546482	0.251627
567.759318	0.251723
567.972135	0.252093
568.184935	0.252554
568.397716	0.252791
568.610478	0.253431
568.823223	0.253930
569.035949	0.253854
569.248657	0.254077
569.461347	0.254568
569.674019	0.254719
569.886672	0.254730
570.099308	0.254854
570.311925	0.254928
570.524523	0.255262
570.737104	0.255322
570.949666	0.256197
571.162210	0.256230
571.374736	0.256377
571.587244	0.256428
571.799733	0.256642
572.012205	0.256779
572.224658	0.256976
572.437092	0.256937
572.649509	0.257143
572.861907	0.257003
573.074287	0.257187
573.286649	0.256860
573.498993	0.257046
573.711318	0.257222
573.923625	0.257078
574.135914	0.257292
574.348185	0.257751
574.560438	0.257697
574.772672	0.257992
574.984888	0.258055
575.197086	0.258435
575.409266	0.258917
575.621427	0.259194
575.833570	0.259506
576.045695	0.259904
576.257802	0.260044
576.469890	0.259984
576.681961	0.259956
576.894013	0.260400
577.106046	0.260710
577.318062	0.261081
577.530059	0.261197
577.742039	0.261188
577.954000	0.260907
578.165942	0.261253
578.377867	0.261941
578.589773	0.262057
578.801661	0.262657
579.013531	0.263027
579.225382	0.262752
579.437216	0.263364
579.649031	0.263793
579.860828	0.264684
580.072606	0.264766
580.284367	0.264793
580.496109	0.264863
580.707833	0.264503
580.919539	0.264187
581.131227	0.264372
581.342896	0.264390
581.554547	0.264710
581.766180	0.264561
581.977795	0.264705
582.189391	0.264943
582.400969	0.265380
582.612529	0.265503
582.824071	0.266031
583.035595	0.266254
583.247100	0.266454
583.458587	0.266492
583.670056	0.266671
583.881506	0.266719
584.092939	0.267048
584.304353	0.267169
584.515749	0.267306
584.727127	0.267540
584.938486	0.268018
585.149828	0.267790
585.361151	0.267621
585.572456	0.267506
585.783742	0.267763
585.995011	0.267994
586.206261	0.268404
586.417493	0.269147
586.628706	0.269351
586.839902	0.269359
587.051079	0.269568
587.262238	0.270177
587.473379	0.270581
587.684502	0.271062
587.895606	0.270957
588.106692	0.271037
588.317760	0.271249
588.528810	0.271229
588.739841	0.271728
588.950855	0.272052
589.161850	0.272611
589.372827	0.273044
589.583785	0.273132
589.794726	0.273395
590.005648	0.273564
590.216552	0.273675
590.427437	0.274235
590.638305	0.274325
590.849154	0.274514
591.059985	0.274524
591.270798	0.274340
591.481592	0.274448
591.692369	0.274674
591.903127	0.274823
592.113867	0.274827
592.324588	0.274646
592.535292	0.274468
592.745977	0.274905
592.956644	0.275094
593.167293	0.275519
593.377923	0.275766
593.588536	0.275860
593.799130	0.276025
594.009706	0.276052
594.220263	0.276495
594.430803	0.276716
594.641324	0.276880
594.851827	0.276872
595.062312	0.277085
595.272778	0.277347
595.483227	0.277241
595.693657	0.277398
595.904069	0.277677
596.114462	0.277888
596.324838	0.278065
596.535195	0.278189
596.745534	0.278356
596.955855	0.278252
597.166157	0.278281
597.376441	0.278804
597.586707	0.279490
597.796955	0.279651
598.007185	0.279588
598.217396	0.280263
598.427589	0.280681
598.637764	0.280609
598.847921	0.280938
599.058060	0.281198
599.268180	0.281545
599.478282	0.281114
599.688366	0.281432
599.898431	0.281688
600.108479	0.281593
600.318508	0.281397
600.528519	0.281801
600.738511	0.282049
600.948486	0.282101
601.158442	0.282172
601.368380	0.282231
601.578300	0.282279
601.788202	0.282563
601.998085	0.282988
602.207950	0.282756
602.417797	0.283084
602.627626	0.283179
602.837436	0.283468
603.047228	0.283635
603.257002	0.284206
603.466758	0.284571
603.676496	0.284534
603.886215	0.284134
604.095916	0.284916
604.305599	0.284573
604.515264	0.284953
604.724910	0.284967
604.934538	0.285060
605.144148	0.285254
605.353740	0.285185
605.563314	0.285540
605.772869	0.286068
605.982406	0.286024
606.191925	0.286605
606.401425	0.286257
606.610908	0.286250
606.820372	0.286568
607.029818	0.286498
607.239246	0.286119
607.448655	0.285991
607.658047	0.285674
607.867420	0.285940
608.076775	0.286099
608.286111	0.286629
608.495430	0.286832
608.704730	0.287038
608.914012	0.286925
609.123275	0.288071
609.332521	0.288515
609.541748	0.289120
609.750957	0.289396
609.960148	0.289770
610.169321	0.289966
610.378475	0.290113
610.587611	0.289826
610.796729	0.290423
611.005829	0.290105
611.214910	0.289908
611.423974	0.289729
611.633019	0.289529
611.842045	0.289516
612.051054	0.289541
612.260044	0.289577
612.469017	0.289828
612.677970	0.289738
612.886906	0.289557
613.095824	0.289708
613.304723	0.290128
613.513604	0.290301
613.722467	0.290379
613.931311	0.290167
614.140138	0.290706
614.348946	0.291030
614.557736	0.291206
614.766507	0.291938
614.975261	0.292313
615.183996	0.292243
615.392713	0.292606
615.601412	0.292680
615.810092	0.293233
616.018754	0.293155
616.227399	0.293169
616.436024	0.293490
616.644632	0.293502
616.853222	0.293764
617.061793	0.294247
617.270346	0.294203
617.478880	0.294452
617.687397	0.294490
617.895895	0.294713
618.104375	0.295071
618.312837	0.295038
618.521281	0.295202
618.729706	0.295218
618.938113	0.295288
619.146502	0.295349
619.354873	0.295329
619.563226	0.295399
619.771560	0.295438
619.979876	0.295425
620.188174	0.295321
620.396453	0.295420
620.604715	0.295536
620.812958	0.295411
621.021183	0.296032
621.229390	0.296224
621.437578	0.296399
621.645748	0.296702
621.853900	0.297220
622.062034	0.297448
622.270150	0.297516
622.478247	0.297697
622.686326	0.297942
622.894387	0.297885
623.102430	0.298122
623.310454	0.298263
623.518461	0.298184
623.726449	0.297924
623.934418	0.298271
624.142370	0.298247
624.350303	0.298388
624.558218	0.298592
624.766115	0.298742
624.973994	0.298832
625.181855	0.299034
625.389697	0.299306
625.597521	0.299593
625.805327	0.299824
626.013114	0.300244
626.220883	0.300520
626.428634	0.300566
626.636367	0.300585
626.844082	0.300745
627.051778	0.301318
627.259457	0.301580
627.467117	0.301783
627.674758	0.301821
627.882382	0.302158
628.089987	0.302363
628.297574	0.302620
628.505143	0.302823
628.712694	0.302842
628.920226	0.302458
629.127740	0.302510
629.335236	0.302529
629.542714	0.302848
629.750174	0.303068
629.957615	0.303032
630.165038	0.303083
630.372443	0.303284
630.579829	0.303468
630.787198	0.304029
630.994548	0.304302
631.201880	0.304296
631.409194	0.304325
631.616489	0.304225
631.823766	0.304366
632.031025	0.304362
632.238266	0.304543
632.445489	0.304668
632.652693	0.304499
632.859879	0.304544
633.067047	0.304776
633.274197	0.304756
633.481329	0.304813
633.688442	0.305068
633.895537	0.305676
634.102614	0.305820
634.309672	0.306166
634.516713	0.306024
634.723735	0.306395
634.930739	0.306554
635.137724	0.306864
635.344692	0.306938
635.551641	0.306973
635.758572	0.306763
635.965485	0.306854
636.172379	0.306833
636.379256	0.307427
636.586114	0.307294
636.792954	0.307501
636.999775	0.307837
637.206579	0.308188
637.413364	0.308347
637.620131	0.308569
637.826880	0.308733
638.033610	0.308902
638.240323	0.308982
638.447017	0.309441
638.653692	0.309588
638.860350	0.309656
639.066990	0.309718
639.273611	0.309613
639.480214	0.309896
639.686798	0.310153
639.893365	0.310374
640.099913	0.310544
640.306443	0.310564
640.512955	0.310678
640.719449	0.310842
640.925924	0.310888
641.132381	0.311423
641.338820	0.311509
641.545241	0.311765
641.751644	0.312192
641.958028	0.312323
642.164394	0.312542
642.370742	0.312648
642.577071	0.312683
642.783383	0.312971
642.989676	0.313245
643.195951	0.313409
643.402207	0.313407
643.608446	0.313271
643.814666	0.313630
644.020868	0.313774
644.227052	0.314316
644.433218	0.314692
644.639365	0.315018
644.845494	0.315108
645.051605	0.315432
645.257698	0.315440
645.463772	0.315663
645.669828	0.315647
645.875866	0.315696
646.081886	0.315591
646.287888	0.315526
646.493871	0.315592
646.699836	0.315835
646.905783	0.315689
647.111712	0.316081
647.317622	0.316375
647.523514	0.316718
647.729388	0.317107
647.935244	0.317299
648.141082	0.317702
648.346901	0.317878
648.552702	0.318060
648.758485	0.318634
648.964250	0.318787
649.169996	0.318846
649.375724	0.318861
649.581434	0.318769
649.787126	0.319113
649.992800	0.319214
650.198455	0.319438
650.404092	0.319551
650.609711	0.319712
650.815311	0.319747
651.020894	0.320047
651.226458	0.320264
651.432004	0.320389
651.637532	0.320459
651.843041	0.320683
652.048532	0.320838
652.254006	0.320803
652.459460	0.320813
652.664897	0.320994
652.870315	0.321193
653.075716	0.321131
653.281097	0.321405
653.486461	0.321875
653.691807	0.321984
653.897134	0.322184
654.102443	0.322747
654.307734	0.322851
654.513006	0.323203
654.718261	0.323429
654.923497	0.324098
655.128715	0.324306
655.333915	0.324228
655.539096	0.324508
655.744259	0.324705
655.949404	0.324576
656.154531	0.325093
656.359640	0.325315
656.564730	0.325686
656.769802	0.325474
656.974856	0.325706
657.179892	0.326039
657.384909	0.326131
657.589908	0.326478
657.794889	0.326997
657.999852	0.327188
658.204797	0.327385
658.409723	0.327403
658.614631	0.328092
658.819521	0.328382
659.024393	0.328408
659.229246	0.328630
659.434081	0.328798
659.638898	0.328938
659.843697	0.329059
660.048478	0.329313
660.253240	0.329336
660.457984	0.329294
660.662710	0.329413
660.867417	0.329892
661.072107	0.329983
661.276778	0.330066
661.481431	0.330257
661.686066	0.330383
661.890682	0.330682
662.095281	0.330828
662.299861	0.331113
662.504422	0.331421
662.708966	0.331463
662.913491	0.331884
663.117999	0.331955
663.322488	0.332117
663.526958	0.332619
663.731411	0.332859
663.935845	0.333491
664.140261	0.333810
664.344659	0.333867
664.549038	0.334165
664.753400	0.334504
664.957743	0.334958
665.162068	0.335082
665.366375	0.335001
665.570663	0.335014
665.774933	0.335083
665.979185	0.335254
666.183419	0.335514
666.387635	0.335689
666.591832	0.335812
666.796011	0.336051
667.000172	0.336346
667.204315	0.336401
667.408439	0.336541
667.612545	0.336866
667.816634	0.336735
668.020703	0.336868
668.224755	0.336975
668.428788	0.336958
668.632803	0.337209
668.836800	0.337331
669.040779	0.337517
669.244739	0.337653
669.448681	0.337906
669.652605	0.338252
669.856511	0.338728
670.060399	0.339252
670.264268	0.339721
670.468119	0.339920
670.671952	0.340066
670.875767	0.340450
671.079563	0.340946
671.283341	0.340833
671.487101	0.341219
671.690843	0.341295
671.894567	0.341398
672.098272	0.341415
672.301959	0.341585
672.505628	0.341800
672.709278	0.342003
672.912911	0.342234
673.116525	0.342511
673.320121	0.342828
673.523699	0.343062
673.727258	0.343047
673.930799	0.343344
674.134322	0.343685
674.337827	0.344032
674.541314	0.344402
674.744782	0.344603
674.948232	0.344749
675.151664	0.344503
675.355078	0.344623
675.558474	0.344818
675.761851	0.345120
675.965210	0.345285
676.168551	0.345488
676.371873	0.345580
676.575178	0.345559
676.778464	0.345868
676.981732	0.346365
677.184981	0.346536
677.388213	0.346917
677.591426	0.347076
677.794621	0.347041
677.997798	0.347203
678.200956	0.347290
678.404097	0.347508
678.607219	0.347638
678.810323	0.347700
679.013408	0.347730
679.216476	0.347940
679.419525	0.347784
679.622556	0.348121
679.825569	0.348200
680.028563	0.348474
680.231540	0.348756
680.434498	0.348907
680.637438	0.349181
680.840359	0.349627
681.043263	0.349604
681.246148	0.350122
681.449015	0.350218
681.651864	0.350617
681.854694	0.350687
682.057506	0.350993
682.260301	0.351404
682.463076	0.351558
682.665834	0.351820
682.868573	0.352177
683.071295	0.352499
683.273998	0.352951
683.476682	0.352933
683.679349	0.353472
683.881997	0.353641
684.084627	0.353890
684.287239	0.354243
684.489833	0.354161
684.692408	0.354306
684.894965	0.354182
685.097504	0.354412
685.300025	0.354821
685.502527	0.354804
685.705012	0.354982
685.907478	0.355138
686.109925	0.355190
686.312355	0.355506
686.514766	0.355714
686.717159	0.356230
686.919534	0.356120
687.121891	0.356141
687.324230	0.356352
687.526550	0.356152
687.728852	0.356197
687.931136	0.356385
688.133401	0.356809
688.335649	0.356890
688.537878	0.356883
688.740089	0.357235
688.942281	0.357425
689.144456	0.357799
689.346612	0.358319
689.548750	0.358488
689.750870	0.358743
689.952971	0.358597
690.155055	0.359058
690.357120	0.359415
690.559167	0.359334
690.761195	0.359642
690.963206	0.359648
691.165198	0.360149
691.367172	0.360335
691.569128	0.360340
691.771065	0.360735
691.972984	0.360808
692.174885	0.360946
692.376768	0.361397
692.578633	0.361547
692.780479	0.361738
692.982308	0.361609
693.184118	0.361775
693.385909	0.362147
693.587683	0.362211
693.789438	0.362188
693.991175	0.362235
694.192894	0.362270
694.394595	0.362217
694.596277	0.362194
694.797941	0.362408
694.999587	0.362542
695.201215	0.362770
695.402824	0.362880
695.604416	0.363225
695.805989	0.363422
696.007543	0.363291
696.209080	0.363557
696.410598	0.363885
696.612099	0.363920
696.813580	0.364020
697.015044	0.364011
697.216490	0.364270
697.417917	0.364329
697.619326	0.364546
697.820717	0.365081
698.022089	0.365204
698.223444	0.365453
698.424780	0.365589
698.626098	0.365832
698.827397	0.366053
699.028679	0.365848
699.229942	0.366028
699.431187	0.366141
699.632414	0.366166
699.833622	0.366469
700.034813	0.366543
700.235985	0.366689
700.437139	0.366823
700.638274	0.366905
700.839392	0.367433
701.040491	0.367844
701.241572	0.368086
701.442635	0.368339
701.643679	0.368426
701.844706	0.368452
702.045714	0.368494
702.246704	0.368609
702.447675	0.368789
702.648629	0.368937
702.849564	0.368658
703.050481	0.368681
703.251380	0.368605
703.452260	0.368905
703.653122	0.369008
703.853966	0.369143
704.054792	0.369299
704.255600	0.369183
704.456389	0.369026
704.657160	0.369184
704.857913	0.369023
705.058648	0.369205
705.259365	0.368771
705.460063	0.368686
705.660743	0.368581
705.861405	0.368324
706.062048	0.368527
706.262674	0.368689
706.463281	0.368728
706.663870	0.368850
706.864441	0.368480
707.064993	0.369013
707.265527	0.369074
707.466043	0.369440
707.666541	0.369574
707.867021	0.369646
708.067482	0.369792
708.267925	0.369977
708.468350	0.370190
708.668757	0.370374
708.869145	0.370170
709.069516	0.370367
709.269868	0.370257
709.470201	0.370371
709.670517	0.370566
709.870814	0.370753
710.071093	0.370771
710.271354	0.370776
710.471597	0.371053
710.671821	0.371124
710.872028	0.370969
711.072216	0.370790
711.272385	0.370814
711.472537	0.370715
711.672670	0.370520
711.872785	0.370475
712.072882	0.370285
712.272961	0.370245
712.473021	0.370072
712.673063	0.370170
712.873087	0.370301
713.073093	0.370481
713.273081	0.370319
713.473050	0.370370
713.673001	0.370050
713.872934	0.370066
714.072849	0.370194
714.272745	0.370223
714.472623	0.370278
714.672483	0.370157
714.872325	0.370070
715.072148	0.370474
715.271954	0.370459
715.471741	0.370769
715.671509	0.370731
715.871260	0.370564
716.070992	0.370515
716.270707	0.370484
716.470403	0.370502
716.670080	0.370410
716.869740	0.370092
717.069381	0.369972
717.269004	0.369743
717.468609	0.369811
717.668195	0.369774
717.867764	0.369774
718.067314	0.369624
718.266846	0.369910
718.466360	0.370039
718.665855	0.370032
718.865332	0.369841
719.064791	0.369713
719.264232	0.369654
719.463655	0.369609
719.663059	0.369470
719.862445	0.369486
720.061813	0.369331
720.261163	0.368988
720.460494	0.368795
720.659807	0.368846
720.859102	0.368830
721.058379	0.368815
721.257638	0.368713
721.456878	0.369008
721.656100	0.368900
721.855304	0.368521
722.054490	0.368539
722.253657	0.368467
722.452806	0.368586
722.651937	0.368739
722.851050	0.368807
723.050145	0.368722
723.249221	0.368359
723.448279	0.368210
723.647319	0.368350
723.846340	0.368111
724.045344	0.367982
724.244329	0.367731
724.443296	0.367530
724.642245	0.367109
724.841175	0.367222
725.040088	0.367514
725.238982	0.367510
725.437857	0.367384
725.636715	0.367609
725.835554	0.367640
726.034376	0.367576
726.233179	0.367674
726.431963	0.367775
726.630730	0.367754
726.829478	0.367457
727.028208	0.367578
727.226920	0.367585
727.425614	0.367406
727.624289	0.367155
727.822946	0.367169
728.021585	0.366953
728.220206	0.366970
728.418808	0.366471
728.617392	0.366541
728.815958	0.366301
729.014506	0.366123
729.213036	0.366015
729.411547	0.365870
729.610040	0.365711
729.808515	0.365556
730.006972	0.365467
730.205410	0.365598
730.403831	0.365326
730.602233	0.365130
730.800616	0.364934
730.998982	0.364745
731.197329	0.364755
731.395658	0.364479
731.593969	0.364382
731.792262	0.364231
731.990536	0.363980
732.188793	0.363916
732.387031	0.363819
732.585250	0.363695
732.783452	0.363511
732.981635	0.363244
733.179800	0.363047
733.377947	0.362559
733.576076	0.362303
733.774186	0.362360
733.972278	0.362255
734.170352	0.362110
734.368408	0.362119
734.566446	0.361995
734.764465	0.361976
734.962466	0.362022
735.160449	0.362178
735.358413	0.362108
735.556360	0.361759
735.754288	0.361466
735.952198	0.361323
736.150090	0.360907
736.347963	0.360602
736.545818	0.360518
736.743655	0.360316
736.941474	0.360163
737.139275	0.359821
737.337057	0.359621
737.534821	0.359333
737.732567	0.359045
737.930295	0.359139
738.128005	0.358907
738.325696	0.358481
738.523369	0.358119
738.721024	0.357858
738.918660	0.357773
739.116279	0.357347
739.313879	0.357205
739.511461	0.357019
739.709024	0.356586
739.906570	0.356394
740.104097	0.356150
740.301606	0.356039
740.499097	0.355872
740.696569	0.355810
740.894024	0.355955
741.091460	0.355976
741.288878	0.355869
741.486277	0.355952
741.683659	0.356023
741.881022	0.355766
742.078367	0.355772
742.275694	0.355711
742.473002	0.355176
742.670293	0.354880
742.867565	0.354388
743.064819	0.354101
743.262054	0.353977
743.459272	0.353787
743.656471	0.353654
743.853652	0.353334
744.050815	0.353182
744.247959	0.353243
744.445085	0.353336
744.642194	0.353328
744.839283	0.353343
745.036355	0.352807
745.233408	0.352631
745.430444	0.352433
745.627461	0.352056
745.824459	0.351584
746.021440	0.351365
746.218402	0.350696
746.415346	0.350363
746.612272	0.349860
746.809180	0.349783
747.006069	0.349387
747.202940	0.349308
747.399793	0.349200
747.596628	0.349069
747.793444	0.348693
747.990243	0.348711
748.187023	0.348437
748.383784	0.348552
748.580528	0.348330
748.777253	0.348040
748.973960	0.348123
749.170649	0.347848
749.367320	0.347505
749.563973	0.347371
749.760607	0.347119
749.957223	0.346976
750.153821	0.346631
750.350400	0.346375
750.546962	0.346275
750.743505	0.345853
750.940030	0.345742
751.136536	0.345691
751.333025	0.345414
751.529495	0.345361
751.725947	0.345196
751.922381	0.344928
752.118796	0.344759
752.315194	0.344649
752.511573	0.344372
752.707934	0.344194
752.904276	0.344104
753.100601	0.344188
753.296907	0.344036
753.493195	0.343728
753.689465	0.343317
753.885716	0.343134
754.081949	0.343170
754.278164	0.343005
754.474361	0.343042
754.670540	0.342760
754.866700	0.342506
755.062843	0.342153
755.258967	0.342136
755.455072	0.342676
755.651160	0.342547
755.847229	0.342169
756.043280	0.342235
756.239313	0.341674
756.435328	0.341469
756.631324	0.340827
756.827302	0.340634
757.023262	0.340445
757.219204	0.339966
757.415127	0.339814
757.611033	0.339598
757.806920	0.339096
758.002788	0.339162
758.198639	0.339191
758.394471	0.339321
758.590286	0.338998
758.786081	0.338871
758.981859	0.338325
759.177619	0.338108
759.373360	0.337763
759.569083	0.337699
759.764788	0.337470
759.960474	0.337303
760.156143	0.337127
760.351793	0.337261
760.547425	0.337027
760.743038	0.336948
760.938634	0.336937
761.134211	0.336936
761.329770	0.336954
761.525311	0.336910
761.720833	0.336671
761.916338	0.336524
762.111824	0.336163
762.307292	0.335983
762.502741	0.335910
762.698173	0.335541
762.893586	0.335440
763.088981	0.335146
763.284358	0.335024
763.479716	0.334582
763.675057	0.334651
763.870379	0.334752
764.065683	0.334588
764.260968	0.334495
764.456236	0.334568
764.651485	0.334539
764.846716	0.334709
765.041929	0.334575
765.237123	0.334492
765.432299	0.334200
765.627457	0.333875
765.822597	0.333681
766.017719	0.333855
766.212822	0.333586
766.407907	0.333291
766.602974	0.332924
766.798023	0.332672
766.993054	0.332890
767.188066	0.332881
767.383060	0.333146
767.578036	0.333371
767.772993	0.333206
767.967933	0.333091
768.162854	0.332760
768.357757	0.332547
768.552642	0.332168
768.747508	0.331971
768.942356	0.331355
769.137186	0.330656
769.331998	0.330190
769.526792	0.329535
769.721567	0.329364
769.916324	0.329588
770.111063	0.329368
770.305784	0.329431
770.500486	0.329279
770.695171	0.329541
770.889837	0.329915
771.084484	0.329774
771.279114	0.330044
771.473725	0.329945
771.668318	0.330001
771.862893	0.330002
772.057450	0.329988
772.251988	0.329970
772.446509	0.329705
772.641011	0.329411
772.835494	0.329500
773.029960	0.329300
773.224407	0.328948
773.418836	0.329076
773.613247	0.328870
773.807640	0.328737
774.002014	0.328508
774.196370	0.328529
774.390708	0.328495
774.585028	0.328543
774.779330	0.328660
774.973613	0.329168
775.167878	0.328459
775.362125	0.328542
775.556354	0.328524
775.750564	0.328661
775.944756	0.328693
776.138930	0.328753
776.333086	0.328656
776.527223	0.328434
776.721343	0.328131
776.915444	0.328500
777.109526	0.328403
777.303591	0.328423
777.497637	0.328217
777.691666	0.328252
777.885676	0.328061
778.079667	0.328100
778.273641	0.328370
778.467596	0.328343
778.661533	0.328129
778.855452	0.328217
779.049352	0.328458
779.243235	0.328632
779.437099	0.328474
779.630945	0.328523
779.824773	0.328437
780.018582	0.328387
780.212373	0.328432
780.406146	0.328526
780.599901	0.328686
780.793638	0.328406
780.987356	0.328378
781.181056	0.328526
781.374738	0.328677
781.568402	0.328904
781.762047	0.328733
781.955674	0.328817
782.149283	0.328792
782.342874	0.328789
782.536447	0.328750
782.730001	0.328544
782.923537	0.328584
783.117055	0.328394
783.310555	0.328056
783.504036	0.328210
783.697499	0.328163
783.890944	0.328350
784.084371	0.328078
784.277780	0.328079
784.471170	0.328366
784.664542	0.328142
784.857896	0.328509
785.051231	0.328508
785.244549	0.328596
785.437848	0.328468
785.631129	0.328399
785.824392	0.328664
786.017636	0.328727
786.210863	0.328440
786.404071	0.328775
786.597260	0.328592
786.790432	0.328647
786.983585	0.328525
787.176721	0.328769
787.369838	0.328491
787.562936	0.328349
787.756017	0.328535
787.949079	0.328672
788.142123	0.328609
788.335149	0.328646
788.528156	0.328697
788.721146	0.328937
788.914117	0.329190
789.107070	0.329504
789.300005	0.329498
789.492921	0.329269
789.685819	0.329549
789.878699	0.329528
790.071561	0.329591
790.264405	0.329730
790.457230	0.329656
790.650037	0.329516
790.842826	0.329669
791.035597	0.329948
791.228349	0.330135
791.421084	0.330061
791.613800	0.330509
791.806497	0.331023
791.999177	0.331252
792.191838	0.331164
792.384481	0.331268
792.577106	0.331222
792.769713	0.331391
792.962301	0.331634
793.154871	0.331680
793.347423	0.331390
793.539957	0.331165
793.732473	0.330961
793.924970	0.330887
794.117449	0.330906
794.309910	0.330982
794.502353	0.331054
794.694777	0.331015
794.887183	0.331112
795.079571	0.331370
795.271941	0.331218
795.464293	0.331429
795.656626	0.332005
795.848941	0.332177
796.041238	0.332323
796.233516	0.332494
796.425777	0.332733
796.618019	0.333207
796.810243	0.333475
797.002449	0.333521
797.194636	0.333754
797.386805	0.333844
797.578956	0.334045
797.771089	0.334166
797.963204	0.334144
798.155300	0.334456
798.347378	0.334321
798.539438	0.334290
798.731480	0.334859
798.923503	0.334996
799.115509	0.335218
799.307496	0.335345
799.499465	0.335737
799.691415	0.335904
799.883348	0.335942
800.075262	0.336298
800.267158	0.336443
800.459035	0.336351
800.650895	0.336498
800.842736	0.336340
801.034559	0.336568
801.226364	0.336878
801.418150	0.337389
801.609919	0.337442
801.801669	0.337425
801.993401	0.337787
802.185114	0.338055
802.376810	0.338241
802.568487	0.338593
802.760146	0.338768
802.951787	0.338888
803.143409	0.339223
803.335014	0.339708
803.526600	0.339920
803.718168	0.339900
803.909717	0.340071
804.101249	0.340295
804.292762	0.340380
804.484257	0.340500
804.675734	0.340647
804.867192	0.340455
805.058632	0.340545
805.250054	0.340796
805.441458	0.341025
805.632844	0.341102
805.824211	0.341232
806.015561	0.341515
806.206891	0.341817
806.398204	0.341970
806.589499	0.342148
806.780775	0.342268
806.972033	0.342549
807.163273	0.342731
807.354495	0.343161
807.545698	0.343563
807.736883	0.343795
807.928050	0.344039
808.119199	0.344220
808.310329	0.344650
808.501441	0.344903
808.692535	0.344903
808.883611	0.345191
809.074669	0.345381
809.265708	0.345644
809.456729	0.346169
809.647732	0.346559
809.838717	0.346626
810.029683	0.346834
810.220632	0.347171
810.411562	0.347849
810.602474	0.348326
810.793367	0.348585
810.984242	0.348722
811.175100	0.349079
811.365938	0.349249
811.556759	0.349947
811.747562	0.350259
811.938346	0.350288
812.129112	0.350292
812.319860	0.350379
812.510589	0.350394
812.701300	0.350839
812.891994	0.350876
813.082668	0.351293
813.273325	0.351490
813.463964	0.351798
813.654584	0.352208
813.845186	0.352529
814.035769	0.352952
814.226335	0.353451
814.416882	0.353723
814.607411	0.354088
814.797922	0.354111
814.988415	0.354691
815.178889	0.354923
815.369345	0.355431
815.559783	0.355875
815.750203	0.356246
815.940605	0.356843
816.130988	0.357147
816.321353	0.357415
816.511700	0.357821
816.702028	0.357978
816.892339	0.358400
817.082631	0.358498
817.272905	0.358783
817.463161	0.358790
817.653398	0.358750
817.843617	0.359223
818.033819	0.359575
818.224001	0.360186
818.414166	0.360485
818.604312	0.360908
818.794440	0.361347
818.984550	0.361531
819.174642	0.362158
819.364716	0.362879
819.554771	0.362988
819.744808	0.363445
819.934827	0.363562
820.124827	0.363965
820.314810	0.364164
820.504774	0.364574
820.694720	0.364895
820.884647	0.365352
821.074557	0.365429
821.264448	0.365714
821.454321	0.366160
821.644176	0.366250
821.834012	0.366199
822.023831	0.366623
822.213631	0.366668
822.403413	0.367326
822.593176	0.367621
822.782922	0.367986
822.972649	0.368527
823.162358	0.368635
823.352049	0.369086
823.541721	0.369602
823.731376	0.370024
823.921012	0.370771
824.110629	0.370764
824.300229	0.371094
824.489811	0.371830
824.679374	0.372117
824.868919	0.372865
825.058445	0.373504
825.247954	0.373674
825.437444	0.373895
825.626916	0.374463
825.816370	0.375113
826.005806	0.375650
826.195223	0.375638
826.384622	0.376179
826.574003	0.375981
826.763366	0.376048
826.952711	0.376663
827.142037	0.377109
827.331345	0.377195
827.520635	0.377700
827.709906	0.377660
827.899160	0.377999
828.088395	0.378232
828.277612	0.378757
828.466810	0.379174
828.655991	0.379651
828.845153	0.379865
829.034297	0.380705
829.223423	0.380994
829.412531	0.381504
829.601620	0.381886
829.790691	0.382395
829.979744	0.383037
830.168779	0.383806
830.357795	0.384103
830.546793	0.384581
830.735773	0.384603
830.924735	0.384884
831.113679	0.385306
831.302604	0.385861
831.491511	0.386308
831.680400	0.386744
831.869271	0.386626
832.058123	0.387177
832.246957	0.387758
832.435773	0.388159
832.624571	0.388616
832.813351	0.389342
833.002112	0.389736
833.190855	0.390076
833.379580	0.390310
833.568287	0.390981
833.756975	0.391156
833.945645	0.391381
834.134297	0.391611
834.322931	0.392434
834.511547	0.393001
834.700144	0.393586
834.888723	0.394185
835.077284	0.394732
835.265826	0.395170
835.454351	0.395780
835.642857	0.396180
835.831345	0.396805
836.019815	0.397069
836.208266	0.396970
836.396699	0.396951
836.585114	0.397251
836.773511	0.397591
836.961890	0.398055
837.150250	0.398419
837.338592	0.398655
837.526916	0.398696
837.715222	0.398604
837.903510	0.399041
838.091779	0.399574
838.280030	0.399770
838.468263	0.400268
838.656477	0.400759
838.844674	0.400974
839.032852	0.401404
839.221012	0.402244
839.409153	0.402838
839.597277	0.403211
839.785382	0.403929
839.973469	0.404488
840.161538	0.404730
840.349589	0.405153
840.537621	0.405728
840.725635	0.406281
840.913631	0.406441
841.101609	0.407166
841.289568	0.408005
841.477509	0.408564
841.665432	0.409210
841.853337	0.409539
842.041224	0.410197
842.229092	0.410663
842.416942	0.411318
842.604774	0.411893
842.792588	0.412128
842.980383	0.412304
843.168160	0.412536
843.355919	0.412990
843.543660	0.413883
843.731382	0.414401
843.919087	0.414956
844.106773	0.415393
844.294441	0.416139
844.482090	0.416843
844.669722	0.417708
844.857335	0.418519
845.044930	0.418976
845.232507	0.419375
845.420065	0.419754
845.607605	0.420017
845.795127	0.420575
845.982631	0.420882
846.170117	0.421315
846.357584	0.421687
846.545033	0.422208
846.732464	0.422542
846.919877	0.422955
847.107272	0.423565
847.294648	0.424373
847.482006	0.424774
847.669346	0.425198
847.856667	0.425801
848.043971	0.426001
848.231256	0.426451
848.418523	0.426996
848.605771	0.427152
848.793002	0.427313
848.980214	0.427690
849.167408	0.427908
849.354584	0.428483
849.541742	0.428953
849.728881	0.429667
849.916002	0.429991
850.103105	0.430501
850.290190	0.431132
850.477256	0.431686
850.664304	0.432141
850.851334	0.432471
851.038346	0.432762
851.225340	0.432895
851.412315	0.433411
851.599272	0.434050
851.786211	0.434448
851.973132	0.435190
852.160034	0.435559
852.346918	0.435945
852.533784	0.436266
852.720632	0.436945
852.907462	0.437522
853.094273	0.438256
853.281066	0.437995
853.467841	0.438489
853.654598	0.438752
853.841336	0.439456
854.028056	0.440011
854.214758	0.440877
854.401442	0.441257
854.588107	0.442031
854.774755	0.442433
854.961384	0.443172
855.147995	0.443820
855.334587	0.444638
855.521162	0.444963
855.707718	0.445374
855.894256	0.445965
856.080775	0.446420
856.267277	0.446429
856.453760	0.445792
856.640225	0.446488
856.826672	0.446664
857.013101	0.446412
857.199511	0.446596
857.385903	0.446964
857.572277	0.447225
857.758633	0.447951
857.944970	0.448190
858.131290	0.449493
858.317591	0.449596
858.503873	0.449732
858.690138	0.450655
858.876384	0.451405
859.062612	0.451642
859.248822	0.451832
859.435014	0.451662
859.621188	0.452595
859.807343	0.452602
859.993480	0.453581
860.179599	0.454284
860.365699	0.454502
860.551781	0.454367
860.737846	0.454852
860.923891	0.455434
861.109919	0.455866
861.295929	0.455928
861.481920	0.456080
861.667893	0.455985
861.853848	0.456157
862.039784	0.456500
862.225702	0.457400
862.411603	0.458150
862.597484	0.458738
862.783348	0.459330
862.969193	0.460169
863.155021	0.460752
863.340830	0.460749
863.526620	0.461435
863.712393	0.462332
863.898147	0.462451
864.083883	0.462496
864.269601	0.462988
864.455301	0.463525
864.640982	0.463567
864.826645	0.464168
865.012290	0.465003
865.197917	0.465207
865.383526	0.465002
865.569116	0.465273
865.754688	0.465809
865.940242	0.465611
866.125777	0.466179
866.311295	0.466551
866.496794	0.466591
866.682275	0.467246
866.867737	0.467518
867.053182	0.468112
867.238608	0.468454
867.424016	0.468619
867.609406	0.469413
867.794778	0.469457
867.980131	0.469727
868.165466	0.470061
868.350783	0.470081
868.536082	0.470259
868.721362	0.470040
868.906625	0.470426
869.091869	0.470850
869.277094	0.471513
869.462302	0.471883
869.647491	0.472089
869.832662	0.473302
870.017815	0.473651
870.202950	0.474107
870.388066	0.474696
870.573165	0.474944
870.758245	0.475262
870.943306	0.475058
871.128350	0.475581
871.313375	0.475954
871.498382	0.475562
871.683371	0.475694
871.868342	0.475989
872.053294	0.476669
872.238229	0.476536
872.423144	0.476479
872.608042	0.477004
872.792922	0.476672
872.977783	0.477003
873.162626	0.477360
873.347451	0.477873
873.532258	0.478111
873.717046	0.477884
873.901816	0.478179
874.086568	0.478540
874.271302	0.478257
874.456017	0.478824
874.640715	0.479012
874.825394	0.479416
875.010055	0.479599
875.194697	0.479898
875.379322	0.480072
875.563928	0.480716
875.748516	0.480942
875.933085	0.481322
876.117637	0.480912
876.302170	0.480689
876.486685	0.480741
876.671182	0.480718
876.855661	0.480975
877.040121	0.481537
877.224563	0.482372
877.408987	0.482656
877.593393	0.482584
877.777780	0.483104
877.962150	0.484001
878.146501	0.484418
878.330833	0.484881
878.515148	0.485290
878.699444	0.485424
878.883722	0.484992
879.067982	0.484929
879.252224	0.485508
879.436447	0.485951
879.620653	0.486441
879.804840	0.486431
879.989008	0.486072
880.173159	0.486055
880.357291	0.486202
880.541405	0.486686
880.725501	0.487471
880.909579	0.488103
881.093638	0.487898
881.277680	0.487238
881.461703	0.487275
881.645707	0.487459
881.829694	0.487170
882.013662	0.487372
882.197612	0.487095
882.381544	0.486782
882.565458	0.485754
882.749353	0.485900
882.933230	0.486312
883.117089	0.486559
883.300930	0.487196
883.484753	0.487445
883.668557	0.487169
883.852343	0.487468
884.036111	0.487343
884.219861	0.487957
884.403592	0.488133
884.587305	0.487944
884.771000	0.487824
884.954677	0.487594
885.138335	0.487503
885.321976	0.487827
885.505598	0.487568
885.689201	0.488031
885.872787	0.487938
886.056354	0.488188
886.239904	0.488003
886.423434	0.487588
886.606947	0.487549
886.790442	0.487856
886.973918	0.487449
887.157376	0.487893
887.340816	0.487430
887.524237	0.487844
887.707641	0.487872
887.891026	0.488481
888.074393	0.488738
888.257741	0.489050
888.441072	0.489166
888.624384	0.489488
888.807678	0.489164
888.990954	0.489189
889.174211	0.488312
889.357451	0.487993
889.540672	0.487453
889.723875	0.487581
889.907059	0.487570
890.090226	0.487036
890.273374	0.487068
890.456504	0.486991
890.639616	0.487437
890.822709	0.488410
891.005785	0.488322
891.188842	0.488237
891.371881	0.488172
891.554901	0.487493
891.737904	0.487397
891.920888	0.487804
892.103854	0.487690
892.286802	0.487187
892.469731	0.486546
892.652643	0.486663
892.835536	0.487022
893.018410	0.487241
893.201267	0.487179
893.384106	0.487851
893.566926	0.487333
893.749728	0.486941
893.932511	0.486686
894.115277	0.487039
894.298024	0.486944
894.480753	0.486349
894.663464	0.485607
894.846157	0.485575
895.028831	0.484843
895.211487	0.484782
895.394125	0.484788
895.576745	0.484845
895.759346	0.484102
895.941930	0.483847
896.124495	0.483552
896.307041	0.483517
896.489570	0.483487
896.672080	0.483414
896.854573	0.482963
897.037046	0.483675
897.219502	0.483183
897.401940	0.483184
897.584359	0.483273
897.766760	0.483778
897.949143	0.483831
898.131507	0.483047
898.313854	0.482850
898.496182	0.482773
898.678492	0.481163
898.860783	0.481546
899.043057	0.481057
899.225312	0.480425
899.407549	0.479555
899.589768	0.478937
899.771968	0.479353
899.954151	0.478684
900.136315	0.478168
900.318461	0.478176
900.500588	0.477082
900.682698	0.477215
900.864789	0.477085
901.046862	0.477177
901.228917	0.477481
901.410953	0.476882
901.592971	0.477204
901.774972	0.476667
901.956953	0.476958
902.138917	0.477016
902.320862	0.476837
902.502790	0.476296
902.684699	0.475545
902.866589	0.474682
903.048462	0.474318
903.230316	0.472957
903.412152	0.473032
903.593970	0.472797
903.775770	0.472419
903.957551	0.471701
904.139314	0.471723
904.321059	0.471923
904.502786	0.471960
904.684494	0.471694
904.866185	0.471414
905.047857	0.470616
905.229510	0.469851
905.411146	0.468958
905.592763	0.468011
905.774363	0.466885
905.955943	0.466575
906.137506	0.465629
906.319051	0.465425
906.500577	0.465428
906.682085	0.465405
906.863575	0.465378
907.045046	0.465747
907.226500	0.466201
907.407935	0.466295
907.589352	0.465386
907.770750	0.465334
907.952131	0.464135
908.133493	0.463776
908.314837	0.463110
908.496163	0.462060
908.677470	0.461195
908.858760	0.459784
909.040031	0.458797
909.221284	0.458140
909.402518	0.457919
909.583735	0.458508
909.764933	0.458061
909.946113	0.457339
910.127275	0.456683
910.308418	0.456522
910.489544	0.456137
910.670651	0.455750
910.851740	0.455831
911.032810	0.454554
911.213863	0.453454
911.394897	0.452951
911.575913	0.451886
911.756911	0.451550
911.937890	0.450457
912.118851	0.449668
912.299794	0.449356
912.480719	0.448431
912.661626	0.447979
912.842514	0.447085
913.023384	0.446422
913.204236	0.446436
913.385070	0.445991
913.565886	0.445412
913.746683	0.445671
913.927462	0.444624
914.108223	0.444555
914.288965	0.443378
914.469690	0.443456
914.650396	0.442592
914.831084	0.441846
915.011754	0.440815
915.192405	0.440809
915.373038	0.440259
915.553653	0.440370
915.734250	0.439063
915.914829	0.439375
916.095389	0.438403
916.275931	0.437487
916.456455	0.436430
916.636961	0.435810
916.817448	0.434756
916.997917	0.433514
917.178368	0.432503
917.358801	0.431410
917.539216	0.430133
917.719612	0.429000
917.899990	0.429013
918.080350	0.428976
918.260692	0.428198
918.441015	0.427376
918.621320	0.426582
918.801607	0.425626
918.981876	0.425463
919.162127	0.424682
919.342359	0.424268
919.522573	0.423170
919.702769	0.422207
919.882947	0.421580
920.063106	0.420732
920.243247	0.420723
920.423370	0.420336
920.603475	0.419061
920.783562	0.418296
920.963630	0.418162
921.143680	0.417023
921.323712	0.416482
921.503725	0.415553
921.683721	0.415261
921.863698	0.414518
922.043657	0.413408
922.223598	0.412468
922.403520	0.411958
922.583424	0.410602
922.763311	0.409983
922.943178	0.409012
923.123028	0.408728
923.302859	0.407825
923.482673	0.406821
923.662467	0.406080
923.842244	0.405657
924.022003	0.404120
924.201743	0.403066
924.381465	0.402624
924.561169	0.402055
924.740854	0.400890
924.920522	0.399048
925.100171	0.397590
925.279802	0.397267
925.459414	0.396338
925.639009	0.395887
925.818585	0.395814
925.998143	0.395007
926.177683	0.393606
926.357205	0.392462
926.536708	0.391863
926.716193	0.389844
926.895660	0.388034
927.075109	0.387276
927.254539	0.386201
927.433951	0.383856
927.613345	0.382011
927.792721	0.381676
927.972079	0.381213
928.151418	0.380803
928.330739	0.380958
928.510042	0.380491
928.689327	0.379437
928.868593	0.379055
929.047841	0.378714
929.227071	0.378287
929.406283	0.376180
929.585476	0.374935
929.764652	0.374549
929.943809	0.373797
930.122948	0.372461
930.302068	0.371334
930.481171	0.369831
930.660255	0.368614
930.839321	0.367941
931.018369	0.367676
931.197398	0.366913
931.376409	0.365839
931.555402	0.365259
931.734377	0.363878
931.913334	0.362656
932.092272	0.362505
932.271192	0.361774
932.450094	0.360252
932.628978	0.359674
932.807844	0.358449
932.986691	0.356305
933.165520	0.354708
933.344331	0.353684
933.523123	0.352658
933.701898	0.351247
933.880654	0.349467
934.059392	0.348151
934.238111	0.346690
934.416813	0.344681
934.595496	0.343985
934.774161	0.342850
934.952808	0.341622
935.131437	0.340703
935.310047	0.339481
935.488639	0.338408
935.667213	0.338476
935.845769	0.336718
936.024306	0.336161
936.202825	0.335526
936.381326	0.334509
936.559809	0.333356
936.738274	0.332727
936.916720	0.331697
937.095148	0.330841
937.273558	0.328833
937.451950	0.327530
937.630323	0.328223
937.808678	0.326493
937.987015	0.325118
938.165334	0.324262
938.343635	0.322998
938.521917	0.322414
938.700181	0.321827
938.878427	0.320496
939.056655	0.319661
939.234864	0.316961
939.413055	0.315840
939.591228	0.315178
939.769383	0.315142
939.947519	0.313072
940.125638	0.311420
940.303738	0.308866
940.481820	0.308176
940.659883	0.307564
940.837929	0.307066
941.015956	0.305995
941.193965	0.304370
941.371955	0.302979
941.549928	0.301575
941.727882	0.299045
941.905818	0.298324
942.083736	0.296984
942.261636	0.294930
942.439517	0.292271
942.617380	0.290609
942.795225	0.289365
942.973052	0.286734
943.150860	0.285904
943.328651	0.285934
943.506423	0.284670
943.684176	0.282701
943.861912	0.282279
944.039629	0.280542
944.217328	0.278800
944.395009	0.276592
944.572672	0.276970
944.750317	0.275507
944.927943	0.273183
945.105551	0.272685
945.283141	0.271703
945.460712	0.270460
945.638265	0.270218
945.815801	0.269571
945.993317	0.268846
946.170816	0.266297
946.348297	0.263666
946.525759	0.263584
946.703203	0.262555
946.880629	0.261273
947.058036	0.259791
947.235425	0.257358
947.412797	0.256614
947.590149	0.255774
947.767484	0.254302
947.944800	0.254619
948.122099	0.253083
948.299379	0.250714
948.476640	0.249111
948.653884	0.247197
948.831109	0.247381
949.008316	0.245389
949.185505	0.244469
949.362676	0.243271
949.539828	0.240624
949.716962	0.238438
949.894078	0.237387
950.071176	0.236557
950.248256	0.235599
950.425317	0.232948
950.602360	0.231696
950.779385	0.229520
950.956391	0.228482
951.133380	0.228107
951.310350	0.227110
951.487302	0.225839
951.664235	0.223909
951.841151	0.223215
952.018048	0.223629
952.194927	0.222848
952.371788	0.222177
952.548631	0.220233
952.725455	0.219044
952.902261	0.218298
953.079049	0.216294
953.255819	0.216726
953.432570	0.214560
953.609303	0.212993
953.786018	0.209683
953.962715	0.205572
954.139394	0.203796
954.316054	0.203660
954.492696	0.201319
954.669320	0.201510
954.845926	0.198902
955.022513	0.199297
955.199083	0.197386
955.375634	0.196852
955.552166	0.198062
955.728681	0.197785
955.905177	0.196778
956.081655	0.195468
956.258115	0.193291
956.434557	0.191434
956.610980	0.187931
956.787385	0.188094
956.963772	0.187706
957.140141	0.186250
957.316492	0.185145
957.492824	0.183185
957.669138	0.182991
957.845434	0.183440
958.021712	0.184314
958.197971	0.183260
958.374212	0.181616
958.550435	0.180937
958.726640	0.182000
958.902826	0.180713
959.078995	0.178801
959.255145	0.178565
959.431277	0.176984
959.607390	0.175274
959.783486	0.174737
959.959563	0.172867
960.135622	0.172478
960.311662	0.171763
960.487685	0.170331
960.663689	0.169946
960.839675	0.168121
961.015643	0.166540
961.191593	0.166342
961.367524	0.166211
961.543437	0.164432
961.719332	0.163212
961.895209	0.161957
962.071067	0.162450
962.246907	0.162742
962.422730	0.162751
962.598533	0.163700
962.774319	0.162644
962.950086	0.162407
963.125835	0.162011
963.301566	0.160368
963.477279	0.158762
963.652973	0.158441
963.828650	0.157459
964.004308	0.156016
964.179947	0.153852
964.355569	0.152453
964.531172	0.151850
964.706757	0.154071
964.882324	0.154613
965.057873	0.156185
965.233403	0.158143
965.408916	0.157853
965.584410	0.159477
965.759885	0.160515
965.935343	0.163048
966.110782	0.164954
966.286203	0.165398
966.461606	0.164261
966.636991	0.162558
966.812357	0.161962
966.987705	0.164240
967.163035	0.164294
967.338347	0.163317
967.513641	0.162977
967.688916	0.162934
967.864173	0.158798
968.039412	0.160832
968.214632	0.161209
968.389835	0.158804
968.565019	0.156202
968.740185	0.154750
968.915333	0.155421
969.090462	0.154724
969.265573	0.152422
969.440667	0.155978
969.615741	0.156660
969.790798	0.153884
969.965836	0.154187
970.140856	0.152880
970.315858	0.152899
970.490842	0.152106
970.665808	0.150076
970.840755	0.148837
971.015684	0.147998
971.190595	0.145679
971.365487	0.147018
971.540362	0.145260
971.715218	0.147711
971.890056	0.147269
972.064875	0.149264
972.239677	0.151831
972.414460	0.152201
972.589225	0.150668
972.763972	0.149812
972.938700	0.149216
973.113411	0.151070
973.288103	0.151923
973.462777	0.153691
973.637432	0.152921
973.812070	0.153261
973.986689	0.153688
974.161290	0.154639
974.335873	0.154899
974.510437	0.155855
974.684984	0.157171
974.859512	0.155615
975.034022	0.156285
975.208513	0.154856
975.382987	0.154513
975.557442	0.155540
975.731879	0.155488
975.906298	0.158206
976.080698	0.158663
976.255080	0.156898
976.429445	0.156639
976.603790	0.154467
976.778118	0.155233
976.952427	0.153908
977.126719	0.152418
977.300992	0.152386
977.475246	0.152258
977.649483	0.152497
977.823701	0.153161
977.997901	0.154340
978.172083	0.155799
978.346247	0.155178
978.520392	0.156350
978.694519	0.158632
978.868628	0.159446
979.042719	0.157902
979.216791	0.156612
979.390845	0.156604
979.564882	0.156769
979.738899	0.156023
979.912899	0.155099
980.086880	0.155558
980.260843	0.152867
980.434788	0.152464
980.608715	0.152024
980.782623	0.153589
980.956514	0.154550
981.130386	0.153666
981.304240	0.152865
981.478075	0.154169
981.651892	0.151669
981.825692	0.153057
981.999472	0.152084
982.173235	0.151658
982.346980	0.151629
982.520706	0.150179
982.694414	0.150442
982.868104	0.151482
983.041775	0.152542
983.215428	0.155518
983.389064	0.156491
983.562680	0.155909
983.736279	0.157482
983.909860	0.157457
984.083422	0.157785
984.256966	0.158075
984.430491	0.156946
984.603999	0.156091
984.777488	0.153562
984.950959	0.152283
985.124412	0.153421
985.297847	0.152909
985.471263	0.152574
985.644661	0.151800
985.818041	0.149982
985.991403	0.151526
986.164747	0.149951
986.338072	0.152014
986.511379	0.151389
986.684668	0.151913
986.857938	0.153751
987.031191	0.153102
987.204425	0.153606
987.377641	0.154121
987.550839	0.151258
987.724018	0.152888
987.897179	0.152971
988.070322	0.151832
988.243447	0.151830
988.416554	0.150979
988.589642	0.150991
988.762712	0.150748
988.935764	0.150704
989.108798	0.153873
989.281813	0.154909
989.454811	0.152543
989.627790	0.154356
989.800751	0.153101
989.973693	0.151695
990.146617	0.153134
990.319524	0.153840
990.492412	0.152973
990.665281	0.150829
990.838133	0.148022
991.010966	0.147866
991.183781	0.150765
991.356578	0.150645
991.529356	0.151791
991.702117	0.151467
991.874859	0.151053
992.047583	0.154235
992.220288	0.153351
992.392976	0.155778
992.565645	0.158718
992.738296	0.157287
992.910929	0.156604
993.083543	0.157329
993.256139	0.157165
993.428718	0.158144
993.601277	0.157363
993.773819	0.158968
993.946342	0.159570
994.118848	0.157992
994.291335	0.158611
994.463803	0.160489
994.636254	0.160909
994.808686	0.161610
994.981100	0.163601
995.153496	0.163917
995.325874	0.163856
995.498233	0.163984
995.670574	0.165199
995.842897	0.163801
996.015202	0.165150
996.187488	0.164685
996.359757	0.163714
996.532007	0.161390
996.704239	0.162842
996.876452	0.164366
997.048648	0.163262
997.220825	0.163649
997.392984	0.164769
997.565124	0.162361
997.737247	0.163206
997.909351	0.162465
998.081437	0.162702
998.253505	0.159637
998.425554	0.158703
998.597586	0.157963
998.769599	0.157413
998.941594	0.156026
999.113571	0.157030
999.285529	0.155815
999.457469	0.155726
999.629391	0.155654
999.801295	0.155950
999.973181	0.156845
1000.145048	0.157920
1000.316897	0.157222
1000.488728	0.158440
1000.660541	0.157205
1000.832335	0.155082
1001.004111	0.155078
1001.175869	0.155346
1001.347609	0.155094
1001.519331	0.153857
1001.691034	0.152601
1001.862719	0.153920
1002.034386	0.153124
1002.206035	0.154898
1002.377665	0.156575
1002.549277	0.158610
1002.720871	0.157155
1002.892447	0.157980
1003.064004	0.159099
1003.235544	0.159758
1003.407065	0.158383
1003.578568	0.158928
1003.750052	0.159095
1003.921519	0.158992
1004.092967	0.160297
1004.264397	0.158784
1004.435809	0.158374
1004.607202	0.158551
1004.778577	0.158025
1004.949934	0.159899
1005.121273	0.158665
1005.292594	0.156693
1005.463896	0.157012
1005.635180	0.153975
1005.806446	0.156385
1005.977694	0.156541
1006.148923	0.155962
1006.320135	0.157237
1006.491328	0.155440
1006.662503	0.157006
1006.833659	0.157024
1007.004798	0.157909
1007.175918	0.158342
1007.347020	0.159120
1007.518103	0.160672
1007.689169	0.159809
1007.860216	0.160294
1008.031245	0.161652
1008.202256	0.159580
1008.373248	0.161858
1008.544223	0.160874
1008.715179	0.162504
1008.886117	0.161471
1009.057036	0.160005
1009.227938	0.160318
1009.398821	0.160152
1009.569686	0.159276
1009.740533	0.160071
1009.911361	0.160163
1010.082172	0.159929
1010.252964	0.159931
1010.423738	0.160454
1010.594493	0.160505
1010.765231	0.160861
1010.935950	0.159652
1011.106651	0.158931
1011.277334	0.158381
1011.447998	0.156911
1011.618645	0.158386
1011.789273	0.155637
1011.959882	0.157238
1012.130474	0.156520
1012.301048	0.155300
1012.471603	0.154623
1012.642140	0.154312
1012.812658	0.155604
1012.983159	0.155179
1013.153641	0.154709
1013.324105	0.155327
1013.494551	0.153154
1013.664979	0.154426
1013.835388	0.155766
1014.005779	0.156470
1014.176152	0.158549
1014.346507	0.156730
1014.516843	0.157667
1014.687162	0.157117
1014.857462	0.158304
1015.027744	0.159206
1015.198007	0.159781
1015.368252	0.159654
1015.538480	0.159953
1015.708689	0.159322
1015.878879	0.161706
1016.049052	0.160946
1016.219206	0.161693
1016.389342	0.164611
1016.559460	0.163830
1016.729559	0.162849
1016.899641	0.164296
1017.069704	0.164460
1017.239749	0.164475
1017.409775	0.164608
1017.579784	0.165821
1017.749774	0.165639
1017.919746	0.162240
1018.089700	0.163055
1018.259635	0.162754
1018.429553	0.161183
1018.599452	0.160480
1018.769333	0.160461
1018.939195	0.159360
1019.109040	0.159172
1019.278866	0.159107
1019.448674	0.159262
1019.618464	0.160372
1019.788235	0.160305
1019.957989	0.161932
1020.127724	0.162638
1020.297441	0.163125
1020.467139	0.162616
1020.636820	0.163809
1020.806482	0.161766
1020.976126	0.162494
1021.145752	0.161270
1021.315359	0.160371
1021.484948	0.159598
1021.654519	0.160072
1021.824072	0.158798
1021.993607	0.159983
1022.163123	0.159916
1022.332621	0.161511
1022.502101	0.159844
1022.671563	0.158799
1022.841007	0.161700
1023.010432	0.160275
1023.179839	0.159294
1023.349228	0.159076
1023.518598	0.157733
1023.687951	0.156506
1023.857285	0.157230
1024.026601	0.158085
1024.195899	0.158913
1024.365178	0.156049
1024.534439	0.156728
1024.703682	0.157361
1024.872907	0.155689
1025.042114	0.155652
1025.211302	0.155597
1025.380472	0.154756
1025.549624	0.155972
1025.718758	0.157039
1025.887873	0.158061
1026.056970	0.157836
1026.226049	0.158678
1026.395110	0.160328
1026.564153	0.160652
1026.733177	0.158583
1026.902183	0.158397
1027.071171	0.157848
1027.240141	0.156045
1027.409092	0.155375
1027.578026	0.155646
1027.746940	0.154810
1027.915837	0.154981
1028.084716	0.154826
1028.253576	0.156836
1028.422418	0.156527
1028.591242	0.155188
1028.760048	0.155550
1028.928835	0.155065
1029.097604	0.154667
1029.266355	0.155866
1029.435088	0.156539
1029.603803	0.158978
1029.772499	0.157088
1029.941177	0.158889
1030.109837	0.158234
1030.278478	0.158436
1030.447102	0.160051
1030.615707	0.159357
1030.784294	0.158100
1030.952863	0.158347
1031.121413	0.157860
1031.289945	0.159605
1031.458460	0.158663
1031.626955	0.158931
1031.795433	0.158533
1031.963892	0.158303
1032.132334	0.159362
1032.300756	0.159190
1032.469161	0.156850
1032.637548	0.155682
1032.805916	0.154816
1032.974266	0.153960
1033.142598	0.155300
1033.310911	0.155741
1033.479207	0.154619
1033.647484	0.154519
1033.815743	0.156090
1033.983983	0.157141
1034.152206	0.157447
1034.320410	0.158483
1034.488596	0.158896
1034.656764	0.158095
1034.824914	0.159043
1034.993045	0.158250
1035.161158	0.157487
1035.329253	0.156720
1035.497330	0.156861
1035.665388	0.157059
1035.833428	0.157287
1036.001450	0.158573
1036.169454	0.158841
1036.337440	0.158582
1036.505407	0.159885
1036.673356	0.161202
1036.841287	0.161447
1037.009200	0.162071
1037.177094	0.161041
1037.344970	0.159798
1037.512828	0.156631
1037.680668	0.157174
1037.848489	0.155752
1038.016293	0.156203
1038.184078	0.155068
1038.351845	0.152298
1038.519593	0.151031
1038.687324	0.151590
1038.855036	0.151601
1039.022730	0.154016
1039.190406	0.154691
1039.358063	0.155158
1039.525702	0.156982
1039.693323	0.157786
1039.860926	0.158273
1040.028511	0.158751
1040.196077	0.158578
1040.363625	0.160108
1040.531155	0.160461
1040.698667	0.158567
1040.866161	0.157538
1041.033636	0.156298
1041.201093	0.154613
1041.368532	0.156899
1041.535952	0.157700
1041.703355	0.155351
1041.870739	0.154766
1042.038105	0.154921
1042.205452	0.156446
1042.372782	0.156003
1042.540093	0.154199
1042.707386	0.155457
1042.874661	0.155265
1043.041918	0.153984
1043.209156	0.154513
1043.376376	0.154808
1043.543578	0.153122
1043.710762	0.151748
1043.877927	0.155177
1044.045074	0.156329
1044.212203	0.155258
1044.379314	0.155263
1044.546407	0.155574
1044.713481	0.156659
1044.880537	0.155444
1045.047575	0.157027
1045.214595	0.159411
1045.381596	0.156413
1045.548579	0.155676
1045.715544	0.156757
1045.882491	0.156218
1046.049420	0.156243
1046.216330	0.156444
1046.383222	0.156194
1046.550096	0.154165
1046.716951	0.151807
1046.883789	0.152936
1047.050608	0.155724
1047.217409	0.155083
1047.384192	0.154497
1047.550956	0.154017
1047.717703	0.155233
1047.884431	0.155083
1048.051140	0.158280
1048.217832	0.159447
1048.384505	0.158962
1048.551161	0.156480
1048.717798	0.156768
1048.884416	0.156410
1049.051017	0.157691
1049.217599	0.155233
1049.384163	0.156769
1049.550709	0.155867
1049.717237	0.156707
1049.883746	0.155458
1050.050237	0.154870
1050.216710	0.155130
1050.383165	0.157285
1050.549601	0.158795
1050.716019	0.160410
1050.882420	0.161947
1051.048801	0.161054
1051.215165	0.161054
1051.381510	0.163289
1051.547837	0.165322
1051.714146	0.164968
1051.880437	0.163832
1052.046709	0.161510
1052.212964	0.162236
1052.379200	0.158932
1052.545417	0.159857
1052.711617	0.158945
1052.877798	0.158878
1053.043961	0.156974
1053.210106	0.156217
1053.376233	0.156065
1053.542341	0.155054
1053.708432	0.154039
1053.874504	0.156862
1054.040557	0.155755
1054.206593	0.156331
1054.372610	0.156381
1054.538609	0.157038
1054.704590	0.159132
1054.870553	0.159627
1055.036497	0.159436
1055.202424	0.159718
1055.368331	0.159753
1055.534221	0.159607
1055.700093	0.159192
1055.865946	0.158313
1056.031781	0.159224
1056.197598	0.156336
1056.363397	0.154225
1056.529177	0.153635
1056.694939	0.152160
1056.860683	0.151634
1057.026409	0.150395
1057.192116	0.150485
1057.357806	0.150648
1057.523477	0.149748
1057.689130	0.153644
1057.854764	0.156151
1058.020381	0.157388
1058.185979	0.158419
1058.351559	0.157083
1058.517120	0.158585
1058.682664	0.158765
1058.848189	0.158645
1059.013696	0.160962
1059.179185	0.158453
1059.344656	0.157320
1059.510108	0.156788
1059.675542	0.158329
1059.840958	0.158561
1060.006356	0.159346
1060.171735	0.158600
1060.337096	0.159016
1060.502439	0.156835
1060.667764	0.157510
1060.833071	0.157855
1060.998359	0.159635
1061.163629	0.157353
1061.328881	0.155859
1061.494115	0.152759
1061.659330	0.153148
1061.824527	0.153818
1061.989706	0.154187
1062.154867	0.153580
1062.320010	0.154000
1062.485134	0.154562
1062.650240	0.155471
1062.815328	0.159359
1062.980398	0.162664
1063.145449	0.162128
1063.310482	0.161789
1063.475497	0.162437
1063.640494	0.161931
1063.805473	0.162883
1063.970433	0.163297
1064.135375	0.163262
1064.300299	0.162526
1064.465204	0.162345
1064.630092	0.163433
1064.794961	0.162066
1064.959812	0.160747
1065.124645	0.163431
1065.289459	0.162684
1065.454256	0.162461
1065.619034	0.161526
1065.783793	0.160435
1065.948535	0.160174
1066.113258	0.157818
1066.277964	0.158542
1066.442651	0.160882
1066.607319	0.158203
1066.771970	0.158384
1066.936602	0.158098
1067.101216	0.157840
1067.265812	0.157941
1067.430389	0.155926
1067.594949	0.156973
1067.759490	0.156013
1067.924013	0.154609
1068.088518	0.155048
1068.253004	0.152036
1068.417472	0.153952
1068.581922	0.156073
1068.746354	0.156480
1068.910768	0.158335
1069.075163	0.159008
1069.239540	0.160863
1069.403899	0.163304
1069.568240	0.165178
1069.732562	0.166110
1069.896866	0.165484
1070.061152	0.162992
1070.225420	0.161645
1070.389670	0.162952
1070.553901	0.164701
1070.718114	0.164471
1070.882309	0.162011
1071.046486	0.162069
1071.210644	0.162418
1071.374784	0.160745
1071.538906	0.162352
1071.703010	0.162431
1071.867096	0.160770
1072.031163	0.159795
1072.195212	0.161019
1072.359243	0.162334
1072.523256	0.163261
1072.687250	0.164803
1072.851226	0.161747
1073.015184	0.162855
1073.179124	0.164530
1073.343045	0.163681
1073.506949	0.163181
1073.670834	0.162383
1073.834701	0.158441
1073.998549	0.156212
1074.162380	0.154934
1074.326192	0.157149
1074.489986	0.154960
1074.653761	0.153253
1074.817519	0.154082
1074.981258	0.154726
1075.144979	0.154351
1075.308682	0.157300
1075.472367	0.156353
1075.636033	0.156333
1075.799681	0.157016
1075.963311	0.157772
1076.126923	0.160577
1076.290516	0.160936
1076.454092	0.160270
1076.617649	0.160683
1076.781187	0.159922
1076.944708	0.163521
1077.108210	0.165355
1077.271695	0.165554
1077.435160	0.167352
1077.598608	0.165251
1077.762038	0.166146
1077.925449	0.167082
1078.088842	0.167804
1078.252217	0.167585
1078.415573	0.165434
1078.578912	0.163994
1078.742232	0.166103
1078.905534	0.164685
1079.068817	0.162791
1079.232083	0.162783
1079.395330	0.159070
1079.558559	0.157929
1079.721770	0.158658
1079.884962	0.158374
1080.048136	0.160421
1080.211293	0.158523
1080.374430	0.159056
1080.537550	0.159849
1080.700651	0.159637
1080.863735	0.163009
1081.026800	0.162927
1081.189846	0.164676
1081.352875	0.165289
1081.515885	0.163008
1081.678877	0.163162
1081.841851	0.165919
1082.004807	0.165079
1082.167744	0.165407
1082.330663	0.164198
1082.493564	0.164052
1082.656447	0.162279
1082.819312	0.162146
1082.982158	0.165680
1083.144986	0.166272
1083.307796	0.163633
1083.470587	0.164561
1083.633361	0.166151
1083.796116	0.164027
1083.958853	0.161516
1084.121571	0.160384
1084.284272	0.159551
1084.446954	0.156241
1084.609618	0.156933
1084.772264	0.157176
1084.934892	0.158053
1085.097501	0.153962
1085.260092	0.156278
1085.422665	0.158711
1085.585220	0.161559
1085.747756	0.162883
1085.910274	0.163858
1086.072774	0.163569
1086.235256	0.164175
1086.397720	0.165112
1086.560165	0.167271
1086.722592	0.166934
1086.885001	0.167429
1087.047392	0.166316
1087.209764	0.163172
1087.372119	0.164644
1087.534455	0.162118
1087.696772	0.163617
1087.859072	0.163537
1088.021353	0.165708
1088.183616	0.164904
1088.345861	0.166114
1088.508088	0.164776
1088.670296	0.168653
1088.832486	0.168665
1088.994658	0.170266
1089.156812	0.170023
1089.318948	0.169783
1089.481065	0.166771
1089.643164	0.168025
1089.805245	0.167177
1089.967308	0.167702
1090.129352	0.168623
1090.291378	0.165759
1090.453386	0.164558
1090.615376	0.163979
1090.777347	0.164619
1090.939301	0.165578
1091.101236	0.168123
1091.263153	0.166460
1091.425051	0.167361
1091.586932	0.164328
1091.748794	0.164095
1091.910638	0.167082
1092.072463	0.165051
1092.234271	0.164276
1092.396060	0.160795
1092.557831	0.159040
1092.719584	0.159910
1092.881319	0.157414
1093.043035	0.158163
1093.204733	0.159431
1093.366413	0.158356
1093.528075	0.156326
1093.689718	0.156684
1093.851343	0.158892
1094.012950	0.159619
1094.174539	0.160558
1094.336110	0.160277
1094.497662	0.157321
1094.659196	0.160056
1094.820712	0.159907
1094.982210	0.162313
1095.143689	0.161546
1095.305151	0.163800
1095.466594	0.163628
1095.628018	0.165564
1095.789425	0.169945
1095.950813	0.175603
1096.112183	0.173953
1096.273535	0.171009
1096.434869	0.175307
1096.596184	0.172802
1096.757482	0.172812
1096.918761	0.171979
1097.080021	0.169016
1097.241264	0.169012
1097.402488	0.167240
1097.563694	0.166566
1097.724882	0.168734
1097.886052	0.165384
1098.047203	0.167278
1098.208336	0.164050
1098.369451	0.164093
1098.530548	0.166956
1098.691627	0.164214
1098.852687	0.163033
1099.013729	0.163009
1099.174753	0.163364
1099.335758	0.161207
1099.496746	0.158400
1099.657715	0.159880
1099.818666	0.160847
1099.979599	0.156853
1100.140513	0.157640
1100.301409	0.159095
1100.462287	0.159709
1100.623147	0.159458
1100.783989	0.163808
1100.944812	0.168249
1101.105617	0.167928
1101.266404	0.164808
1101.427173	0.165173
1101.587923	0.164052
1101.748656	0.161180
1101.909370	0.158091
1102.070066	0.154815
1102.230743	0.154560
1102.391403	0.149884
1102.552044	0.148172
1102.712667	0.148405
1102.873271	0.154020
1103.033858	0.155424
1103.194426	0.157730
1103.354976	0.162189
1103.515508	0.167459
1103.676021	0.164539
1103.836517	0.167204
1103.996994	0.171550
1104.157453	0.170430
1104.317893	0.166403
1104.478316	0.165385
1104.638720	0.162582
1104.799106	0.162330
1104.959474	0.159385
1105.119823	0.160225
1105.280155	0.161551
1105.440468	0.157698
1105.600763	0.160284
1105.761039	0.157985
1105.921298	0.159037
1106.081538	0.157535
1106.241760	0.156585
1106.401964	0.156535
1106.562149	0.157535
1106.722316	0.159297
1106.882465	0.161293
1107.042596	0.164981
1107.202709	0.168008
1107.362803	0.168915
1107.522879	0.174031
1107.682937	0.171626
1107.842977	0.171017
1108.002999	0.169028
1108.163002	0.167092
1108.322987	0.169132
1108.482954	0.167140
1108.642902	0.163674
1108.802833	0.162042
1108.962745	0.159435
1109.122639	0.158432
1109.282515	0.161126
1109.442372	0.162991
1109.602211	0.166641
1109.762032	0.165009
1109.921835	0.164756
1110.081620	0.169074
1110.241386	0.173373
1110.401134	0.174478
1110.560864	0.178766
1110.720576	0.178657
1110.880269	0.175980
1111.039945	0.172608
1111.199602	0.173278
1111.359240	0.170986
1111.518861	0.169230
1111.678463	0.164859
1111.838047	0.166029
1111.997613	0.166298
1112.157161	0.163845
1112.316690	0.166609
1112.476202	0.166212
1112.635695	0.164588
1112.795169	0.170209
1112.954626	0.169878
1113.114064	0.174769
1113.273484	0.175462
1113.432886	0.172676
1113.592270	0.175151
1113.751635	0.175196
1113.910983	0.177487
1114.070312	0.174948
1114.229622	0.167823
1114.388915	0.166953
1114.548189	0.162552
1114.707445	0.162124
1114.866683	0.163597
1115.025903	0.161889
1115.185104	0.163190
1115.344287	0.159214
1115.503452	0.163915
1115.662599	0.165146
1115.821727	0.163397
1115.980838	0.164828
1116.139930	0.163563
1116.299004	0.157672
1116.458059	0.160270
1116.617097	0.159071
1116.776116	0.162985
1116.935117	0.157729
1117.094099	0.157945
1117.253064	0.165673
1117.412010	0.168768
1117.570938	0.167292
1117.729848	0.173999
1117.888740	0.172685
1118.047613	0.170390
1118.206468	0.171195
1118.365305	0.172366
1118.524124	0.175547
1118.682924	0.174190
1118.841707	0.168213
1119.000471	0.166030
1119.159216	0.158443
1119.317944	0.157424
1119.476653	0.156876
1119.635344	0.155039
1119.794017	0.153518
1119.952672	0.152703
1120.111308	0.151005
1120.269927	0.155112
1120.428527	0.163187
1120.587108	0.167635
1120.745672	0.168223
1120.904217	0.170996
1121.062744	0.171511
1121.221253	0.176082
1121.379744	0.172678
1121.538216	0.171155
1121.696671	0.170910
1121.855107	0.165805
1122.013524	0.167225
1122.171924	0.164495
1122.330305	0.161446
1122.488668	0.157332
1122.647013	0.154681
1122.805340	0.156538
1122.963648	0.158917
1123.121938	0.154257
1123.280210	0.155175
1123.438464	0.154555
1123.596700	0.153710
1123.754917	0.155172
1123.913116	0.159862
1124.071297	0.161104
1124.229459	0.162544
1124.387604	0.155949
1124.545730	0.158280
1124.703838	0.159192
1124.861928	0.160137
1125.019999	0.160990
1125.178052	0.159497
1125.336088	0.156954
1125.494104	0.158966
1125.652103	0.154513
1125.810083	0.159628
1125.968045	0.152614
1126.125989	0.152223
1126.283915	0.154467
1126.441823	0.156199
1126.599712	0.161406
1126.757583	0.165175
1126.915436	0.164042
1127.073270	0.165321
1127.231087	0.161958
1127.388885	0.171475
1127.546665	0.169091
1127.704426	0.165094
1127.862170	0.165875
1128.019895	0.165602
1128.177602	0.160917
1128.335291	0.157214
1128.492961	0.160410
1128.650614	0.161300
1128.808248	0.156738
1128.965864	0.161959
1129.123461	0.160341
1129.281041	0.158071
1129.438602	0.154202
1129.596145	0.150287
1129.753670	0.153977
1129.911176	0.154715
1130.068665	0.153135
1130.226135	0.155393
1130.383587	0.149068
1130.541020	0.150986
1130.698436	0.155050
1130.855833	0.154675
1131.013212	0.158178
1131.170573	0.159488
1131.327915	0.158809
1131.485239	0.158961
1131.642545	0.157154
1131.799833	0.157964
1131.957103	0.156888
1132.114354	0.152599
1132.271588	0.153510
1132.428803	0.156112
1132.585999	0.149696
1132.743178	0.147696
1132.900338	0.148133
1133.057480	0.147950
1133.214604	0.144701
1133.371710	0.147542
1133.528797	0.149965
1133.685866	0.148159
1133.842917	0.149256
1133.999950	0.151803
1134.156964	0.150670
1134.313960	0.148257
1134.470938	0.149472
1134.627898	0.151844
1134.784840	0.146700
1134.941763	0.148234
1135.098668	0.149858
1135.255555	0.149229
1135.412424	0.151857
1135.569274	0.153168
1135.726107	0.158289
1135.882921	0.161496
1136.039716	0.162627
1136.196494	0.167868
1136.353253	0.163471
1136.509995	0.156921
1136.666717	0.154984
1136.823422	0.154310
1136.980109	0.146654
1137.136777	0.146421
1137.293427	0.144168
1137.450059	0.146028
1137.606672	0.148069
1137.763267	0.146484
1137.919844	0.152367
1138.076403	0.150153
1138.232944	0.150747
1138.389466	0.157714
1138.545971	0.153178
1138.702457	0.153937
1138.858924	0.150735
1139.015374	0.142272
1139.171805	0.141029
1139.328218	0.141998
1139.484613	0.143775
1139.640990	0.140882
1139.797348	0.140452
1139.953688	0.146155
1140.110010	0.145568
1140.266314	0.151162
1140.422600	0.161788
1140.578867	0.169851
1140.735116	0.165276
1140.891347	0.161892
1141.047559	0.161520
1141.203754	0.163424
1141.359930	0.162289
1141.516088	0.161559
1141.672228	0.159106
1141.828349	0.155579
1141.984452	0.149094
1142.140537	0.154164
1142.296604	0.162409
1142.452653	0.164477
1142.608683	0.161465
1142.764695	0.153766
1142.920689	0.151837
1143.076665	0.150705
1143.232622	0.144119
1143.388562	0.144613
1143.544483	0.141125
1143.700385	0.132955
1143.856270	0.135110
1144.012136	0.135952
1144.167985	0.137032
1144.323814	0.137418
1144.479626	0.140589
1144.635420	0.148252
1144.791195	0.147486
1144.946952	0.148519
1145.102691	0.158844
1145.258411	0.156688
1145.414113	0.162253
1145.569798	0.162655
1145.725463	0.160947
1145.881111	0.156335
1146.036741	0.152467
1146.192352	0.152485
1146.347945	0.153242
1146.503519	0.147652
1146.659076	0.143723
1146.814614	0.138452
1146.970134	0.144405
1147.125636	0.145706
1147.281120	0.146984
1147.436585	0.148501
1147.592032	0.147531
1147.747461	0.145361
1147.902872	0.143315
1148.058265	0.152507
1148.213639	0.149123
1148.368995	0.145750
1148.524333	0.144243
1148.679653	0.146628
1148.834954	0.146918
1148.990237	0.153416
1149.145502	0.154973
1149.300749	0.157302
1149.455977	0.149418
1149.611188	0.152275
1149.766380	0.153604
1149.921553	0.151563
1150.076709	0.154926
1150.231846	0.151364
1150.386966	0.148498
1150.542066	0.147930
1150.697149	0.139707
1150.852214	0.144016
1151.007260	0.145625
1151.162288	0.142319
1151.317298	0.150985
1151.472289	0.144445
1151.627263	0.139541
1151.782218	0.140282
1151.937155	0.138902
1152.092073	0.146215
1152.246974	0.146988
1152.401856	0.144830
1152.556720	0.147441
1152.711566	0.142965
1152.866393	0.143067
1153.021203	0.148352
1153.175994	0.146533
1153.330767	0.149159
1153.485521	0.148307
1153.640258	0.151525
1153.794976	0.157460
1153.949676	0.158113
1154.104358	0.157217
1154.259021	0.157340
1154.413667	0.164011
1154.568294	0.171540
1154.722903	0.165480
1154.877493	0.162461
1155.032066	0.154401
1155.186620	0.146639
1155.341156	0.144772
1155.495674	0.145825
1155.650173	0.138408
1155.804654	0.129443
1155.959118	0.119917
1156.113562	0.121125
1156.267989	0.125855
1156.422397	0.128632
1156.576788	0.132384
1156.731160	0.141126
1156.885513	0.139778
1157.039849	0.145371
1157.194166	0.148341
1157.348465	0.148444
1157.502746	0.149893
1157.657009	0.149671
1157.811253	0.141877
1157.965479	0.137815
1158.119687	0.134899
1158.273877	0.131995
1158.428048	0.141346
1158.582201	0.134353
1158.736337	0.138496
1158.890453	0.134231
1159.044552	0.135398
1159.198632	0.134726
1159.352694	0.130893
1159.506738	0.123796
1159.660764	0.128970
1159.814771	0.116768
1159.968761	0.125085
1160.122732	0.124915
1160.276685	0.132891
1160.430619	0.127264
1160.584535	0.129556
1160.738434	0.129188
1160.892313	0.124366
1161.046175	0.125378
1161.200019	0.121926
1161.353844	0.119676
1161.507651	0.113866
1161.661440	0.107643
1161.815210	0.110655
1161.968962	0.115536
1162.122697	0.125509
1162.276412	0.132144
1162.430110	0.126157
1162.583789	0.131625
1162.737451	0.135229
1162.891094	0.138000
1163.044718	0.134293
1163.198325	0.128466
1163.351913	0.120781
1163.505483	0.113520
1163.659035	0.113487
1163.812569	0.116184
1163.966084	0.117357
1164.119581	0.109647
1164.273060	0.111849
1164.426521	0.119891
1164.579964	0.121263
1164.733388	0.130820
1164.886794	0.137319
1165.040182	0.129677
1165.193551	0.122943
1165.346903	0.118737
1165.500236	0.118797
1165.653551	0.114465
1165.806848	0.114277
1165.960126	0.116468
1166.113386	0.108086
1166.266628	0.104211
1166.419852	0.109893
1166.573058	0.112768
1166.726245	0.108194
1166.879414	0.107708
1167.032565	0.111001
1167.185698	0.109227
1167.338812	0.106526
1167.491909	0.106473
1167.644987	0.105766
1167.798046	0.103829
1167.951088	0.107552
1168.104111	0.119111
1168.257117	0.117461
1168.410103	0.115616
1168.563072	0.105981
1168.716023	0.110255
1168.868955	0.117183
1169.021869	0.117742
1169.174765	0.112237
1169.327642	0.108161
1169.480501	0.108362
1169.633343	0.106002
1169.786165	0.111593
1169.938970	0.122180
1170.091757	0.120742
1170.244525	0.108798
1170.397275	0.107080
1170.550007	0.112241
1170.702720	0.111067
1170.855415	0.103002
1171.008092	0.107107
1171.160751	0.097654
1171.313392	0.092227
1171.466014	0.087323
1171.618619	0.083902
1171.771205	0.083902
1171.923772	0.083902
