sample name	sample
index	1189
start time	 04-26-2021  12:08:11 PM
880	0.552109
Peak Time (s)	92.536
Peak Height 	0.5521
calc peak height	90,93
Baseline Time (s)	8.534
Baseline Value 	-0.003203
subtract baseline	10,4
Abs	0.360448
Peak Time (s)	91.535
Peak Height 	0.3604
calc peak height	90,93
Baseline Time (s)	11.537
Baseline Value 	0.001726
subtract baseline	10,3
PK_550	0.141057
Peak Time (s)	90.038
Peak Height 	0.1411
calc peak height	90,93
Baseline Time (s)	10.536
Baseline Value 	1.4365E-4
subtract baseline	10,2
PK_880	0.344067
Peak Time (s)	92.536
Peak Height 	0.3441
calc peak height	90,93
Baseline Time (s)	9.035
Baseline Value 	2.7511E-4
subtract baseline	10,1


Time (s)	A880-A510	A880-A775	A880-A975	A880	I510	I775	I975	I880	
0.038000	-0.003217	-0.001351	-0.004919	0.003497	6135.307722	43491.144952	3853.413147	22542.004911
0.535000	-0.002333	0.000101	-0.004034	0.005978	6123.464319	43395.041137	3849.854561	22430.109852
1.035500	-0.001107	-0.000139	-0.004206	0.004318	6144.888565	43527.548924	3853.170312	22504.876932
1.536500	0.000841	-0.000010	-0.002129	0.001989	6176.904303	43758.041859	3863.055285	22610.285800
2.036500	-0.003579	-0.000352	0.001052	0.003555	6132.180464	43579.083066	3866.706342	22539.363565
2.536500	-0.003861	-0.000738	0.000394	0.001507	6145.311797	43734.871270	3869.855378	22632.166027
3.036500	0.000219	0.000435	-0.006605	-0.000579	6191.574660	44042.293754	3858.764684	22727.178697
3.537000	-0.000417	-0.000255	-0.003865	0.001070	6174.349490	43821.400029	3861.215666	22652.027215
4.034500	-0.004108	0.000251	-0.004230	0.003332	6129.908515	43656.412741	3855.321138	22549.430615
4.535500	-0.000088	0.000291	0.005920	0.000956	6177.689008	43883.604223	3883.752346	22657.222982
5.035500	-0.000236	-0.000103	-0.005363	0.000941	6176.691846	43847.929363	3858.140856	22657.929693
5.535500	-0.000490	-0.000270	-0.001327	0.000643	6177.017942	43860.263675	3867.914181	22671.476988
6.036000	-0.001562	-0.001337	-0.002053	-0.000452	6177.192008	43862.940494	3868.750856	22721.388058
6.536500	0.000576	0.000304	0.002165	0.000905	6183.070181	43889.644238	3875.259520	22659.552635
7.036500	-0.001734	-0.000881	0.001584	0.000394	6169.544617	43826.165913	3875.102410	22682.822316
7.537000	-0.001336	0.000888	0.001269	0.001097	6167.251324	43926.668833	3872.777966	22650.809792
8.037000	-0.000364	0.000360	-0.003622	0.001054	6174.872281	43880.795328	3861.798542	22652.748124
8.534500	0.000262	-0.000483	-0.005347	0.000000	6187.528157	43900.754352	3860.289428	22700.757201
9.035000	0.000000	-0.000011	0.000107	0.000381	6182.675704	43909.317707	3871.762922	22683.376793
9.538000	-0.000787	0.000176	0.002711	-0.000021	6179.781011	43964.968766	3878.628083	22701.720712
10.035500	0.000200	0.000623	0.001249	0.001143	6178.441597	43897.292847	3872.628000	22648.706044
10.535500	0.001057	0.000000	-0.003370	0.000218	6191.889590	43925.794443	3864.252296	22690.827073
11.035500	-0.000116	-0.000212	-0.006141	-0.000354	6187.352066	43959.828922	3859.300307	22716.917896
11.536500	-0.001185	0.000024	0.000000	-0.000108	6177.437519	43958.873123	3872.633939	22705.691746
12.037000	-0.003443	-0.001098	-0.003104	0.000262	6157.722854	43818.075798	3864.753957	22688.796120
12.536500	0.000651	-0.000179	-0.001522	-0.000376	6193.303660	43964.910172	3869.780773	22717.892061
13.037000	0.000309	0.000186	0.002591	-0.000199	6189.389621	43982.765006	3878.759872	22709.844166
13.539000	-0.001944	-0.000686	-0.001136	-0.000574	6175.238595	43935.830434	3871.109797	22726.951378
14.035500	-0.004350	-0.000161	-0.003516	0.004598	6118.751049	43499.353703	3854.086257	22492.243341
14.537000	0.000131	-0.000715	0.001413	0.001737	6173.458063	43715.434173	3871.649173	22621.731242
15.037000	0.000462	0.000779	0.003869	0.000353	6186.373432	43986.620265	3880.424357	22684.663161
15.535500	-0.003432	0.000267	-0.000031	-0.000463	6163.233725	44015.409723	3873.373235	22721.890346
16.036000	-0.000285	0.000031	-0.001666	0.000789	6177.463606	43874.844925	3866.814617	22664.832446
16.536500	-0.001882	-0.000543	-0.001119	-0.001258	6180.845368	44013.886604	3872.703430	22758.172696
17.042500	0.001338	0.000217	0.002987	-0.003422	6221.652204	44291.491192	3887.085982	22857.376470
17.537000	-0.000173	0.001203	0.000555	0.001148	6175.609702	43951.587433	3871.039703	22648.512500
18.037500	-0.003150	0.000441	-0.006891	0.003560	6135.324768	43652.811360	3848.878523	22539.120422
18.535000	-0.001959	-0.000172	-0.005149	0.001011	6163.226017	43834.765176	3858.462203	22654.731013
19.038000	0.000142	0.000880	-0.000611	0.001779	6173.229598	43861.574884	3866.963310	22619.842716
19.535500	-0.002259	0.000641	0.002341	0.001676	6156.010061	43848.758434	3873.903901	22624.514723
20.036000	-0.002025	-0.000160	0.003061	0.001375	6160.007551	43801.691147	3876.233837	22638.197977
20.536000	0.001052	0.000185	-0.003481	0.001662	6180.956241	43807.145660	3860.747968	22625.159829
21.039000	-0.000641	0.000076	-0.000982	0.001529	6169.223215	43809.375186	3866.688320	22631.176045
21.539500	0.000680	0.000327	0.002209	0.001960	6175.908426	43792.420597	3872.954149	22611.601947
22.036500	-0.001330	0.000475	-0.004108	0.002239	6158.739038	43780.056732	3858.041980	22598.932078
22.540000	-0.000725	0.000207	-0.001674	0.001939	6165.519706	43783.158415	3864.196919	22612.562242
23.035000	0.001793	0.000018	0.001059	0.001682	6186.381684	43789.435810	3870.970124	22624.208981
23.538000	0.001016	0.000997	-0.001009	0.002338	6175.595127	43819.924957	3864.796474	22594.471632
24.035500	-0.000108	0.000742	-0.005425	0.002018	6169.550793	43826.016846	3855.586884	22608.964116
24.535000	-0.000452	0.000250	-0.003306	0.001737	6169.077559	43806.119053	3860.971937	22621.712682
25.035500	-0.000407	0.000535	0.001375	0.002308	6165.138273	43779.310865	3870.265530	22595.835790
25.535500	-0.000699	0.000799	0.005067	0.001971	6165.479537	43835.826151	3879.462055	22611.129804
26.036500	-0.000935	0.000501	0.000268	0.001827	6164.784657	43821.367509	3868.844619	22617.664279
26.536500	-0.000406	0.000606	0.003973	0.002075	6166.888864	43807.886180	3876.718146	22606.381695
27.037000	0.000882	0.000760	-0.001951	0.000110	6191.380238	44007.883119	3867.707340	22695.762702
27.537000	0.001014	-0.000325	0.003684	-0.002480	6212.011478	44150.355981	3886.520235	22814.119205
28.035000	-0.001621	0.000120	0.001784	-0.000213	6174.946246	43977.826616	3876.943991	22710.454863
28.540500	0.001574	0.000790	0.002709	0.000245	6195.591814	43997.874374	3878.013878	22689.601829
29.035500	0.000324	0.000738	-0.000443	-0.000115	6188.867571	44027.028398	3871.641961	22706.020256
29.535500	-0.000346	0.000771	-0.000143	-0.000001	6182.954368	44019.302134	3872.063904	22700.805150
30.036000	-0.004733	-0.000287	-0.003564	0.005371	6110.215887	43415.400982	3852.252491	22457.401463
30.538500	-0.000451	0.000754	0.001473	0.002346	6164.521161	43796.251264	3870.401450	22594.084197
31.036500	-0.003265	0.000099	-0.003262	0.002011	6146.000798	43766.265861	3860.455385	22609.313323
31.539500	0.001261	0.000824	-0.000082	-0.000051	6195.464687	44029.072181	3872.317928	22703.091064
32.037000	-0.003527	0.000807	-0.000653	0.005437	6118.630541	43511.433458	3858.619985	22454.438971
32.534500	-0.000398	0.000404	-0.001686	-0.000743	6188.152977	44054.806704	3870.243290	22734.649498
33.040500	0.001060	0.000652	0.003073	-0.000030	6193.781933	44010.853770	3879.477686	22702.133900
33.535500	0.002438	0.001072	0.001684	-0.001358	6214.306649	44176.518736	3879.336516	22762.765677
34.035500	-0.003622	0.000462	-0.007665	0.005400	6118.210125	43482.709772	3843.087071	22456.138046
34.536500	-0.000439	0.000069	-0.000010	0.001662	6169.741806	43796.193073	3868.587601	22625.134350
35.036000	0.000232	0.000321	-0.006063	0.002053	6171.849077	43783.136717	3854.081454	22607.393398
35.537000	-0.001647	-0.000004	-0.000457	0.002099	6157.426157	43748.322843	3866.586294	22605.324394
36.037000	-0.002434	0.000155	-0.000584	0.003457	6141.420981	43635.729383	3863.231089	22543.812006
36.534000	-0.000693	-0.000648	0.000921	0.001199	6171.308548	43772.321587	3871.753678	22646.173162
37.034000	-0.000709	0.000173	-0.000997	0.001814	6166.579369	43791.699925	3866.008445	22618.245106
37.537500	-0.001019	0.000487	-0.001338	0.002215	6161.247159	43783.426667	3864.330963	22600.024878
38.035000	-0.000872	0.000510	-0.001571	0.002685	6158.829159	43741.463096	3862.745884	22578.733329
38.535000	-0.001280	-0.000420	-0.001706	0.001659	6163.462387	43750.512562	3864.756969	22625.280992
39.036000	-0.000844	-0.000238	-0.000017	0.001447	6168.315384	43787.534685	3869.058225	22634.884145
39.536000	-0.001272	0.001170	0.002280	0.003205	6151.959457	43754.663373	3870.283484	22555.201762
40.036500	-0.001670	0.001704	-0.005394	0.003212	6148.933881	43804.164187	3852.986314	22554.864560
40.536500	0.000835	0.001189	0.002965	0.002663	6171.788107	43807.392451	3873.074439	22579.724785
41.037000	-0.003418	-0.000012	-0.005333	0.001975	6145.125774	43759.068392	3855.889365	22610.912139
41.537000	-0.000464	0.000990	0.000867	0.002864	6160.551488	43769.782427	3867.853244	22570.642724
42.037000	-0.000925	0.000765	0.004183	0.002587	6159.168793	43774.646073	3876.026617	22583.155419
42.537500	-0.002945	-0.000347	0.002728	0.001835	6149.693141	43740.781627	3874.421037	22617.271003
43.035000	-0.000776	0.000258	-0.003489	0.002157	6163.509029	43767.418556	3859.618865	22602.691947
43.535500	0.000140	0.001536	0.004152	0.003157	6162.876057	43793.554339	3874.654697	22557.355207
44.036000	0.000269	0.000818	-0.002523	0.000769	6181.783931	43950.956776	3864.922256	22665.735558
44.536000	0.000576	0.000188	0.005512	-0.000403	6192.939322	44002.238632	3885.944348	22719.129999
45.036000	0.000004	0.000884	0.002482	-0.000260	6187.543079	44054.592506	3878.649273	22712.615764
45.537000	0.001123	0.000592	0.005292	-0.000011	6194.117713	44003.411028	3884.535539	22701.264180
46.036500	-0.001966	0.000685	0.000856	0.002057	6155.350508	43817.030606	3869.659210	22607.229938
46.537000	-0.000617	0.000400	0.003166	-0.000205	6182.445164	44003.559290	3880.090616	22710.089265
47.037500	0.001057	0.000599	0.001589	-0.000006	6193.575258	44003.506519	3876.024741	22701.021548
47.535000	-0.001121	0.000234	0.003797	0.002853	6155.715043	43699.793430	3874.540570	22571.137551
48.035500	-0.003375	0.000180	-0.000237	0.005218	6121.378985	43473.286548	3860.045251	22464.312367
48.535500	0.001028	0.001432	-0.001031	0.000785	6187.384033	44007.508665	3868.261744	22665.017231
49.036000	-0.000329	0.000941	0.005418	-0.000076	6183.639268	44042.548291	3884.974989	22704.212230
49.535500	0.002649	0.001104	0.001343	-0.000488	6209.295347	44097.029151	3876.565770	22723.017493
50.036500	-0.000369	-0.000173	-0.001972	0.002122	6166.812182	43730.184450	3863.111109	22604.246334
50.536500	0.000543	0.000471	0.000328	0.003246	6165.226022	43685.037605	3865.764491	22553.313785
51.037000	0.020730	-0.002311	0.031814	0.308363	4599.043361	22988.275273	3406.697456	12636.113655
51.537000	0.021860	-0.016969	-0.009950	0.211342	5027.366813	27176.699222	3477.661979	15072.500363
52.040500	0.012745	-0.044989	-0.017246	-0.148125	7654.144931	54940.471881	4220.112935	30747.608982
52.535500	0.019640	-0.088722	-0.000300	-0.264228	9207.355205	64371.322365	4699.186054	39281.494829
53.034500	0.025127	-0.065540	0.017310	-0.228778	8787.516272	62659.972083	4626.116235	36429.974821
53.536000	0.026409	-0.046420	0.019148	-0.184920	8238.658678	59352.794009	4465.426659	33209.559373
54.035500	0.031085	-0.031609	0.029710	-0.118129	7528.513072	52988.236531	4273.339340	28889.365355
54.536000	0.033342	-0.024468	0.027440	-0.113020	7498.271838	53222.969504	4249.924567	28585.436076
55.036500	0.043733	-0.018214	0.040942	-0.102201	7493.762181	52697.089145	4258.392761	27953.557443
55.537000	0.060173	-0.011701	0.062513	-0.074886	7380.401504	50369.624781	4240.330060	26426.540754
56.037500	0.074542	0.000329	0.074561	0.008671	6722.032695	43165.976710	4034.369130	22309.382391
56.540500	0.100848	0.015871	0.105896	0.086529	6295.358102	37787.923384	3917.476738	19124.357950
57.034500	0.120398	0.028248	0.119619	0.126514	6139.740154	35640.984748	3856.813348	17697.534329
57.535500	0.138955	0.040320	0.143253	0.188740	5830.775615	32073.428718	3774.071336	15722.624940
58.035500	0.162939	0.050015	0.173678	0.241868	5641.196966	29299.995036	3728.720489	14246.503377
58.536000	0.182463	0.066283	0.188003	0.282699	5510.428901	27849.926507	3678.686172	13228.606669
59.036000	0.208531	0.077966	0.213482	0.334540	5360.597869	25649.117014	3631.865355	12066.786578
59.536000	0.231659	0.089487	0.233610	0.366422	5311.691604	24608.556261	3611.886779	11418.146237
60.036500	0.246550	0.099353	0.251057	0.399035	5215.656495	23502.364433	3586.895122	10802.123587
60.537000	0.265176	0.108301	0.270970	0.437132	5114.569371	22167.018567	3558.059923	10138.726684
61.037000	0.276281	0.114810	0.280220	0.483516	4942.558193	20479.482750	3502.792172	9405.755245
61.537000	0.289135	0.121109	0.285193	0.496064	4943.988025	20228.746537	3492.087359	9220.554745
62.035000	0.284234	0.124082	0.293336	0.499826	4903.814852	20197.364030	3498.254915	9166.062906
62.535500	0.290409	0.128618	0.307261	0.491965	4969.313216	20697.353419	3529.872582	9280.471173
63.039000	0.292512	0.131365	0.296921	0.489934	4989.006980	20893.907914	3517.628152	9310.368791
63.542000	0.301157	0.135130	0.309337	0.486979	5045.287604	21173.990834	3540.464920	9354.101933
64.036000	0.301036	0.135348	0.309644	0.488453	5037.461553	21121.325716	3538.703659	9332.255395
64.539000	0.302589	0.137229	0.313050	0.490471	5035.186195	21115.582919	3540.800468	9302.449315
65.037000	0.306256	0.139827	0.308383	0.494098	5035.377356	21072.561779	3528.370612	9249.223299
65.537000	0.309892	0.143939	0.324379	0.494978	5048.913197	21208.081270	3551.205125	9236.382240
66.037500	0.313696	0.145099	0.322913	0.498169	5051.931707	21122.759222	3544.083685	9190.007806
66.535000	0.310199	0.144615	0.325504	0.497512	5037.968632	21130.057089	3549.042128	9199.534041
67.035000	0.315852	0.144949	0.325046	0.499787	5054.584990	21048.867981	3544.867841	9166.632573
67.535500	0.318366	0.144474	0.322617	0.500310	5064.441680	21007.282672	3540.388732	9159.095751
68.035500	0.318967	0.146106	0.318232	0.503962	5049.356984	20923.420388	3528.348372	9106.708141
68.536000	0.320753	0.148839	0.332951	0.505923	5048.494510	20955.399383	3547.566909	9078.751658
69.036000	0.319705	0.146819	0.321795	0.504504	5050.325488	20930.517497	3532.848653	9098.971464
69.536500	0.320407	0.146235	0.332569	0.505489	5048.932812	20865.584022	3547.647073	9084.935031
70.037000	0.324181	0.148090	0.331775	0.508941	5050.518131	20799.774821	3541.186573	9035.993429
70.536000	0.322034	0.147039	0.335035	0.510358	5033.017510	20698.469345	3543.982554	9016.005754
71.037000	0.323854	0.148406	0.335903	0.514292	5022.711252	20593.799648	3539.337711	8960.885048
71.535000	0.325837	0.147818	0.327230	0.516593	5021.164076	20476.668930	3522.976608	8928.867170
72.035500	0.320797	0.148473	0.335979	0.522584	4968.216447	20262.427382	3527.050006	8846.323669
72.535500	0.328541	0.148004	0.336846	0.521766	5009.198881	20276.354191	3529.552061	8857.527501
73.035500	0.328907	0.147564	0.342625	0.522997	5005.017295	20209.707735	3536.349831	8840.664091
73.536500	0.330239	0.147852	0.341729	0.525031	5001.635287	20140.411998	3531.961869	8812.928939
74.036500	0.328510	0.146684	0.343925	0.527584	4981.112942	19993.622906	3531.430308	8778.290254
74.537000	0.328804	0.147427	0.339170	0.528515	4978.074669	19986.179286	3523.002756	8765.698625
75.037000	0.330656	0.146498	0.336291	0.527919	4989.768068	19973.152043	3519.651321	8773.753073
75.540000	0.328058	0.149004	0.336236	0.530622	4964.537296	19965.432628	3515.625640	8737.334125
76.034500	0.331789	0.147790	0.338977	0.530965	4980.627208	19904.436132	3519.125096	8732.721713
76.535000	0.330843	0.146359	0.347611	0.530141	4980.047449	19880.760626	3533.116052	8743.794813
77.035000	0.331849	0.147929	0.347248	0.532653	4972.875664	19843.995604	3528.830495	8710.104898
77.536000	0.331059	0.146693	0.348463	0.531288	4975.612843	19849.025822	3532.674726	8728.388479
78.036000	0.333444	0.146929	0.338048	0.533977	4974.165719	19753.760379	3513.384132	8692.433372
78.536500	0.332652	0.145616	0.339086	0.530649	4986.253941	19831.979716	3519.746134	8736.962990
79.036500	0.330741	0.146398	0.342756	0.531065	4975.163720	19846.241391	3524.531097	8731.386464
79.537000	0.334612	0.145783	0.346213	0.531740	4990.418382	19796.065719	3528.648821	8722.332555
80.037500	0.335464	0.147420	0.346133	0.535234	4977.796845	19724.112645	3523.364073	8675.704514
80.534500	0.333796	0.147601	0.344430	0.533595	4977.659835	19794.641185	3523.269105	8697.527077
81.035000	0.334097	0.145722	0.347830	0.531304	4990.035862	19810.615567	3531.704695	8728.170784
81.535500	0.332286	0.145891	0.344416	0.532127	4977.459385	19785.234330	3525.413768	8717.146626
82.036000	0.335743	0.147343	0.349806	0.533877	4985.601206	19773.653778	3530.814588	8693.761885
82.535500	0.333552	0.145523	0.345459	0.532679	4980.859230	19749.551158	3526.139845	8709.760295
83.036000	0.333234	0.145862	0.342247	0.532905	4978.268152	19753.923070	3521.072679	8706.732891
83.536500	0.335962	0.146451	0.342463	0.533557	4988.178697	19751.521331	3520.434427	8698.034445
84.037000	0.334219	0.143332	0.342116	0.532733	4983.782728	19662.833762	3521.132858	8709.034453
84.537000	0.336315	0.144843	0.351446	0.534209	4986.748619	19664.170862	3532.766681	8689.335037
85.036500	0.337824	0.143728	0.345855	0.534061	4994.685691	19626.961513	3524.682045	8691.309380
85.535000	0.335829	0.143943	0.346294	0.535886	4976.426847	19565.176084	3522.639562	8667.033984
86.035500	0.335078	0.142560	0.345432	0.537081	4967.188455	19466.749083	3519.620663	8651.193795
86.535500	0.336508	0.142260	0.346368	0.536731	4975.636609	19468.622943	3521.506122	8655.828348
87.035500	0.337756	0.143620	0.347300	0.538819	4971.648506	19440.950802	3519.810979	8628.235539
87.535500	0.335087	0.142130	0.345609	0.539538	4955.626729	19357.204900	3516.290642	8618.771963
88.036500	0.336958	0.142358	0.352619	0.542117	4952.295315	19268.514126	3522.778564	8584.928370
88.536500	0.342343	0.142883	0.351886	0.542845	4974.313994	19260.903714	3520.632695	8575.417235
89.037000	0.339148	0.140469	0.347325	0.542026	4963.049361	19201.016791	3515.167254	8586.113846
89.539000	0.338774	0.137452	0.352856	0.542111	4960.878304	19085.188786	3523.135595	8585.002066
90.037500	0.338057	0.141057	0.358297	0.545842	4939.981197	19080.535109	3525.658393	8536.400797
90.535000	0.338340	0.138420	0.352316	0.545367	4943.530898	19000.338109	3517.570899	8542.564557
91.035500	0.341661	0.137731	0.355277	0.547335	4949.874893	18902.328591	3519.021934	8517.066712
91.535500	0.340156	0.137950	0.360448	0.549518	4932.624673	18830.282591	3523.408932	8488.923245
92.036000	0.339300	0.135230	0.347043	0.549408	4929.155212	18734.990140	3504.121265	8490.336917
92.536000	0.344067	0.136863	0.355582	0.552109	4938.779336	18696.180583	3512.517935	8455.688784
93.036500	0.341534	0.135927	0.352201	0.552457	4925.369092	18649.654395	3507.142866	8451.250930
93.577500	0.344560	0.134834	0.352911	0.556964	4918.507394	18448.241894	3501.714315	8393.965383
94.037000	0.341951	0.134260	0.355033	0.556270	4909.667135	18452.521686	3505.734591	8402.744444
94.537500	0.346217	0.135272	0.363180	0.557151	4925.320573	18457.240329	3516.230153	8391.606638
95.038000	0.344619	0.134535	0.356566	0.558660	4910.950865	18377.130488	3504.508058	8372.562836
95.535500	0.346486	0.134417	0.365170	0.560039	4913.198901	18323.953733	3514.923077	8355.216812
96.035500	0.344151	0.134858	0.359473	0.563132	4888.318484	18230.255300	3502.275191	8316.527348
