sample name	sample
index	43
start time	 02-11-2021  02:01:27 PM
880	0.065519
Peak Time (s)	81.035
Peak Height 	0.06552
calc peak height	80,83
Baseline Time (s)	11.537
Baseline Value 	-0.003753
subtract baseline	10,4
Abs	0.055200
Peak Time (s)	81.537
Peak Height 	0.0552
calc peak height	80,83
Baseline Time (s)	11.537
Baseline Value 	0.01024
subtract baseline	10,3
PK_550	0.031696
Peak Time (s)	81.537
Peak Height 	0.0317
calc peak height	80,83
Baseline Time (s)	8.536
Baseline Value 	5.5214E-4
subtract baseline	10,2
PK_880	0.044239
Peak Time (s)	81.537
Peak Height 	0.04424
calc peak height	80,83
Baseline Time (s)	8.536
Baseline Value 	8.6951E-4
subtract baseline	10,1


Time (s)	A880-A510	A880-A775	A880-A975	A880	I510	I775	I975	I880	
0.039000	0.000755	0.000279	0.001942	0.001941	4617.279379	20142.042307	3314.058835	10929.506984
0.536000	0.000723	-0.001266	-0.008267	0.002441	4615.250322	20061.522381	3304.226158	10920.314827
1.036500	-0.003349	-0.000995	-0.013863	0.003471	4595.941301	20031.749382	3298.262740	10901.422388
1.537000	0.000418	0.000436	0.001781	0.000983	4619.651874	20186.067092	3314.800697	10947.147677
2.037000	-0.001818	-0.001030	-0.006378	-0.000377	4616.307169	20181.846097	3308.518188	10972.237389
2.537500	0.001657	-0.000861	-0.015579	-0.000361	4629.539642	20187.930351	3300.156977	10971.942989
3.035000	0.000537	0.000483	-0.003811	0.004366	4607.236320	20054.641484	3306.528671	10885.045862
3.535000	-0.001686	0.000335	-0.012316	0.002072	4607.502237	20139.048292	3300.902678	10927.095181
4.035500	0.001274	0.000198	-0.000918	0.003178	4614.544522	20090.133145	3310.269000	10906.801825
4.536000	-0.001073	-0.001307	-0.012965	0.001066	4613.650773	20113.996866	3301.223715	10945.606556
5.036000	0.002832	-0.000799	-0.010095	0.001397	4627.303020	20120.977483	3303.515935	10939.521516
5.536000	-0.000385	-0.000857	-0.002977	0.001323	4615.291479	20121.597648	3310.081163	10940.880167
6.036500	0.001147	0.000222	-0.009611	0.000357	4624.829188	20202.368742	3304.896875	10958.677492
6.543000	0.003654	0.000675	-0.000447	0.000395	4634.315759	20218.843701	3313.276779	10957.994031
7.034500	-0.001379	-0.000276	0.000248	0.001438	4611.073183	20139.997023	3312.953264	10938.768629
7.537500	-0.002426	0.000484	0.004988	0.000495	4610.681868	20207.293472	3318.256120	10956.146327
8.034500	0.000039	-0.000145	-0.009709	-0.000438	4623.630687	20219.325693	3305.531288	10973.368691
8.535500	0.000000	0.000000	-0.008307	-0.000835	4625.001871	20240.814428	3307.171434	10980.712694
9.035000	0.003496	0.000664	0.000897	0.000265	4634.204837	20223.554306	3314.646376	10960.391667
9.535500	-0.000152	-0.000352	-0.008547	-0.000105	4621.629892	20197.946273	3306.286973	10967.221084
10.036500	0.002623	0.000665	0.004493	-0.002354	4640.944743	20327.704090	3320.473581	11008.881671
10.536500	0.001479	-0.000350	-0.004673	0.000080	4627.164676	20190.681493	3309.664108	10963.799891
11.037000	-0.000187	0.001084	0.002259	0.001603	4614.980058	20187.212242	3314.668995	10935.732770
11.537500	-0.001278	-0.000579	0.000000	0.000000	4616.929172	20184.815557	3314.058009	10965.277635
12.037000	0.000141	0.000760	-0.006064	0.001058	4618.302578	20195.901886	3307.490904	10945.752449
12.535000	0.001412	-0.000768	-0.010631	-0.000950	4630.860823	20214.910842	3305.158111	10982.842555
13.035500	0.001082	0.000948	-0.014400	0.000457	4624.195772	20227.144078	3300.480803	10956.833851
13.535000	0.004958	0.000827	-0.004914	0.000891	4637.426910	20205.183770	3308.697452	10948.835112
14.036000	0.003536	0.000338	-0.014573	0.000888	4631.961693	20185.980318	3299.939774	10948.901048
14.536000	0.002853	-0.000476	-0.009942	-0.000810	4635.868568	20220.947232	3305.657741	10980.245393
15.036500	0.004946	-0.000400	-0.002237	-0.000590	4643.103694	20215.245561	3312.530183	10976.180416
15.537000	0.003067	0.000243	-0.003272	0.000374	4632.131115	20202.538005	3310.682526	10958.369168
16.036500	0.001277	-0.000338	-0.009198	0.000051	4626.502208	20192.348076	3305.551876	10964.341224
16.537000	0.001576	0.001429	-0.008144	0.001461	4622.248831	20206.473135	3305.228206	10938.341212
17.037500	0.003910	0.001251	-0.008788	0.000893	4633.381939	20221.901456	3305.159385	10948.808068
17.537500	0.002476	0.000277	-0.007146	0.000701	4628.606415	20190.924531	3306.828604	10952.334088
18.035500	0.003049	0.000103	0.005346	0.000271	4632.462003	20201.059363	3318.803535	10960.272458
18.535500	0.002695	-0.000057	-0.004181	0.000755	4629.237805	20175.568555	3309.495585	10951.339774
19.036000	0.002949	0.001651	-0.000557	0.001518	4627.287258	20213.010285	3312.133716	10937.296093
19.536500	-0.002408	-0.000004	-0.004009	0.000810	4609.551650	20175.481030	3309.602879	10950.323832
20.036500	0.001317	-0.000306	-0.012866	-0.003496	4640.308461	20334.522987	3305.441209	11030.107735
20.536500	0.002915	0.000589	-0.002261	-0.000941	4636.613351	20268.434566	3312.832750	10982.676902
21.037500	-0.001410	-0.000200	-0.006349	0.005363	4596.117195	19988.816774	3303.316909	10866.830659
21.534500	0.002662	-0.000216	0.001318	-0.001100	4636.250940	20242.797639	3316.312737	10985.628290
22.035000	0.002117	0.001502	-0.002307	-0.000330	4631.186969	20280.421469	3312.224398	10971.373321
22.535500	0.005235	0.000830	-0.006799	0.000045	4641.768184	20238.840445	3307.745891	10964.449212
23.035500	-0.001394	0.000641	-0.008010	0.004472	4599.534778	20056.684205	3302.620286	10883.102833
23.552500	-0.002607	-0.000871	-0.011457	-0.001431	4617.317473	20229.902032	3304.844735	10991.752226
24.036000	0.001960	0.000653	-0.009116	0.001875	4622.133660	20159.411304	3303.969208	10930.723927
24.563500	0.001293	-0.000374	-0.004051	-0.000615	4629.115964	20217.278999	3310.877128	10976.644861
25.039000	-0.000692	0.000714	0.000176	0.004709	4601.290507	20050.258915	3309.866662	10878.774472
25.536500	0.002471	0.001210	-0.001145	0.000453	4629.541519	20237.735744	3312.575266	10956.919461
26.037000	0.002094	-0.000600	0.008721	-0.001267	4634.704504	20234.146045	3323.449205	10988.706561
26.537500	0.005774	0.000966	-0.000226	-0.002184	4652.509235	20332.931093	3315.882599	11005.723594
27.037000	-0.000718	-0.000472	-0.013512	0.003664	4605.141698	20044.710120	3298.404065	10897.894742
27.535500	0.003248	0.000905	0.009785	0.001155	4629.825568	20197.816560	3322.160238	10943.971224
28.035500	-0.000894	0.000854	-0.002448	0.002043	4610.617884	20160.701493	3309.904757	10927.629861
28.536000	-0.003696	-0.000184	0.003011	0.001156	4603.360721	20154.704764	3315.785307	10943.948723
29.035500	0.001446	-0.000512	-0.001744	0.003535	4613.841736	20048.181587	3309.180401	10900.250233
29.536500	0.000449	0.000767	-0.007565	0.001271	4618.667509	20187.762991	3305.926861	10941.830655
30.037000	0.002726	-0.001112	-0.008044	-0.000310	4633.454224	20175.986459	3306.932438	10971.004836
30.536000	-0.000962	0.000300	0.002121	0.001694	4611.685502	20152.599457	3314.454700	10934.048046
31.037500	-0.002087	-0.001999	-0.004850	-0.000297	4614.978773	20140.460869	3309.848553	10970.773454
31.540000	0.002638	0.000588	0.005511	0.002437	4622.576409	20134.660229	3316.925065	10920.389875
32.040500	-0.001754	-0.001143	-0.001628	-0.000223	4615.966646	20171.351789	3312.754462	10969.403462
32.535500	-0.001190	0.000081	-0.005063	0.002054	4609.454710	20129.786970	3307.496533	10927.432925
33.036000	0.001878	0.001523	-0.005867	0.002508	4619.399495	20168.750483	3306.347755	10919.086452
33.536000	0.000275	-0.000711	-0.011210	0.000841	4619.644759	20146.397301	3303.010677	10949.766437
34.036500	0.000690	-0.001009	-0.012938	0.000370	4623.029436	20153.184245	3301.875634	10958.447858
34.536500	0.000752	-0.000587	-0.004319	0.000785	4621.681128	20153.503309	3309.341935	10950.797632
35.037000	0.000984	0.000518	-0.004126	0.001751	4618.878879	20158.995633	3308.631936	10933.010687
35.537500	0.000282	0.000095	-0.011009	0.001402	4617.530670	20156.003723	3302.684062	10939.416927
36.034500	0.003951	0.000420	-0.006765	0.001860	4629.818453	20150.791699	3306.119500	10930.994650
36.538000	0.000396	-0.000422	0.007550	0.001196	4618.752541	20143.771330	3320.008585	10943.225347
37.035500	0.009091	0.001330	0.005420	-0.002226	4665.636962	20349.136904	3321.228663	11006.496546
37.535500	-0.002039	-0.001057	-0.002375	-0.000611	4616.356528	20190.080647	3312.421324	10976.569271
38.053500	0.003569	0.001057	-0.000745	0.000045	4635.331745	20247.820936	3313.324117	10964.444912
38.536500	-0.000215	-0.000438	0.003364	-0.000090	4621.329884	20193.964268	3317.281649	10966.944762
39.036500	0.003119	0.000828	-0.019075	0.005355	4613.280110	20029.366577	3291.975720	10866.971283
39.536500	0.001143	0.001369	0.003713	0.001016	4622.291273	20221.683724	3316.572252	10946.526332
40.037500	0.001049	0.000800	-0.011615	0.000015	4625.764193	20238.811697	3303.390687	10964.995990
40.534500	0.002755	0.001069	-0.008470	0.001476	4626.704535	20191.614001	3304.918134	10938.069435
41.040500	-0.000532	0.000635	-0.009814	0.002349	4610.829056	20139.951868	3302.907962	10922.000636
41.535500	-0.001919	-0.000109	-0.012701	0.001771	4607.758419	20133.410653	3300.827248	10932.628782
42.038000	0.004075	0.001113	-0.010641	0.000820	4634.299454	20219.346879	3303.543959	10950.152672
42.535000	0.000442	0.001218	0.003209	0.000019	4623.426828	20255.269299	3317.034011	10964.931979
43.036000	-0.002641	-0.000890	-0.013975	0.001777	4605.004491	20102.447846	3299.678314	10932.531861
43.536000	0.003629	0.001273	-0.004811	0.000080	4635.431451	20255.029026	3309.536984	10963.800945
44.036500	0.006995	0.001691	0.005291	-0.005603	4670.671535	20499.017680	3324.312630	11069.436590
44.537000	0.002297	-0.003205	0.005042	0.012212	4584.337282	19607.898980	3307.447698	10742.869112
45.037000	-0.062852	-0.042953	-0.011046	0.287192	3703.133340	11050.680059	3113.510380	7084.432984
45.537500	-0.053405	-0.031510	-0.006058	0.102832	4120.189540	15631.721960	3224.531086	9274.095133
46.037500	-0.046848	-0.017251	-0.008310	-0.110465	4883.710652	24325.279647	3421.114798	13288.517202
46.535500	-0.025674	-0.013286	-0.003906	-0.145682	5150.206106	26337.845094	3469.901840	14162.301416
47.035500	-0.026156	-0.010299	-0.003942	-0.107431	4963.466170	24518.428245	3422.685141	13216.483815
47.536000	-0.016247	-0.007945	0.000162	-0.053608	4770.950287	22114.542470	3367.265478	12019.114228
48.036500	-0.023526	-0.006120	-0.008125	-0.038798	4681.225378	21551.737328	3343.600590	11714.856616
48.536500	-0.011456	0.000155	-0.012097	-0.028585	4688.595192	21384.380145	3329.678747	11511.002550
49.037000	-0.003897	0.006939	0.008238	-0.016607	4671.112456	21165.951201	3337.826799	11277.955233
49.537000	0.006208	0.012469	0.022347	-0.012115	4693.350064	21209.372851	3347.397414	11192.193286
50.037000	0.006342	0.015787	0.014593	0.006340	4621.816952	20585.963703	3321.803052	10849.035107
50.538000	0.015737	0.018036	0.022860	0.009290	4646.634867	20557.605516	3326.870752	10795.514240
51.035000	0.015162	0.016312	0.016261	0.032061	4558.449130	19595.214203	3299.635263	10394.446014
51.536000	0.024456	0.019962	0.026640	0.039467	4565.408607	19452.400085	3302.309232	10268.473516
52.035500	0.026754	0.020668	0.031929	0.035169	4589.950329	19642.951917	3311.057890	10341.314690
52.536000	0.026012	0.023620	0.021875	0.028962	4610.569415	19997.471371	3307.524333	10447.804322
53.036500	0.029929	0.024637	0.034254	0.025438	4639.064010	20176.044449	3322.337315	10508.940610
53.547500	0.033146	0.026324	0.021428	0.024418	4655.510058	20283.348357	3311.288399	10526.718535
54.037000	0.032094	0.026477	0.031209	0.024453	4651.275259	20288.042153	3320.386806	10526.109190
54.541000	0.034860	0.026086	0.037246	0.025288	4658.803526	20239.318171	3325.327451	10511.540208
55.038000	0.032445	0.025417	0.021819	0.027469	4640.938566	20126.625796	3308.840050	10473.637444
55.535000	0.033868	0.027050	0.022948	0.026901	4648.652708	20213.622320	3310.400323	10483.487949
56.035000	0.031428	0.025339	0.027752	0.025045	4646.389406	20219.387071	3316.582012	10515.786303
56.535500	0.033027	0.025812	0.016628	0.025958	4649.052472	20201.961549	3305.478098	10499.890283
57.035500	0.031477	0.025659	0.036209	0.029048	4631.120317	20074.061332	3320.769985	10446.320627
57.535500	0.037589	0.028338	0.036541	0.033909	4635.937542	19988.522650	3316.512744	10362.813073
58.036500	0.039190	0.026564	0.035371	0.033263	4644.618706	19944.441687	3316.021824	10373.845235
58.537500	0.038593	0.028758	0.026029	0.037492	4626.020969	19865.296087	3303.541859	10301.845294
59.037000	0.040811	0.028617	0.038727	0.039343	4627.431284	19788.170795	3313.485875	10270.564150
59.537500	0.042801	0.026903	0.045414	0.039929	4632.820956	19699.524113	3319.188590	10260.675898
60.037500	0.041574	0.027874	0.045810	0.040043	4627.669383	19732.486429	3319.454629	10258.760693
60.535000	0.041363	0.027229	0.036425	0.039875	4627.505545	19714.142755	3310.863753	10261.590796
61.035000	0.042519	0.028220	0.036357	0.041963	4623.935636	19672.001717	3308.880934	10226.491790
61.535500	0.039643	0.028374	0.034207	0.042584	4610.606224	19654.083345	3306.346550	10216.091321
62.036000	0.041128	0.028354	0.034516	0.041292	4621.180127	19702.904539	3307.808412	10237.747689
62.536000	0.043838	0.029366	0.041418	0.042445	4627.142442	19697.513821	3313.104883	10218.417728
63.036500	0.041279	0.027750	0.033721	0.042489	4617.189702	19633.828586	3305.989227	10217.678406
63.537000	0.042863	0.029524	0.036209	0.044589	4615.223098	19621.341344	3306.343176	10182.588329
64.037000	0.041313	0.029560	0.043151	0.043018	4615.303140	19682.939748	3314.181604	10208.817073
64.540000	0.044160	0.030252	0.039043	0.044224	4621.562005	19663.203601	3309.270567	10188.671566
65.035000	0.039055	0.029218	0.041258	0.045683	4596.662418	19567.859825	3309.965091	10164.372706
65.535500	0.040100	0.028470	0.044790	0.045395	4601.689431	19550.334931	3313.496169	10169.164519
66.035000	0.040440	0.029278	0.057126	0.046138	4600.166811	19552.814637	3324.402486	10156.817202
66.536000	0.040207	0.028401	0.037666	0.045753	4600.741184	19534.090906	3306.610575	10163.215895
67.036000	0.043890	0.029709	0.033147	0.047606	4607.662765	19513.377940	3300.839486	10132.480140
67.536500	0.039153	0.030308	0.051897	0.047839	4588.933750	19527.266241	3317.847844	10128.618270
68.036500	0.040126	0.028994	0.041030	0.048643	4589.566475	19446.948538	3307.043329	10115.334847
68.537000	0.044144	0.028991	0.042012	0.048675	4604.580320	19445.598034	3307.911643	10114.811020
69.037000	0.043227	0.031479	0.040921	0.051593	4590.132844	19429.303141	3304.258468	10066.777701
69.537500	0.040667	0.029738	0.033660	0.053149	4574.771311	19305.145627	3296.342200	10041.303051
70.035000	0.040569	0.028283	0.040491	0.051439	4580.769053	19314.693785	3304.007904	10069.306070
70.535500	0.042198	0.030577	0.035352	0.053394	4579.557607	19327.455449	3297.631029	10037.311502
71.035500	0.041960	0.029956	0.046283	0.053418	4578.581147	19303.243294	3307.480679	10036.922770
71.536500	0.044852	0.029972	0.043691	0.054601	4584.954937	19259.515618	3304.043365	10017.620572
72.036500	0.041983	0.031172	0.037626	0.056524	4567.141806	19232.480835	3296.868201	9986.374080
72.536500	0.040039	0.028372	0.037365	0.054986	4565.641469	19185.386375	3298.005859	10011.348372
73.037000	0.042242	0.028920	0.037840	0.057059	4566.119150	19128.683788	3296.581953	9977.689833
73.536500	0.037742	0.028816	0.040257	0.056979	4549.876270	19127.806688	3298.809329	9978.994730
74.040000	0.038209	0.030860	0.052420	0.058955	4544.366980	19130.336016	3308.029144	9947.061737
74.537500	0.041121	0.031395	0.040263	0.060338	4549.946331	19098.886840	3295.822137	9924.786851
75.035000	0.040090	0.030628	0.045468	0.060742	4544.707652	19055.559398	3300.106421	9918.298040
75.535500	0.041114	0.030558	0.046378	0.061032	4547.387961	19042.285658	3300.663527	9913.649679
76.036000	0.040168	0.029451	0.037603	0.060253	4546.779002	19030.162963	3293.543361	9926.163312
76.535500	0.040330	0.030360	0.032849	0.062077	4540.721970	18996.423524	3287.783548	9896.895372
77.036000	0.043272	0.030849	0.042516	0.063353	4546.792540	18967.478791	3295.146462	9876.497548
77.537000	0.041157	0.029059	0.051133	0.060969	4547.775867	18989.330242	3305.018060	9914.660870
78.036500	0.039736	0.029046	0.033151	0.062924	4535.491098	18917.088701	3287.309687	9883.349344
78.537000	0.039662	0.030809	0.050925	0.063129	4534.479410	18974.235047	3302.871073	9880.068690
79.037500	0.040793	0.030333	0.047395	0.063965	4535.549301	18926.089572	3298.945317	9866.735332
79.535000	0.041098	0.029809	0.048183	0.065465	4531.226803	18852.108663	3298.309097	9842.865571
80.035000	0.040228	0.030685	0.046737	0.063619	4534.755554	18951.690299	3298.665972	9872.248389
80.535500	0.044043	0.031350	0.046682	0.064323	4546.068212	18950.273052	3297.988731	9861.035261
81.035500	0.038594	0.031474	0.035675	0.065519	4522.007136	18910.942374	3287.247632	9842.002588
81.536500	0.044239	0.031696	0.055200	0.065315	4543.160722	18926.536077	3304.764105	9845.238813
82.036500	0.040531	0.030467	0.041355	0.063868	4534.953830	18934.560586	3293.664546	9868.281747
82.537000	0.042467	0.030651	0.035793	0.064826	4538.498343	18906.181048	3287.952518	9853.015587
83.036500	0.040507	0.030579	0.045081	0.064521	4532.499515	18914.707581	3296.385699	9857.869967
83.626500	0.039563	0.030462	0.030750	0.066286	4522.733193	18845.930768	3282.340640	9829.827576
84.034500	0.041802	0.031472	0.048544	0.064926	4535.721489	18932.624103	3299.113685	9851.425646
84.562000	0.039221	0.031477	0.040433	0.066057	4522.325475	18891.383951	3290.927471	9833.458667
85.035500	0.040249	0.031094	0.029472	0.065162	4529.251798	18910.098398	3282.208490	9847.675133
85.536000	0.037798	0.031003	0.054892	0.067339	4512.633908	18827.302912	3302.652286	9813.154213
86.036000	0.038545	0.030219	0.029681	0.064400	4525.857191	18906.001219	3283.041636	9859.809719
86.539000	0.041132	0.030748	0.042693	0.065149	4532.492005	18897.949080	3293.714139	9847.884885
87.036500	0.041073	0.031240	0.047981	0.066249	4528.303996	18875.679157	3297.428991	9830.413306
