sample name	sample
index	1256
start time	 04-29-2021  01:01:29 PM
880	0.559327
Peak Time (s)	100.035
Peak Height 	0.5593
calc peak height	100,103
Baseline Time (s)	10.036
Baseline Value 	-0.002503
subtract baseline	10,4
Abs	0.361875
Peak Time (s)	101.535
Peak Height 	0.3619
calc peak height	100,103
Baseline Time (s)	10.536
Baseline Value 	3.8391E-4
subtract baseline	10,3
PK_550	0.198111
Peak Time (s)	101.535
Peak Height 	0.1981
calc peak height	100,103
Baseline Time (s)	10.536
Baseline Value 	3.7629E-4
subtract baseline	10,2
PK_880	0.343772
Peak Time (s)	101.535
Peak Height 	0.3438
calc peak height	100,103
Baseline Time (s)	11.036
Baseline Value 	-8.5929E-4
subtract baseline	10,1


Time (s)	A880-A510	A880-A775	A880-A975	A880	I510	I775	I975	I880	
0.038000	-0.003747	0.000634	0.000020	0.007552	6134.366293	43517.050149	3900.461013	22504.463987
0.538000	-0.000847	-0.001231	-0.005508	0.003538	6185.568371	43718.121668	3897.036850	22686.145655
1.035500	0.001013	-0.000441	-0.003314	0.003688	6198.354488	43778.310296	3901.660502	22679.338135
1.536000	0.000636	-0.000101	0.000785	0.001120	6214.819805	44052.433311	3916.894241	22796.419521
2.036000	0.000462	0.000491	0.001294	0.006774	6171.216303	43576.368910	3905.117131	22539.546182
2.536500	0.002884	0.000579	-0.000410	0.001239	6230.892869	44105.549128	3913.875411	22790.991562
3.040000	0.002945	0.000470	0.000893	-0.001229	6250.091116	44329.536095	3922.567951	22904.134488
3.537000	0.000560	0.000295	0.003386	0.001141	6214.086139	44087.855227	3922.852099	22795.451405
4.040500	-0.002329	0.000345	0.000802	0.002226	6184.301786	43990.028852	3914.390223	22745.908583
4.535000	-0.000454	0.000602	-0.000239	0.000820	6208.867075	44147.396426	3915.227346	22810.128284
5.035000	0.000135	0.000294	-0.000407	0.000502	6215.697349	44148.347445	3915.573101	22824.690346
5.535500	-0.000064	0.000454	0.003863	0.000268	6215.962030	44185.692221	3925.984747	22835.413879
6.038500	-0.000006	-0.000148	0.000712	-0.000253	6220.326921	44178.066189	3919.892174	22859.308553
6.536000	0.001850	-0.000494	-0.000942	-0.000198	6233.941766	44139.959653	3915.952528	22856.767307
7.036000	0.000344	0.000169	0.000083	0.000547	6216.930534	44132.245969	3916.598216	22822.633883
7.536500	0.002076	-0.000034	-0.003301	0.000373	6231.332456	44129.508193	3909.236799	22830.614727
8.036500	0.002043	0.000259	0.001560	0.000608	6229.301917	44135.018370	3919.862876	22819.857321
8.537000	-0.000283	-0.000288	-0.002569	-0.000120	6217.239140	44152.166559	3912.039098	22853.224622
9.034500	0.002792	-0.000265	0.000381	0.000075	6239.017051	44135.851653	3918.371940	22844.263901
9.538000	0.000733	0.000866	-0.003585	0.000257	6222.057155	44225.918511	3908.852347	22835.934757
10.035500	-0.000022	0.000797	0.000587	0.000000	6218.303941	44243.734764	3919.021312	22847.709397
10.535500	0.001760	0.000000	0.000000	-0.000609	6236.377504	44225.872716	3919.070079	22875.631289
11.036000	0.000000	0.000277	0.001925	-0.000306	6220.774314	44223.458599	3922.819720	22861.743095
11.536000	-0.002404	-0.000332	-0.005941	0.003398	6175.008056	43815.786103	3896.375531	22692.508880
12.042000	-0.001212	-0.000307	-0.002056	-0.000765	6215.098222	44211.572497	3914.697214	22882.828863
12.537000	0.002215	0.000515	0.000333	-0.000180	6236.579386	44234.160422	3918.849640	22855.981869
13.040000	0.000523	0.000206	-0.000901	-0.000635	6227.210704	44247.967168	3917.054949	22876.862581
13.540000	-0.003488	-0.000480	-0.002162	0.004936	6155.561778	43657.514751	3901.443368	22622.690239
14.035000	0.000051	-0.000155	0.000110	0.001908	6204.499318	43972.882330	3913.533476	22760.435542
14.535000	0.000149	-0.000044	0.000918	0.001974	6204.732082	43977.132330	3915.235987	22757.414813
15.040500	0.001021	0.000505	0.000594	-0.000186	6227.577018	44233.639062	3919.464670	22856.217283
15.535500	-0.001898	-0.000784	0.002461	0.004979	6167.025478	43625.028604	3911.880714	22620.749738
16.036000	0.002195	0.000590	0.001166	-0.000116	6235.933717	44235.105033	3920.624568	22853.011471
16.539000	0.003883	0.000354	0.002500	-0.000231	6249.628850	44223.593238	3923.980066	22858.296697
17.037000	0.003593	-0.000204	0.001234	-0.003309	6270.921818	44463.681535	3928.190124	22999.986533
17.537500	0.001074	0.001367	-0.002644	0.003492	6200.283789	43967.008027	3903.626418	22688.242423
18.034500	-0.000518	0.000423	0.003433	0.002014	6199.431395	44017.478830	3920.942834	22755.592406
18.535000	0.002531	0.000627	-0.001821	0.001468	6226.489242	44088.384588	3910.115923	22780.530512
19.035000	0.002109	0.000447	-0.004405	0.001347	6224.212599	44082.773189	3904.499466	22786.032227
19.535500	0.001528	0.000902	0.000547	0.003945	6200.290608	43880.403992	3909.866341	22667.657256
20.035500	0.003208	-0.000433	0.002254	0.000820	6236.520294	44049.365888	3920.977468	22810.147568
20.536000	0.000822	0.000660	0.003261	0.001708	6211.793142	44068.867785	3921.253663	22769.578941
21.036500	0.000080	0.000212	-0.000704	0.001392	6208.590585	44056.357729	3912.848196	22783.989603
21.537000	-0.000844	0.000290	0.002217	0.002326	6194.647125	43975.391955	3917.413925	22741.339637
22.039500	0.000808	0.000041	-0.002560	0.001385	6214.120676	44040.818866	3908.618687	22784.327469
22.537000	0.000976	0.000149	0.000083	0.001330	6215.793646	44056.229151	3914.797432	22786.820583
23.036500	0.003110	0.001417	0.005136	0.001858	6227.915614	44126.275333	3925.247103	22762.697061
23.534500	-0.000198	0.000443	-0.000696	0.002042	6201.623351	44016.688724	3911.376574	22754.313561
24.035000	0.002366	0.000710	0.000380	0.001584	6224.366506	44085.330971	3914.896531	22775.227688
24.535500	0.000636	0.000609	-0.000876	0.001401	6212.704135	44093.088437	3912.433086	22783.594493
25.038500	0.000150	0.000671	0.001581	0.001306	6209.762109	44107.923181	3918.301398	22787.931851
25.536500	0.001839	0.000884	0.000754	0.001301	6222.523917	44128.533772	3916.406248	22788.138204
26.036000	0.001071	0.000195	0.002909	0.000846	6220.159031	44106.413813	3922.431429	22808.953005
26.536500	0.002656	0.000407	0.004171	0.001020	6230.828440	44110.022555	3924.953848	22801.012594
27.036500	0.003182	-0.000100	-0.001702	-0.001579	6254.564310	44308.635481	3917.384851	22920.249555
27.537500	0.001089	0.000203	0.001151	-0.001221	6235.935199	44303.417798	3923.148951	22903.782455
28.037500	0.000184	0.000188	-0.000103	0.000714	6214.466782	44118.231030	3915.785726	22814.979661
28.535000	0.002978	0.000341	0.000991	-0.000597	6245.533631	44257.173520	3921.331865	22875.096005
29.035500	-0.000745	0.001005	0.002500	-0.000108	6213.664141	44273.803736	3923.692837	22852.648065
29.536000	0.003719	0.000246	0.001240	-0.000421	6249.827719	44231.364509	3921.500990	22867.000046
30.036000	0.001268	0.000200	0.005987	0.000540	6223.960270	44135.874285	3930.297588	22822.974429
30.538500	0.000673	0.000876	0.001219	0.002712	6203.127147	43994.352058	3914.232665	22723.773511
31.036500	0.000227	0.000523	-0.003284	0.001846	6206.280740	44042.749196	3905.915265	22763.240172
31.537000	0.004203	0.000089	0.001914	-0.000340	6252.902654	44208.835728	3922.873358	22863.293298
32.037000	-0.000102	0.001075	0.001756	0.001846	6203.812047	44095.065276	3917.459076	22763.261466
32.542000	0.003048	0.001196	-0.002118	0.000939	6234.405464	44192.473929	3910.645316	22804.684416
33.035000	0.001929	0.000160	0.003403	-0.001303	6242.928175	44307.132376	3928.568568	22907.534685
33.535500	-0.001084	0.001285	0.001879	0.002427	6192.095326	44059.859847	3916.404372	22736.742776
34.035500	0.000716	0.000499	-0.002861	0.002263	6206.818008	44001.034174	3905.927279	22744.207943
34.536000	0.000479	0.000730	0.001961	0.002208	6205.450579	44028.137311	3917.096417	22746.727559
35.038500	0.001950	0.000892	0.005183	0.002632	6213.325891	44003.367962	3923.562098	22727.387456
35.536500	0.000332	0.000786	0.001325	0.003652	6193.529703	43897.121514	3912.317461	22680.966554
36.036500	-0.000267	-0.000035	0.000772	0.002131	6200.428754	43963.081009	3914.540035	22750.227886
36.536500	-0.000852	0.000519	0.002797	0.001993	6197.088495	44028.542362	3919.522818	22756.567953
37.037500	0.003494	0.000494	0.000428	0.002637	6224.935840	43965.364918	3912.591091	22727.195934
37.537500	0.002716	-0.000116	0.001627	0.002489	6220.173310	43921.677910	3915.681600	22733.907703
38.035000	0.000568	-0.000015	0.003621	0.001418	6212.062320	44032.380866	3922.756304	22782.794802
38.535000	0.001038	0.000929	-0.003365	0.002151	6210.086476	44052.364591	3905.037190	22749.334764
39.035500	0.001168	0.000250	0.002168	0.001847	6213.349953	44016.871318	3918.406437	22763.188459
39.538500	0.001434	0.000738	0.003686	0.003410	6203.604284	43915.421389	3918.301846	22691.983220
40.036000	0.000370	0.000321	0.002238	0.001764	6207.972535	44031.419079	3918.760231	22767.007947
40.536500	0.001185	0.000483	0.006682	0.001835	6213.568536	44039.979522	3928.896662	22763.739055
41.036500	0.000303	0.000364	-0.002067	0.002164	6204.464831	43997.684272	3907.963376	22748.728099
41.537000	-0.001131	-0.000332	0.000171	0.003002	6187.454292	43853.034179	3911.165981	22710.565258
42.037000	0.000695	0.000339	0.002245	0.001422	6212.985368	44065.458044	3919.565646	22782.617777
42.537500	0.001579	0.000714	-0.003573	0.002234	6213.532122	44024.217800	3904.374598	22745.569121
43.035500	-0.000025	0.000291	0.001298	0.001591	6206.301195	44044.966399	3916.990931	22774.883987
43.535000	-0.001082	0.001218	0.004881	0.004245	6178.551284	43881.965014	3919.134011	22654.054289
44.035500	0.002854	0.000970	-0.000400	0.000466	6236.521974	44216.020509	3915.674077	22826.375283
44.536000	0.002452	0.000410	0.007655	-0.000062	6237.474173	44212.885556	3935.608260	22850.545883
45.036500	0.002254	0.000250	0.004042	-0.000410	6238.612100	44230.699759	3927.978170	22866.511085
45.536500	-0.002691	-0.000603	-0.000426	0.004799	6162.477479	43658.840701	3905.698354	22628.905797
46.036500	0.000904	0.000227	0.002733	-0.000642	6230.142009	44250.543059	3925.472052	22877.144105
46.539000	0.002536	0.000957	-0.000925	0.000321	6235.210624	44228.479406	3914.798792	22832.982163
47.035000	-0.000118	0.000967	-0.000350	0.002430	6199.304217	44029.506327	3911.279884	22736.592009
47.535000	-0.001534	0.000232	-0.000401	0.005536	6165.594362	43668.106966	3904.081120	22595.532484
48.037500	0.002612	0.001417	0.002676	0.000836	6231.887016	44223.217393	3921.915722	22809.414623
48.535500	0.002968	0.000912	-0.001243	-0.000078	6241.519095	44262.117880	3914.985716	22851.304094
49.035500	0.003014	0.001571	0.000392	-0.000985	6248.755309	44411.212542	3920.843734	22892.902442
49.536000	-0.001015	0.000821	0.004401	0.004915	6174.058672	43781.579064	3916.481902	22623.639703
50.036000	0.002575	-0.000354	0.005080	0.003800	6209.244457	43775.957686	3920.621263	22674.249066
50.536500	0.009124	-0.011997	0.010702	0.051363	5914.979377	38575.637398	3828.224495	20626.803582
51.036500	0.032835	-0.017762	-0.002267	0.441916	4220.521060	17266.218077	3276.786393	10134.148473
51.537000	-0.008065	-0.021122	-0.025996	-0.048851	6540.904768	46884.252018	3971.743646	25218.205574
52.035000	0.007073	-0.032719	-0.004098	-0.140277	7541.238911	55745.554820	4286.236670	30439.096889
52.534500	0.014870	-0.017652	0.013239	-0.137208	7591.554897	57223.844975	4331.970764	30245.432211
53.035500	0.033588	-0.002361	0.035312	-0.079488	7192.360100	52174.179072	4220.457417	26846.768415
53.538000	0.061443	0.008431	0.063576	-0.032389	7008.212724	48228.123483	4165.134375	24389.410128
54.036000	0.081068	0.019238	0.087307	0.052931	6437.643080	41092.827509	4000.098753	20563.052986
54.536000	0.094449	0.031932	0.096785	0.074343	6373.629885	40335.255892	3970.739877	19715.105055
55.036000	0.118949	0.050751	0.120649	0.101961	6349.096661	39585.804512	3961.670699	18681.342978
55.536500	0.137302	0.065337	0.139573	0.123897	6321.115420	38971.348847	3954.447904	17905.827607
56.037000	0.157686	0.072393	0.160216	0.194014	5955.694510	34105.815144	3842.740557	15674.076584
56.537500	0.178288	0.083345	0.181308	0.228060	5863.891482	32493.448819	3815.532800	14713.681218
57.035000	0.192275	0.091309	0.199198	0.278789	5627.007649	29724.921960	3750.087821	13415.333338
57.535000	0.209529	0.101907	0.216638	0.319779	5484.297808	27916.643405	3706.113250	12471.567930
58.038000	0.230185	0.114498	0.239402	0.346834	5447.139539	27099.551005	3698.354453	11895.708570
58.536000	0.244962	0.126909	0.247361	0.379117	5348.245212	26020.425107	3655.790498	11253.900656
59.036000	0.259829	0.137728	0.266936	0.395775	5338.348452	25712.596419	3660.769684	10940.927123
59.536000	0.270129	0.146098	0.277322	0.413741	5296.450826	25215.620876	3647.899930	10616.557969
60.036500	0.279867	0.152851	0.293945	0.438040	5218.879606	24334.800193	3635.093126	10198.666186
60.537000	0.290522	0.156640	0.300845	0.451187	5205.865568	23879.370517	3624.836250	9982.125823
61.037000	0.295987	0.157601	0.311863	0.485096	5062.460253	22351.868070	3588.489444	9452.963090
61.534500	0.309131	0.160939	0.323181	0.513611	4988.788842	21260.264434	3562.416935	9038.856624
62.037000	0.310600	0.160362	0.333138	0.496260	5079.351471	21980.475967	3604.308451	9287.586177
62.535500	0.319193	0.159882	0.335854	0.514711	5031.425075	21169.667646	3579.849268	9023.424781
63.035500	0.314935	0.161708	0.329991	0.571309	4758.474110	19013.331513	3491.044515	8279.711037
63.536000	0.317356	0.167104	0.337019	0.580802	4729.158642	18862.686980	3487.794503	8164.180579
64.036000	0.313831	0.166028	0.328385	0.586750	4690.640208	18607.756138	3468.945322	8093.081076
64.536000	0.316074	0.170427	0.336380	0.596475	4660.806693	18417.185208	3466.751755	7978.902923
65.045000	0.318514	0.174440	0.340962	0.599724	4657.609966	18444.365066	3468.441251	7941.320397
65.545500	0.318813	0.174785	0.343012	0.607041	4630.139608	18197.921645	3461.793001	7857.707894
66.037500	0.320365	0.177060	0.337877	0.600974	4659.981720	18493.225171	3462.962435	7926.930907
66.535000	0.321762	0.177907	0.342103	0.599232	4672.433540	18586.037641	3470.518144	7946.991560
67.035500	0.322408	0.179706	0.338620	0.597168	4683.254633	18725.567556	3468.712781	7970.861711
67.535500	0.324860	0.183149	0.341299	0.600432	4680.005583	18732.078064	3467.971006	7933.171074
68.036000	0.321774	0.181678	0.344604	0.594165	4692.768033	18907.081531	3480.250001	8005.792749
68.536000	0.325927	0.183333	0.348718	0.590693	4723.744168	19096.325285	3490.176063	8046.477491
69.036500	0.329463	0.185295	0.344546	0.588776	4746.231980	19240.984827	3487.207652	8069.083713
69.536000	0.323783	0.185894	0.348771	0.584989	4738.393724	19406.148208	3497.825982	8114.029917
70.036500	0.331807	0.186506	0.348182	0.580970	4788.854576	19582.347985	3502.432060	8162.166413
70.537000	0.332931	0.188168	0.338139	0.578841	4802.727086	19727.978230	3491.860465	8187.849280
71.037500	0.333035	0.188045	0.344602	0.575822	4816.142469	19840.077101	3504.549974	8224.475544
71.534500	0.332418	0.191472	0.343450	0.576341	4811.247722	19953.382205	3502.292990	8218.154762
72.040500	0.333586	0.189858	0.350944	0.571867	4835.669381	20065.623258	3518.648981	8272.851992
72.535500	0.332660	0.191741	0.353096	0.569846	4840.441052	20219.976400	3524.459127	8297.736131
73.039000	0.333354	0.192767	0.351423	0.567351	4854.420630	20360.353037	3525.608663	8328.618980
73.536000	0.329015	0.191823	0.345481	0.571080	4819.256387	20174.283457	3512.205161	8282.526192
74.036000	0.332391	0.194282	0.349268	0.564104	4864.496495	20552.111305	3527.142117	8369.088883
74.537000	0.329534	0.192996	0.348447	0.562193	4860.313576	20577.409375	3528.674745	8393.042299
75.037000	0.332757	0.194222	0.353919	0.561538	4877.506877	20653.849500	3537.368180	8401.284602
75.537000	0.331179	0.193702	0.343478	0.565655	4852.315731	20466.049872	3516.914848	8349.724239
76.037500	0.331090	0.194808	0.351737	0.560847	4873.162985	20705.914541	3535.240575	8409.976579
76.537500	0.330293	0.193712	0.345218	0.560815	4869.769168	20662.545314	3526.074932	8410.390187
77.035500	0.330468	0.193463	0.351825	0.561273	4868.514687	20633.725643	3534.759210	8404.613265
77.535500	0.329310	0.193709	0.344818	0.566890	4838.723367	20416.638762	3517.059100	8334.350511
78.039000	0.331946	0.192716	0.344928	0.562798	4868.306233	20541.610461	3522.895170	8385.453769
78.536000	0.332166	0.195931	0.351157	0.566250	4854.037862	20531.985434	3526.781023	8342.305334
79.037000	0.335331	0.195604	0.352155	0.567095	4864.267981	20484.672802	3526.996282	8331.800756
79.536500	0.330165	0.194745	0.347612	0.573487	4813.834304	20194.684464	3511.826785	8252.976728
80.037000	0.333744	0.195811	0.355781	0.568071	4852.973110	20453.718747	3530.730448	8319.697455
80.537500	0.335693	0.196512	0.357445	0.569419	4855.612856	20427.665691	3531.176576	8303.013597
81.037500	0.337295	0.197487	0.352352	0.570425	4858.240150	20426.401741	3522.611470	8290.594960
81.535500	0.333128	0.199055	0.351051	0.578191	4806.355692	20179.066444	3510.097455	8195.710642
82.038500	0.332950	0.194629	0.353910	0.568874	4845.961310	20373.942142	3526.961648	8309.743657
82.535500	0.337863	0.198424	0.356773	0.570794	4859.118583	20449.286171	3528.288261	8286.049988
83.039000	0.335626	0.198364	0.357370	0.570842	4849.068558	20444.935902	3529.062881	8285.460257
83.536500	0.332080	0.196256	0.356440	0.574808	4816.392426	20202.218374	3522.200043	8236.832546
84.036500	0.339019	0.198370	0.352119	0.568914	4872.552939	20522.888744	3524.395419	8309.254153
84.536000	0.339335	0.199137	0.360528	0.569078	4873.228797	20547.299973	3536.039759	8307.230120
85.034500	0.342370	0.199665	0.359629	0.568414	4889.732010	20595.620883	3535.703850	8315.448357
85.537500	0.336012	0.199183	0.356625	0.571949	4845.903848	20433.321237	3526.456682	8271.839930
86.035000	0.341955	0.200570	0.351475	0.568193	4888.861582	20641.370882	3524.504365	8318.186746
86.535000	0.337290	0.198952	0.356840	0.565671	4879.286817	20678.165568	3535.638713	8349.525768
87.038500	0.341687	0.199197	0.356353	0.565586	4899.363497	20691.633566	3535.065443	8350.583794
87.536000	0.334571	0.195738	0.351805	0.569278	4851.298757	20402.242797	3523.448214	8304.754274
88.036500	0.340263	0.198111	0.353345	0.563851	4900.766598	20718.106211	3533.256551	8372.252374
88.536500	0.341027	0.200519	0.351009	0.565387	4897.291948	20753.803941	3527.787134	8353.067430
89.036500	0.339951	0.199253	0.359983	0.563761	4899.768646	20768.572437	3542.879306	8373.385540
89.534500	0.338435	0.198519	0.346136	0.568292	4872.719939	20554.084446	3516.942494	8316.949289
90.036500	0.345120	0.200312	0.355949	0.563174	4925.860557	20836.137119	3537.930554	8380.735500
90.540500	0.337250	0.197662	0.359085	0.560924	4900.377457	20819.671919	3545.679797	8409.008104
91.049500	0.340726	0.198698	0.356140	0.561812	4912.068979	20825.756063	3540.155451	8397.830773
91.535500	0.337658	0.198689	0.353166	0.567925	4870.900177	20575.825575	3527.250529	8321.503136
92.036000	0.340361	0.197752	0.360859	0.561218	4913.107940	20811.310622	3547.825735	8405.306892
92.535500	0.338444	0.197363	0.349662	0.560484	4907.754435	20825.480322	3532.808391	8414.554881
93.036500	0.341313	0.198794	0.357281	0.561714	4915.179933	20833.739812	3541.936095	8399.065252
93.536000	0.335392	0.197503	0.344016	0.566834	4865.694107	20571.999577	3516.029475	8335.050638
94.034500	0.339088	0.198698	0.356549	0.561866	4904.417042	20823.520824	3540.664703	8397.148695
94.537500	0.339993	0.197598	0.358504	0.560926	4912.764650	20816.956537	3544.835909	8408.979646
95.036500	0.340483	0.198465	0.358588	0.561712	4911.426274	20820.317938	3543.823654	8399.095902
95.535000	0.341320	0.197926	0.360347	0.561366	4916.788029	20812.367002	3546.868614	8403.440240
96.037000	0.340451	0.198405	0.355115	0.560782	4915.496690	20856.083381	3540.161390	8410.796578
96.538500	0.343043	0.197078	0.357196	0.560715	4927.605417	20804.288093	3543.253465	8411.649243
97.036000	0.343475	0.198035	0.363772	0.561759	4924.810875	20800.696471	3551.281158	8398.500067
97.536500	0.339419	0.197117	0.353302	0.559657	4915.922097	20849.383686	3539.176848	8425.005132
98.035500	0.339275	0.197121	0.354194	0.560400	4911.895061	20818.986843	3539.389404	8415.620697
98.536500	0.340697	0.196954	0.350818	0.560057	4919.908173	20826.210644	3535.057180	8419.947225
99.037000	0.341914	0.197021	0.362730	0.559830	4926.493628	20838.337861	3552.579524	8422.819593
99.540500	0.337037	0.196780	0.349826	0.565782	4877.662959	20585.301864	3525.569208	8348.133305
100.035000	0.341811	0.197515	0.358175	0.559327	4928.317936	20879.380423	3546.675907	8429.171507
100.535000	0.343062	0.197290	0.354258	0.558624	4937.270946	20899.089103	3542.032114	8438.073869
101.035500	0.341255	0.198019	0.360391	0.558392	4930.052815	20938.842813	3551.261397	8441.012959
101.535500	0.343772	0.198111	0.361875	0.558260	4942.205713	20948.106277	3553.627171	8442.686976
102.039000	0.339324	0.197999	0.357836	0.557372	4925.888819	20980.231703	3549.023125	8453.952322
102.536000	0.339449	0.196348	0.361721	0.555952	4932.951659	20970.656445	3556.791458	8472.020310
103.036500	0.346820	0.198761	0.358343	0.557976	4957.592444	20986.809045	3548.881800	8446.286393
103.537000	0.340499	0.197434	0.362436	0.562199	4909.293459	20758.011368	3548.693515	8392.973415
104.037000	0.340678	0.197282	0.348404	0.555298	4941.598829	21036.604440	3538.404639	8480.367775
104.535000	0.341158	0.198236	0.354413	0.556471	4938.413961	21027.508886	3545.363718	8465.415087
105.048500	0.340841	0.197551	0.359251	0.554707	4945.067006	21072.389457	3554.988952	8487.908837
105.535000	0.340389	0.197527	0.356984	0.561261	4913.040300	20800.274300	3542.160287	8404.765713
106.035500	0.342106	0.197340	0.351244	0.554133	4953.555230	21087.536380	3544.161681	8495.248541
106.536000	0.339214	0.196073	0.358477	0.553111	4944.921597	21077.296536	3556.198357	8508.346400
107.036000	0.337107	0.196401	0.355607	0.553562	4933.173009	21072.176797	3551.329167	8502.565262
107.536500	0.336546	0.197046	0.358446	0.560004	4901.353768	20832.174816	3546.086713	8420.617931
