sample name	sample
index	1179
start time	 04-26-2021  11:35:46 AM
880	0.362247
Peak Time (s)	92.036
Peak Height 	0.3622
calc peak height	90,93
Baseline Time (s)	9.036
Baseline Value 	-0.007894
subtract baseline	10,4
Abs	0.298886
Peak Time (s)	92.54
Peak Height 	0.2989
calc peak height	90,93
Baseline Time (s)	8.536
Baseline Value 	0.002727
subtract baseline	10,3
PK_550	0.178836
Peak Time (s)	90.535
Peak Height 	0.1788
calc peak height	90,93
Baseline Time (s)	10.536
Baseline Value 	4.478E-4
subtract baseline	10,2
PK_880	0.297210
Peak Time (s)	91.036
Peak Height 	0.2972
calc peak height	90,93
Baseline Time (s)	8.536
Baseline Value 	0.002839
subtract baseline	10,1


Time (s)	A880-A510	A880-A775	A880-A975	A880	I510	I775	I975	I880	
0.036000	-0.001049	-0.000387	-0.006595	0.003585	6147.651584	43677.214459	3835.224974	22591.415563
0.536000	-0.002082	-0.000933	0.003447	0.005353	6126.615293	43460.484765	3854.172428	22511.282995
1.036500	-0.002433	-0.000882	0.002193	0.005817	6120.526245	43422.038859	3850.208442	22490.333192
1.542000	-0.003772	-0.001031	-0.005609	0.006898	6102.494334	43307.440324	3829.962690	22441.541722
2.034000	-0.000899	0.000489	-0.001768	0.001988	6160.848038	43910.129200	3849.904825	22664.105970
2.659000	0.000975	0.000091	0.004734	0.001240	6180.736323	43943.214051	3866.733247	22698.212228
3.035000	-0.003955	-0.000200	-0.006348	0.003269	6128.202046	43724.497007	3836.504336	22605.801020
3.595000	0.001880	-0.000018	-0.001301	0.001110	6188.626903	43945.242654	3853.006075	22704.177639
4.729000	-0.000083	0.000037	-0.000288	0.000484	6178.438781	44009.622578	3856.797942	22732.780372
4.854500	0.000370	0.000301	0.003906	0.000689	6180.323219	44015.154637	3866.083496	22723.374132
5.036000	0.000121	0.000633	-0.001471	0.001107	6175.250750	44007.040828	3852.618094	22704.284787
5.536000	0.000173	-0.000242	-0.000723	-0.000058	6184.519479	44034.489047	3857.045579	22757.597704
6.036500	-0.001057	0.000359	0.005615	0.000382	6171.811971	44049.739572	3870.810914	22737.437426
6.536500	-0.003412	-0.000309	0.001670	-0.000259	6158.834001	44047.193765	3863.076165	22766.787036
7.036500	-0.000567	-0.000345	-0.003865	-0.000209	6180.028844	44039.049011	3850.135266	22764.512518
7.537000	0.001420	0.000903	0.003427	0.001129	6184.972209	44030.515374	3863.937714	22703.291162
8.035000	-0.002163	-0.000059	0.000536	0.000248	6164.447295	44022.864787	3859.258082	22743.579740
8.535500	0.000000	0.000092	0.000000	-0.000146	6183.865608	44074.512949	3858.926373	22761.603451
9.035500	0.000494	-0.000150	0.008477	0.000000	6186.518150	44037.749447	3878.463623	22754.921883
9.535500	-0.001249	0.000522	0.001175	0.000077	6172.674050	44094.164171	3861.142025	22751.410962
10.036000	-0.001145	-0.000247	-0.002572	-0.000435	6177.355204	44069.728516	3853.637115	22774.851351
10.536000	0.002055	0.000000	-0.002152	0.000099	6197.688264	44042.586267	3853.376636	22750.411441
11.039500	0.001440	0.000317	0.000165	0.000288	6191.543434	44054.663002	3858.302924	22741.757125
11.537000	-0.000339	-0.000081	-0.003771	-0.000650	6185.120483	44105.899741	3851.367427	22784.712894
12.037000	0.000996	0.000342	-0.000793	0.000114	6189.477321	44073.603091	3856.483739	22749.715767
12.537500	-0.001724	-0.000262	0.002426	-0.000187	6171.072327	44044.818156	3864.672966	22763.509659
13.035500	0.000038	0.000147	0.003202	-0.000527	6187.059024	44115.854140	3867.283296	22779.067935
13.538000	-0.001387	0.000475	0.000432	0.002000	6157.060880	43907.651820	3854.952608	22663.536394
14.035500	-0.000403	-0.000318	0.005752	0.002360	6161.784081	43798.971260	3866.493941	22647.158454
14.536500	-0.001386	0.000262	0.003568	0.002044	6156.736662	43883.417179	3862.132127	22661.528629
15.038500	-0.000882	0.000298	0.004408	0.000314	6173.654610	44050.415291	3868.136720	22740.536815
15.536500	0.000236	0.000535	0.003058	0.000438	6181.215487	44061.067894	3864.688441	22734.863307
16.036500	0.000566	0.000232	0.002085	-0.000164	6188.315481	44089.408851	3863.822537	22762.429675
16.537000	-0.000012	0.000345	0.001179	-0.000127	6183.628892	44096.613700	3861.624390	22760.717998
17.037500	0.002243	0.000341	0.005150	-0.002679	6220.445699	44339.074768	3876.929721	22877.991233
17.537000	-0.001169	-0.000617	0.002446	0.000659	6168.868314	43931.226855	3862.746866	22724.778685
18.034500	0.000337	0.000800	0.002063	0.001924	6170.695439	43945.572850	3858.911276	22667.023400
18.535000	-0.000528	0.000162	0.003572	0.001485	6167.457357	43926.709702	3863.443645	22687.018263
19.036000	0.000896	0.000408	0.005732	0.001858	6175.431783	43914.739188	3867.621684	22670.005140
19.535000	-0.004445	-0.000495	0.001769	0.000400	6146.068043	43967.149953	3861.770518	22736.609759
20.036500	-0.002095	0.001260	0.002425	0.002010	6151.636870	43980.897500	3859.551473	22663.069360
20.539500	-0.000627	0.000433	0.000967	0.001750	6164.696610	43927.256935	3856.770365	22674.921101
21.036500	0.000154	0.000313	0.006490	0.001361	6173.572740	43952.744740	3870.567339	22692.694177
21.537000	-0.002503	0.000008	-0.003432	0.001532	6152.167418	43907.714882	3847.127177	22684.883560
22.034500	-0.002128	0.000370	-0.000826	0.001424	6155.814206	43952.119852	3853.376326	22689.817539
22.534500	-0.001206	0.000091	0.001123	0.001008	6165.934342	43965.104247	3858.854694	22708.813185
23.035000	0.000995	0.001007	-0.003328	0.002464	6171.586175	43914.073119	3845.228051	22642.387997
23.535500	-0.002691	0.001140	0.001259	0.001769	6148.966689	43992.335888	3857.404176	22674.062448
24.035500	-0.001768	0.000010	-0.000482	0.001370	6158.941465	43923.199033	3854.297005	22692.268508
24.538500	-0.000865	-0.000362	0.003577	0.001019	6168.442858	43921.318965	3864.545532	22708.333732
25.036500	0.000818	-0.000081	0.004210	0.001667	6176.296381	43886.614682	3864.508798	22678.715798
25.536500	-0.001472	-0.000340	0.001752	0.001187	6162.567403	43907.488489	3859.901068	22700.644188
26.037000	0.000432	-0.000180	-0.002798	0.001034	6178.170691	43937.021068	3849.729245	22707.623677
26.537500	-0.001316	-0.000062	-0.001942	0.001530	6161.154963	43901.345201	3850.559465	22684.990501
27.034500	-0.002392	0.000534	0.005127	0.004940	6127.388140	43636.487866	3859.020515	22529.975129
27.537500	-0.001094	0.000199	0.000324	0.000864	6167.876934	43988.942333	3857.334168	22715.404569
28.035000	0.002027	0.000163	0.003218	-0.000665	6203.316381	44130.419076	3867.642427	22785.385075
28.536000	0.001687	0.000416	0.003456	-0.000693	6200.927384	44157.135106	3868.268286	22786.690575
29.036000	-0.003727	0.000105	-0.002521	0.006031	6109.274112	43494.211112	3838.925711	22480.647620
29.536000	-0.000038	0.000864	-0.000816	0.000174	6181.140682	44117.356769	3856.293199	22746.968534
30.039500	0.001689	0.000753	0.007113	-0.000087	6196.302407	44131.581877	3875.442313	22758.885936
30.536500	0.000823	0.000351	-0.000078	0.002957	6166.548341	43805.715907	3851.565782	22619.977237
31.037000	-0.004152	-0.001300	0.001528	0.003003	6128.715943	43646.087954	3855.166438	22617.854479
31.534500	-0.001148	0.000410	0.001392	-0.000135	6175.045507	44103.573351	3862.139116	22761.082603
32.035000	-0.000950	0.000618	0.001898	0.000353	6172.849302	44077.013034	3862.180894	22738.770330
32.535000	0.001551	0.001329	0.003809	0.000662	6189.535722	44115.237106	3865.922944	22724.649761
33.035000	-0.003009	0.000583	-0.001061	0.005969	6115.088203	43544.661151	3842.395404	22483.438106
33.535500	0.000321	0.000809	0.001871	-0.001458	6196.325678	44267.255929	3866.346024	22821.784409
34.036000	-0.001805	0.000627	-0.000346	0.002482	6150.271467	43876.549631	3852.043326	22641.583792
34.539000	-0.001032	0.000948	-0.000682	0.002438	6156.436703	43910.957978	3851.369769	22643.588335
35.036500	-0.001635	-0.000385	0.000506	0.002975	6147.837755	43734.744395	3852.871515	22619.150112
35.536500	-0.002671	0.000083	-0.001477	0.001673	6149.842948	43901.498883	3851.299209	22678.453949
36.034500	-0.001619	0.000279	0.000739	0.002251	6153.410732	43865.383047	3855.082366	22652.084307
36.535000	-0.001377	0.000148	0.001109	0.001651	6159.781112	43909.768736	3857.330174	22679.469471
37.035500	-0.001798	-0.000120	0.003023	0.002198	6152.467673	43832.871193	3860.505960	22654.540813
37.535500	-0.002052	-0.000394	0.004390	0.001704	6154.283137	43853.657603	3864.844484	22677.062961
38.035500	0.000150	0.000221	0.001077	0.002403	6165.644907	43845.706355	3855.514604	22645.183691
38.539000	-0.001357	0.000721	-0.000773	0.002072	6156.752571	43924.173362	3852.005611	22660.283266
39.036000	0.000523	-0.000095	0.001874	0.001768	6173.284837	43875.749162	3858.832230	22674.108801
39.544000	-0.001346	0.000425	0.003612	0.002376	6154.530920	43867.421300	3861.461720	22646.408302
40.036500	0.000108	0.000204	0.002669	0.002208	6166.797705	43862.436712	3859.657338	22654.045895
40.538000	0.000193	0.000909	0.003545	0.002330	6166.519239	43917.466197	3861.413332	22648.499630
41.034500	-0.002211	0.000407	0.001624	0.002850	6144.443444	43821.130624	3855.746387	22624.849458
41.535000	-0.000152	-0.000333	-0.001241	0.001582	6169.581723	43870.883831	3852.055720	22682.615603
42.035000	-0.001606	-0.000198	0.001329	0.001605	6158.396193	43881.394582	3857.946788	22681.563412
42.535500	-0.001729	0.000328	0.004994	0.002721	6149.045742	43825.771502	3863.880685	22630.724928
43.035500	-0.003157	0.000686	0.005032	0.002648	6138.844972	43866.399528	3864.137342	22634.034726
43.536000	-0.000534	0.000567	0.005329	0.001965	6163.782603	43919.625356	3866.427376	22665.136141
44.039000	0.000106	0.000453	0.004510	-0.000102	6184.340324	44104.582562	3869.354251	22759.611030
44.536000	0.000919	0.000938	0.006303	0.001065	6181.645538	44039.909466	3870.823308	22706.229046
45.037500	-0.002893	0.000576	-0.002837	0.005157	6122.023716	43620.099901	3840.197929	22520.176422
45.537000	-0.001314	0.000763	0.006637	0.002419	6154.454486	43895.335948	3868.430714	22644.467533
46.037500	0.000873	0.000508	0.006368	0.000422	6186.193191	44060.072342	3872.489153	22735.603020
46.534500	0.001232	0.000246	0.002798	0.000381	6189.244558	44039.159900	3864.216233	22737.482969
47.035000	-0.001584	0.000203	0.004384	0.003478	6144.434254	43742.728217	3860.693486	22596.282698
47.535500	-0.002767	0.000233	0.000551	0.003017	6139.004265	43788.954880	3852.879020	22617.245225
48.035500	0.002146	0.000186	0.003051	0.000427	6195.873492	44029.069050	3864.698959	22735.381658
48.536000	0.000178	0.000041	0.000167	-0.000079	6184.708269	44063.208595	3859.157709	22758.519917
49.036500	-0.004122	0.000170	0.002852	0.004223	6119.810959	43669.632758	3855.409341	22562.453663
49.537000	-0.000057	0.000757	0.006987	0.001046	6174.365301	44024.533055	3872.477965	22707.092961
50.036500	0.002199	0.000806	0.010828	-0.001091	6207.904055	44232.101056	3886.646687	22804.956857
50.537500	0.003194	0.000091	0.007160	0.007018	6153.757777	43400.691519	3858.915855	22436.111717
51.035000	0.016126	0.002819	0.007978	0.105553	5567.320411	35382.454650	3655.676818	18463.790315
51.535000	0.017158	-0.014546	0.007215	0.177091	5163.971993	29369.116895	3532.153303	16095.095909
52.035500	0.009823	-0.025438	-0.002619	-0.088256	7020.669138	50456.626211	4078.385256	27236.462228
52.536500	-0.008434	-0.046996	-0.015787	-0.202570	8046.735795	61780.427892	4400.473271	34574.357470
53.035000	-0.000032	-0.087094	-0.000793	-0.267116	8992.527552	65190.246437	4712.059716	39654.995755
53.538500	0.026359	-0.050252	0.026721	-0.211072	8588.827494	62496.163179	4593.684959	35201.246148
54.036500	0.054824	-0.022324	0.054260	-0.113597	7749.439507	53677.036078	4334.364873	28700.701584
54.534000	0.063347	-0.012973	0.067450	0.006713	6643.392918	42228.084646	4009.946458	22449.855675
55.037000	0.069836	-0.001342	0.075110	0.087986	6047.395214	36400.864939	3829.130370	19107.622714
55.534500	0.101814	0.022608	0.107129	0.113854	6092.337488	36253.282885	3843.093612	18168.536525
56.035000	0.133555	0.049466	0.138714	0.144016	6104.046056	36000.444588	3846.352110	17141.878896
56.535500	0.168859	0.075101	0.165221	0.152548	6309.320832	37330.079719	3888.444838	16864.166837
57.035500	0.192241	0.093543	0.190441	0.181331	6266.883962	36519.927726	3879.963648	15966.578621
57.536000	0.214900	0.108115	0.215991	0.227089	6091.231035	34190.212980	3833.145534	14656.595014
58.036500	0.229893	0.119865	0.234237	0.271951	5877.508995	31893.013713	3774.716198	13499.522970
58.536500	0.242700	0.128723	0.239828	0.291826	5829.049778	31166.710876	3744.801868	13023.882578
59.036500	0.248856	0.138059	0.253191	0.327397	5635.645976	29509.637527	3700.208204	12225.145141
59.540000	0.261191	0.144143	0.260950	0.361773	5499.065154	27831.240973	3649.676959	11512.950963
60.037500	0.271665	0.150935	0.272831	0.373411	5492.042484	27554.592202	3650.124156	11284.340836
60.540500	0.272304	0.154551	0.275381	0.386113	5420.372016	27044.052603	3631.642592	11041.708779
61.035000	0.279193	0.157216	0.283851	0.390922	5432.587515	26925.142325	3638.258687	10951.697735
61.535500	0.279011	0.159304	0.276402	0.390325	5435.033135	27074.177147	3625.922817	10962.812796
62.035500	0.279627	0.164904	0.279812	0.377620	5514.751399	28114.949261	3655.246612	11203.155060
62.536500	0.277144	0.167484	0.282611	0.372782	5529.101046	28549.414473	3669.529393	11296.546322
63.038500	0.277428	0.168875	0.273409	0.367558	5562.967872	28943.090012	3662.057688	11398.545972
63.544500	0.282990	0.171315	0.290709	0.366173	5606.300468	29173.515471	3697.747908	11425.803383
64.036500	0.282375	0.170797	0.285785	0.363197	5621.179774	29322.620370	3693.954613	11484.643677
64.537000	0.281670	0.171285	0.286284	0.360615	5633.076934	29510.118384	3699.963269	11536.047530
65.037500	0.280842	0.172423	0.286749	0.357825	5645.561511	29751.883390	3706.354346	11591.909422
65.535000	0.282164	0.172556	0.283978	0.356675	5661.367769	29831.309125	3703.165874	11615.041365
66.035500	0.284306	0.173102	0.283661	0.355331	5683.826084	29948.819039	3705.185290	11642.167385
66.536000	0.285430	0.174481	0.286483	0.355211	5691.875709	30042.344619	3710.996865	11644.590859
67.036000	0.282844	0.174902	0.291481	0.354193	5681.724842	30132.395529	3723.002522	11665.181831
67.535500	0.285218	0.174549	0.285697	0.354096	5697.735848	30116.330014	3711.647064	11667.141312
68.036500	0.286238	0.175735	0.285239	0.352552	5714.452210	30287.991049	3713.805016	11698.493929
68.536500	0.285748	0.175549	0.289919	0.352102	5714.187035	30304.649189	3724.067452	11707.652159
69.037000	0.285266	0.176650	0.295529	0.352941	5705.566347	30321.164542	3733.720108	11690.578905
69.537000	0.286859	0.175793	0.285347	0.351943	5722.497586	30330.098744	3715.233363	11710.883389
70.037000	0.285567	0.175591	0.288413	0.350508	5723.441682	30408.120618	3724.244995	11740.160923
70.535000	0.286854	0.175785	0.287379	0.350796	5729.995170	30402.120446	3721.587258	11734.273332
71.035000	0.286899	0.174769	0.288490	0.351158	5727.912455	30315.043539	3723.093136	11726.891454
71.535500	0.289204	0.176625	0.297631	0.352374	5735.068677	30355.444348	3739.164669	11702.103695
72.036000	0.287374	0.174930	0.293109	0.349832	5739.761492	30409.006397	3735.121481	11753.969738
72.536000	0.288095	0.175182	0.293078	0.348999	5750.030445	30477.873371	3736.758545	11771.035409
73.036500	0.287857	0.174678	0.292219	0.349381	5745.932459	30421.668560	3734.228534	11763.220041
73.536500	0.291266	0.176278	0.288134	0.349181	5769.884985	30535.973190	3726.355765	11767.308329
74.037000	0.290064	0.176363	0.291107	0.347687	5771.830294	30636.687103	3735.415183	11797.987321
74.537500	0.291756	0.177624	0.292095	0.347616	5783.614161	30721.907509	3737.576440	11799.449661
75.034500	0.288095	0.174911	0.291665	0.346147	5768.970089	30642.276639	3739.699914	11829.702290
75.535000	0.292594	0.177197	0.294468	0.346793	5794.754581	30747.243464	3744.129653	11816.380030
76.035500	0.292090	0.174927	0.291767	0.344213	5808.741768	30767.123606	3743.880364	11869.716715
76.535500	0.290545	0.175875	0.298634	0.344339	5797.475010	30819.870884	3757.860062	11867.090584
77.039000	0.292780	0.176306	0.295467	0.344336	5812.571220	30847.797653	3751.270183	11867.153542
77.536000	0.290621	0.174609	0.296170	0.342543	5810.095955	30854.036046	3756.465970	11904.395888
78.037000	0.291125	0.175459	0.295195	0.342991	5810.482428	30879.955086	3753.502293	11895.086172
78.537000	0.293816	0.175805	0.299826	0.343658	5824.181613	30859.199987	3761.781599	11881.217019
79.037000	0.291390	0.174663	0.293603	0.343061	5811.795754	30824.183250	3750.051001	11893.628377
79.537500	0.291711	0.174937	0.294537	0.343746	5809.340895	30797.746714	3750.567913	11879.404181
80.035000	0.292402	0.174930	0.295715	0.344979	5805.672811	30718.174419	3750.451686	11853.836581
80.535500	0.291959	0.174879	0.291815	0.345655	5798.138813	30671.664765	3741.017283	11839.872851
81.036000	0.291941	0.174043	0.292162	0.346052	5795.345012	30592.934048	3740.914655	11831.673533
81.534500	0.292613	0.175249	0.293966	0.347003	5793.471839	30609.190635	3742.664417	11812.055671
82.036000	0.291234	0.175531	0.292511	0.348121	5776.742038	30555.942578	3737.394095	11789.069378
82.536500	0.293767	0.175801	0.294379	0.348968	5788.025150	30519.152653	3739.480077	11771.667614
83.036500	0.290364	0.176701	0.297633	0.351080	5751.273760	30442.175183	3741.822785	11728.469396
83.537000	0.292063	0.175815	0.299027	0.350936	5763.510306	30395.188371	3744.986245	11731.423525
84.037000	0.290333	0.175449	0.294434	0.350943	5751.977040	30371.567926	3735.557403	11731.265419
84.534500	0.294290	0.176974	0.294976	0.352624	5767.091480	30361.719729	3733.239414	11697.023799
85.035000	0.291947	0.175695	0.289531	0.352165	5754.576073	30309.852517	3723.158652	11706.355381
85.538500	0.294177	0.177273	0.297465	0.354656	5752.845047	30252.337284	3734.168957	11655.812435
86.035500	0.292981	0.176544	0.297198	0.353214	5754.473896	30297.311441	3736.565303	11685.040041
86.538500	0.291458	0.176468	0.295065	0.354577	5735.413647	30206.632238	3729.458444	11657.412336
87.036500	0.296281	0.176942	0.296659	0.356090	5757.287806	30141.398908	3729.622146	11626.835015
87.536000	0.294861	0.177192	0.298817	0.357244	5740.256070	30084.731148	3731.656590	11603.585276
88.037000	0.292625	0.176549	0.300165	0.356177	5732.560407	30111.304264	3736.573876	11625.087845
88.537500	0.292408	0.177801	0.296033	0.358298	5717.218540	30056.878152	3723.902079	11582.404396
89.037500	0.295358	0.178549	0.294934	0.359986	5725.489070	29998.166409	3718.312373	11548.600566
89.537500	0.295096	0.178044	0.297628	0.360835	5718.210365	29913.815724	3722.009271	11531.653592
90.035000	0.295269	0.178286	0.298548	0.360155	5723.801129	29971.281298	3725.227351	11545.235089
90.535500	0.294505	0.178836	0.295455	0.361574	5709.514428	29917.101483	3716.182668	11516.908189
91.036000	0.297210	0.178306	0.294032	0.361838	5725.493566	29867.767169	3712.826413	11511.663060
91.536000	0.292788	0.177638	0.295477	0.361624	5698.009719	29839.556877	3716.127068	11515.915648
92.036000	0.294580	0.178271	0.296519	0.362247	5705.617979	29840.164389	3716.961867	11503.518159
92.539500	0.292846	0.177743	0.298886	0.361878	5696.739280	29830.355688	3722.439477	11510.861201
93.037000	0.293906	0.178326	0.297002	0.362864	5697.219085	29805.354416	3716.696275	11491.264786
93.540000	0.293025	0.177664	0.296654	0.362503	5693.842907	29786.700577	3716.721666	11498.431314
94.034500	0.296805	0.179111	0.291926	0.363590	5711.372828	29808.970134	3705.196324	11476.850298
94.534500	0.293345	0.178379	0.295804	0.363071	5692.231944	29795.789284	3713.897058	11487.143466
95.035500	0.293686	0.178043	0.296723	0.363011	5694.834238	29778.716810	3715.846294	11488.347837
95.538000	0.293313	0.177893	0.289797	0.361809	5700.216597	29843.899163	3704.511044	11512.229207
96.038500	0.294018	0.177732	0.297063	0.361708	5705.471235	29840.202750	3719.126205	11514.246627
