sample name	sample
index	1415
start time	 05-10-2021  11:49:31 AM
880	0.366237
Peak Time (s)	92.537
Peak Height 	0.3662
calc peak height	90,93
Baseline Time (s)	11.54
Baseline Value 	-0.003297
subtract baseline	10,4
Abs	0.255718
Peak Time (s)	91.537
Peak Height 	0.2557
calc peak height	90,93
Baseline Time (s)	10.536
Baseline Value 	0.00415
subtract baseline	10,3
PK_550	0.139421
Peak Time (s)	92.036
Peak Height 	0.1394
calc peak height	90,93
Baseline Time (s)	9.539
Baseline Value 	0.001146
subtract baseline	10,2
PK_880	0.241994
Peak Time (s)	92.036
Peak Height 	0.242
calc peak height	90,93
Baseline Time (s)	11.54
Baseline Value 	0.001361
subtract baseline	10,1


Time (s)	A880-A510	A880-A775	A880-A975	A880	I510	I775	I975	I880	
0.038500	-0.000401	-0.000809	-0.001114	0.000259	6507.728030	44360.056352	3933.297707	22680.096109
0.542000	-0.000485	-0.000136	-0.004784	0.003176	6482.537427	44146.589108	3916.468235	22547.401074
1.036000	-0.003547	-0.000901	0.000978	0.005924	6434.271398	43814.616490	3924.138587	22423.213713
1.536500	0.000597	0.000355	-0.005648	0.000763	6511.886987	44423.004893	3920.403079	22657.107050
2.037000	-0.000091	0.000490	0.002783	0.000544	6507.937868	44456.836857	3942.636384	22667.079347
2.537000	0.001203	-0.001129	-0.006538	-0.000737	6529.683862	44424.581535	3921.956518	22725.601663
3.037500	-0.002411	-0.000698	-0.001914	0.004343	6456.762668	43982.859032	3920.794520	22494.548928
3.534500	0.000468	-0.000419	-0.004833	0.000160	6515.887194	44406.690555	3924.016352	22684.599150
4.035000	-0.000991	-0.000794	-0.000094	-0.000192	6506.556407	44404.507208	3937.092276	22700.704526
4.536000	-0.000141	0.000073	-0.004329	0.000515	6507.762270	44419.822681	3924.397878	22668.406866
5.038500	0.000484	-0.000935	0.001185	-0.000338	6520.226343	44405.026499	3940.779035	22707.357880
5.541500	-0.000645	-0.000609	0.001092	-0.000316	6510.517187	44433.985661	3940.481581	22706.357549
6.036500	0.002159	0.001143	0.000469	0.000870	6524.174572	44488.109280	3935.802930	22652.227039
6.536500	-0.000335	-0.000623	-0.001753	-0.000069	6511.047043	44409.154752	3932.498368	22695.088262
7.036500	0.003267	-0.000603	0.001331	-0.000197	6542.627888	44423.288874	3940.792858	22700.929713
7.534500	0.000736	-0.000953	-0.000784	-0.000752	6525.859252	44442.753162	3936.753888	22726.263976
8.034000	0.000280	-0.000397	-0.000461	-0.000403	6519.053979	44462.625155	3936.688957	22710.332104
8.535000	-0.000400	0.000202	0.000256	-0.000312	6512.551086	44511.213804	3938.307017	22706.175621
9.035000	-0.001509	-0.000356	-0.005982	0.003674	6469.835256	44078.529928	3912.179286	22524.857358
9.538500	0.001017	0.000000	0.003905	-0.000219	6523.727821	44482.993057	3947.540587	22701.932779
10.036000	0.000286	0.000151	-0.002313	0.000124	6514.659789	44464.628215	3930.565055	22686.271058
10.536000	0.000155	-0.000263	0.000000	-0.000012	6514.698377	44438.041934	3936.870855	22692.481897
11.036500	-0.002317	-0.000605	-0.004006	0.003391	6465.456283	44081.717707	3917.897029	22537.638707
11.539500	0.000000	0.000110	0.000353	0.000000	6513.288803	44472.514405	3937.749463	22691.914153
12.037000	0.001198	-0.000170	0.005032	-0.000649	6528.898712	44507.857237	3951.605859	22721.583039
12.535000	0.000532	-0.000710	0.000357	-0.000797	6524.517220	44470.329611	3939.824549	22728.357710
13.035000	-0.001862	-0.000340	-0.004935	0.003043	6472.155625	44139.867185	3916.424804	22553.431428
13.535500	-0.000138	0.000074	0.001123	-0.000754	6518.490476	44541.268548	3941.697527	22726.378104
14.038500	0.000197	-0.001189	-0.000663	0.001146	6505.297727	44239.440031	3932.177400	22639.662332
14.536000	0.001317	-0.000525	-0.001828	0.000997	6515.987443	44316.811968	3929.568120	22646.439524
15.042000	-0.003126	-0.000812	-0.000971	0.003154	6460.706896	44084.552712	3926.236894	22548.411846
15.535500	0.001367	-0.000020	-0.002696	-0.001199	6534.988254	44574.898819	3932.978994	22746.728521
16.036000	-0.000630	-0.000141	0.001475	-0.001300	6518.947059	44573.013424	3944.029270	22751.394748
16.537000	0.000347	0.000159	0.000597	-0.001262	6526.880970	44598.120806	3941.649966	22749.627690
17.036500	-0.001512	-0.000383	-0.001548	0.002374	6480.663414	44199.326224	3926.757869	22583.810368
17.540000	0.002405	0.000319	-0.000078	0.000363	6530.552215	44457.775700	3935.699544	22675.328180
18.038000	0.000063	-0.000161	-0.001422	0.000151	6512.540314	44432.126853	3932.782068	22684.999163
18.535500	0.000501	-0.000004	-0.003429	-0.000005	6517.559670	44462.178741	3928.031516	22692.165270
19.035500	-0.000488	-0.000094	-0.002953	0.001454	6496.948094	44314.295366	3925.515999	22625.637058
19.536000	0.001495	0.000604	-0.000041	0.000593	6520.904375	44463.073565	3935.202238	22664.851822
20.036500	-0.002166	-0.000183	0.000380	0.000160	6493.724292	44429.202583	3937.407908	22684.602457
20.536500	-0.001088	-0.000290	0.000763	0.000190	6502.530063	44416.161552	3938.320995	22683.256622
21.037000	-0.000650	-0.000767	-0.003291	0.001580	6494.529797	44238.277706	3924.329437	22619.898638
21.534000	0.002001	-0.000293	-0.000475	0.000198	6528.532645	44415.092154	3935.103294	22682.890719
22.037500	-0.001082	-0.000900	-0.003700	-0.000266	6506.413617	44401.404189	3928.005592	22704.049525
22.537000	-0.000819	-0.000709	-0.003201	-0.000379	6509.581638	44430.438754	3929.574059	22709.230070
23.035500	0.000317	0.000888	-0.001326	0.000701	6510.047115	44479.865135	3931.614510	22659.917515
23.535500	-0.000604	-0.000527	-0.002517	0.000034	6507.909063	44408.385135	3930.267980	22690.339044
24.036000	0.000664	-0.000037	0.002083	0.000259	6516.709449	44433.749581	3941.560936	22680.112141
24.536000	-0.002424	-0.000928	0.000927	-0.000538	6497.416190	44424.758946	3940.629224	22716.516890
25.036500	-0.000493	-0.000470	-0.002969	0.001706	6494.793688	44254.538285	3924.831390	22614.170292
25.536000	0.000463	-0.000809	-0.008896	-0.000258	6519.382694	44409.395116	3914.751454	22703.722909
26.037000	0.000871	0.000909	0.001433	0.000632	6515.298443	44488.461870	3938.909585	22663.058622
26.537500	-0.000152	-0.000080	0.002505	0.000439	6508.300625	44412.403066	3942.185658	22671.858800
27.038000	0.002492	0.000365	-0.003536	-0.001432	6546.533527	44634.176235	3931.416845	22757.411957
27.535000	0.003426	-0.000139	-0.000756	-0.002219	6561.207344	44661.329085	3940.623801	22793.498546
28.035000	0.000632	0.000177	-0.000574	-0.001260	6529.281331	44599.619059	3938.611615	22749.533900
28.535000	0.001366	0.000185	-0.001900	-0.000715	6530.887797	44548.151716	3933.783290	22724.601691
29.036000	-0.004147	-0.000181	-0.002250	0.004875	6437.973672	43981.406610	3918.588248	22470.503257
29.535500	0.004506	0.000165	-0.002167	-0.000854	6558.778226	44559.575986	3933.452407	22730.954177
30.036500	-0.000316	-0.000155	-0.003505	-0.001244	6521.128344	44566.324258	3931.016452	22748.827006
30.537000	0.000954	0.000106	-0.004004	0.001437	6509.216361	44334.966621	3922.875165	22626.409528
31.037000	-0.001801	0.000286	-0.000992	0.004563	6460.005938	44055.079625	3922.582377	22484.602799
31.537500	0.000708	-0.000514	0.004846	-0.001708	6533.720730	44576.305244	3953.892674	22770.075747
32.034500	0.001940	0.000912	0.003251	-0.000426	6533.303130	44590.215281	3946.376402	22711.396416
32.535000	0.000159	-0.000055	-0.002520	-0.001080	6523.753662	44560.076252	3933.125879	22741.284050
33.035500	-0.002792	-0.000442	-0.004834	0.004628	6451.237025	43980.069967	3912.666901	22481.688049
33.541500	0.001439	-0.000501	0.002111	-0.000161	6526.806807	44429.508023	3942.721127	22699.278404
34.036500	0.003366	0.001010	-0.000502	0.001843	6526.157926	44382.511872	3930.798268	22607.930637
34.536000	0.000324	-0.000129	-0.001590	0.000927	6508.206650	44361.178375	3930.357388	22649.634269
35.036500	-0.002298	0.000245	0.001350	0.003006	6468.825742	44198.879425	3932.572302	22555.124454
35.537000	0.000145	-0.001323	-0.003371	0.000031	6514.248711	44332.761100	3928.086961	22690.498594
36.040000	-0.000780	-0.000304	0.000081	0.000453	6502.902751	44389.738694	3935.878361	22671.242810
36.540500	0.000515	-0.000159	0.002914	0.000730	6511.478132	44377.095226	3942.491530	22658.595228
37.035000	0.000161	-0.000719	-0.000497	0.000376	6511.477489	44357.412510	3934.586226	22674.744557
37.535000	0.000529	-0.000284	-0.000463	0.000810	6510.919322	44357.517100	3933.555036	22654.956255
38.036000	0.000323	-0.000145	-0.001897	0.000543	6511.435690	44396.306276	3930.555140	22667.119536
38.535500	0.000514	0.000001	0.001855	0.000811	6510.784388	44384.613498	3939.535823	22654.890526
39.036500	-0.000409	-0.000518	-0.004906	0.002503	6488.812745	44174.220398	3917.867576	22577.934234
39.536000	0.000692	-0.000157	-0.001569	0.000626	6513.847860	44387.222990	3931.184975	22663.347186
40.037000	0.000205	0.000174	0.000459	0.000966	6506.879341	44386.311832	3935.529816	22647.843810
40.539500	-0.000129	0.000626	0.004266	0.001262	6501.572972	44401.257594	3944.621768	22634.343715
41.034000	0.000190	0.000106	0.001213	0.002292	6495.605617	44253.627072	3934.056163	22587.540275
41.534500	0.000334	0.000346	0.003694	0.001045	6507.303216	44395.301057	3943.701158	22644.263884
42.035500	0.001994	-0.000304	0.000036	0.000578	6525.255827	44377.823881	3935.440787	22665.555555
42.535000	-0.000185	0.000054	0.005448	0.001335	6500.491075	44339.686034	3947.509705	22631.034153
43.035500	-0.001626	0.000171	-0.000611	0.003075	6473.853447	44185.351312	3927.359680	22551.988251
43.535500	0.002755	-0.000171	0.008047	-0.003526	6566.644200	44783.961576	3967.125777	22853.580505
44.039000	0.001935	-0.000153	-0.000052	-0.001026	6538.346201	44545.494562	3939.355043	22738.804501
44.536500	0.000770	0.000212	0.001949	-0.000627	6525.086010	44542.351002	3943.512134	22720.566859
45.037000	-0.002268	-0.000576	-0.003991	0.002957	6469.484702	44125.609813	3919.036495	22557.312162
45.537500	0.003000	0.000394	0.003641	-0.000573	6543.545008	44554.555161	3947.772078	22718.077832
46.034500	0.001836	0.000058	0.000940	-0.000667	6534.458843	44531.428903	3940.997065	22722.395607
46.535000	0.003396	-0.000542	0.000403	-0.001285	6552.986864	44533.170834	3941.207589	22750.691253
47.035500	-0.002238	0.000134	-0.001515	0.003937	6461.570556	44099.950785	3922.845936	22512.910896
47.535500	-0.000801	0.000022	-0.000137	0.001523	6493.735705	44318.741767	3932.560510	22622.474712
48.035500	0.000619	0.000399	0.000362	-0.000716	6524.565541	44568.797500	3939.625300	22724.639321
48.536000	0.001744	-0.000892	-0.001306	-0.001398	6539.883792	44510.399894	3937.076801	22755.858897
49.036000	0.002519	0.001052	-0.000636	0.004458	6496.967215	44137.590142	3923.760521	22489.355148
49.536500	0.001673	0.000151	0.002208	-0.003337	6555.790794	44796.822667	3951.251307	22844.895868
50.037000	0.000570	0.000335	0.004979	-0.001126	6527.624023	44601.999649	3952.717904	22743.411230
50.536500	0.001326	-0.001139	-0.000694	0.004754	6484.491087	43902.388946	3922.856230	22475.992041
51.034500	0.024920	-0.033693	0.095706	0.582797	3864.180634	12981.323970	3180.639761	8041.620552
51.534500	-0.011432	-0.030290	-0.017786	-0.059394	6940.995193	47339.937769	4049.608722	25598.586120
52.035500	-0.018761	-0.109588	-0.039109	-0.287850	9656.731549	65535.000000	4803.960383	41339.719494
52.535000	-0.006120	-0.092787	-0.020096	-0.269359	9565.663768	65291.871196	4806.352976	39735.686497
53.036000	-0.005885	-0.046203	-0.017794	-0.196656	8533.635585	61652.566201	4508.393846	34051.340060
53.536500	0.003308	-0.030277	0.003673	-0.148407	8044.844044	57441.473888	4407.135654	30771.414397
54.036500	-0.001234	-0.021920	0.002854	-0.109774	7553.278911	53771.424732	4268.900580	28395.616122
54.536500	-0.002389	-0.024897	0.000287	-0.133765	7807.179756	56291.463710	4342.408867	29846.040620
55.037000	0.013496	-0.022365	0.012360	-0.143689	8110.679028	57843.719154	4421.750144	30469.826267
55.537500	0.026480	-0.008052	0.031158	-0.094396	7688.783962	53595.014071	4312.819103	27507.227946
56.034500	0.036451	0.000743	0.046185	-0.029647	7115.431831	47471.669019	4150.816202	24093.150117
56.537000	0.057569	0.015702	0.067877	0.048502	6590.565401	41441.498971	3988.005563	20596.091954
57.035500	0.069920	0.023770	0.083269	0.084940	6388.772587	39006.903167	3932.532486	19168.603668
57.535500	0.084526	0.033940	0.094473	0.117489	6245.563819	37195.442363	3878.945075	17990.873572
58.038500	0.105872	0.043491	0.113427	0.147547	6178.132794	35615.549055	3852.095467	16978.969703
58.536500	0.119261	0.052369	0.126707	0.190341	5960.275712	33160.830512	3783.975244	15653.917658
59.036500	0.134111	0.063678	0.146341	0.211489	5915.507207	32483.891341	3780.605253	15045.771171
59.536500	0.148035	0.073881	0.162021	0.231728	5871.264656	31809.036895	3770.524852	14490.850517
60.037000	0.159525	0.080285	0.172397	0.257099	5776.233872	30575.383831	3738.103491	13830.756073
60.537000	0.166699	0.086169	0.184738	0.287103	5626.399233	29082.400034	3701.324293	13098.300396
61.035500	0.178177	0.092340	0.189459	0.303022	5598.156621	28502.126944	3678.770399	12729.740574
61.535500	0.181475	0.096964	0.201624	0.311917	5562.973258	28251.979969	3685.296191	12529.627872
62.035500	0.185353	0.099565	0.198794	0.308671	5607.835292	28595.068323	3686.131213	12602.185475
62.543000	0.185765	0.101637	0.203337	0.309298	5606.471965	28680.548246	3694.017805	12588.116346
63.040500	0.192781	0.105912	0.209938	0.307843	5660.759551	29022.443347	3710.470261	12620.776808
63.539000	0.197162	0.109083	0.214087	0.309325	5679.578291	29124.088084	3715.985295	12587.522375
64.046000	0.201426	0.111612	0.212658	0.310296	5701.111187	29218.113546	3711.021205	12565.783734
64.534500	0.201148	0.115109	0.216046	0.314748	5670.229669	29160.409438	3708.830340	12466.781831
65.037000	0.205805	0.116749	0.224403	0.316309	5690.407784	29165.182318	3722.921687	12432.306003
65.537500	0.204709	0.117524	0.226357	0.319775	5660.730301	29003.237936	3719.768968	12356.216033
66.035000	0.206501	0.117464	0.221848	0.321559	5660.780549	28892.770034	3706.756459	12317.274405
66.535500	0.209947	0.119262	0.224796	0.326607	5650.430763	28699.265476	3702.454359	12207.959537
67.038500	0.212162	0.122213	0.225905	0.332909	5624.209451	28501.282493	3691.910857	12073.269736
67.536000	0.213247	0.122822	0.228501	0.328422	5660.023266	28802.957548	3706.324445	12168.965958
68.036000	0.215238	0.124157	0.227263	0.330193	5661.453344	28777.049037	3700.173191	12131.085243
68.536500	0.216792	0.126143	0.231180	0.336719	5629.450403	28508.364770	3694.872434	11992.774365
69.037000	0.218269	0.127516	0.228423	0.341411	5608.954196	28313.690691	3679.914443	11894.630694
69.537500	0.225555	0.129058	0.232115	0.337952	5678.054041	28607.558567	3694.270468	11966.889597
70.034500	0.226088	0.130834	0.237281	0.340159	5667.178697	28582.119652	3700.278901	11920.723984
70.534500	0.223585	0.131030	0.232381	0.343835	5627.385031	28377.466765	3682.973244	11844.332664
71.035000	0.221530	0.130195	0.235810	0.345929	5600.976856	28206.463743	3685.645027	11801.100397
71.535000	0.227765	0.132622	0.244936	0.342062	5665.712303	28575.347594	3712.077649	11881.093388
72.036000	0.229000	0.133373	0.242967	0.343079	5667.123952	28559.610024	3705.932849	11859.979887
72.536500	0.232791	0.135149	0.244509	0.345750	5674.401323	28506.935036	3703.621849	11804.804946
73.036500	0.232087	0.137171	0.242207	0.353151	5622.189485	28192.194689	3683.993383	11653.637459
73.537500	0.231798	0.135779	0.242006	0.347062	5659.451067	28466.802350	3695.852466	11777.815342
74.037000	0.232374	0.136856	0.245005	0.347433	5660.773632	28508.309252	3701.196119	11770.191168
74.537000	0.232940	0.137878	0.247433	0.352779	5630.015142	28255.004893	3695.263652	11661.174848
75.034500	0.230847	0.137210	0.247903	0.354063	5608.489312	28141.482770	3693.616294	11635.188377
75.535000	0.236762	0.139268	0.245155	0.349734	5674.314513	28514.858579	3696.818675	11723.107855
76.035500	0.235756	0.140197	0.247945	0.350728	5661.337778	28510.998908	3700.471764	11702.826383
76.535500	0.231052	0.137424	0.239682	0.354667	5605.947247	28118.846579	3675.947220	11622.971549
77.035500	0.235958	0.138927	0.243622	0.349883	5668.124572	28485.999357	3693.412466	11720.061410
77.536500	0.238948	0.140490	0.253794	0.351418	5677.578138	28487.608078	3711.050658	11688.791455
78.037000	0.234211	0.138123	0.245881	0.348930	5662.977249	28494.745379	3699.930287	11739.522944
78.537000	0.236643	0.140239	0.248630	0.356203	5631.798441	28193.088341	3690.762612	11592.033564
79.037500	0.240562	0.140372	0.253065	0.351663	5686.507481	28466.321273	3709.043343	11683.813980
79.534500	0.238455	0.140579	0.254061	0.351856	5671.524467	28467.120407	3710.698963	11679.899770
80.035500	0.237716	0.140216	0.251384	0.350841	5673.318537	28505.475363	3707.276900	11700.529304
80.535000	0.241887	0.141446	0.253222	0.352624	5688.886350	28472.980153	3707.391096	11664.314334
81.035500	0.240534	0.140947	0.250857	0.351166	5689.567346	28529.395756	3705.528635	11693.918544
81.535500	0.239373	0.142297	0.251140	0.352415	5673.858818	28535.330668	3703.551376	11668.550890
82.036500	0.239273	0.141756	0.250821	0.352064	5675.489446	28524.120065	3703.617047	11675.663756
82.536000	0.241383	0.143010	0.253848	0.352231	5688.156735	28588.230310	3709.484670	11672.271234
83.036500	0.243157	0.142509	0.253994	0.352693	5696.740564	28531.441462	3708.835521	11662.905267
83.537000	0.244039	0.142217	0.251713	0.352403	5704.439142	28531.349323	3704.748611	11668.796318
84.034500	0.242993	0.142907	0.250835	0.352353	5697.900971	28574.977150	3703.054673	11669.814246
84.537000	0.241416	0.141521	0.251551	0.357748	5652.551671	28177.860119	3693.540932	11561.030155
85.035000	0.243044	0.141855	0.249175	0.352275	5698.749413	28517.562883	3699.827280	11671.395435
85.535000	0.244424	0.142123	0.246472	0.352847	5704.045901	28499.674302	3693.180372	11659.786509
86.035500	0.242382	0.141018	0.247100	0.351541	5699.211234	28511.446714	3697.097865	11686.284563
86.536000	0.240731	0.141715	0.247718	0.358558	5642.921864	28142.042033	3684.202118	11544.805893
87.036500	0.242343	0.140513	0.256051	0.352368	5693.544826	28433.219449	3713.751223	11669.506732
87.536500	0.242002	0.142085	0.251334	0.353916	5681.200124	28434.569147	3700.881916	11638.153726
88.036500	0.242640	0.143005	0.254417	0.355565	5674.617683	28391.813310	3703.810357	11604.870232
88.537500	0.236774	0.140678	0.252291	0.359952	5608.726818	28001.385298	3690.585293	11516.969764
89.037500	0.239665	0.140891	0.254423	0.360935	5620.868352	27956.965039	3692.903661	11497.390282
89.535000	0.242646	0.140486	0.246278	0.355509	5675.023326	28247.867446	3687.425895	11605.998554
90.035500	0.240977	0.138619	0.253112	0.355122	5666.692419	28161.745898	3702.047375	11613.793170
90.535500	0.239651	0.139126	0.250557	0.361550	5616.861179	27820.265735	3683.896023	11485.171773
91.036000	0.239006	0.138164	0.254256	0.363218	5602.167352	27670.074959	3687.968353	11452.103026
91.536500	0.241652	0.139248	0.255718	0.358512	5649.146984	28001.940112	3700.449076	11545.722691
92.036000	0.241994	0.139421	0.249712	0.359574	5644.513953	27950.714359	3686.161940	11524.517654
92.536500	0.239958	0.138535	0.253959	0.366237	5589.103412	27519.752218	3681.329415	11392.569281
93.037500	0.239363	0.137771	0.250493	0.366648	5582.764406	27453.322779	3673.632828	11384.493264
93.534000	0.242097	0.137577	0.250269	0.360956	5636.294511	27765.607664	3684.507972	11496.981607
94.037500	0.239044	0.138076	0.254003	0.362485	5607.053799	27706.774283	3688.931394	11466.611243
94.535000	0.237903	0.137479	0.254162	0.369327	5556.844979	27286.212167	3675.591618	11332.062097
95.035000	0.236031	0.136352	0.257901	0.369722	5542.759124	27201.048963	3682.241452	11324.361339
95.536000	0.241051	0.137578	0.257052	0.365670	5599.588033	27497.660183	3688.658366	11403.719178
96.036000	0.239189	0.134964	0.251242	0.364994	5592.087139	27388.265690	3678.394588	11417.016860
