sample name	sample
index	1032
start time	 04-19-2021  12:40:07 PM
880	0.507354
Peak Time (s)	102.035
Peak Height 	0.5074
calc peak height	100,103
Baseline Time (s)	9.537
Baseline Value 	-0.003349
subtract baseline	10,4
Abs	0.354702
Peak Time (s)	101.04
Peak Height 	0.3547
calc peak height	100,103
Baseline Time (s)	9.036
Baseline Value 	3.7517E-4
subtract baseline	10,3
PK_550	0.201429
Peak Time (s)	102.035
Peak Height 	0.2014
calc peak height	100,103
Baseline Time (s)	11.04
Baseline Value 	1.577E-4
subtract baseline	10,2
PK_880	0.326834
Peak Time (s)	102.035
Peak Height 	0.3268
calc peak height	100,103
Baseline Time (s)	9.537
Baseline Value 	-1.1363E-4
subtract baseline	10,1


Time (s)	A880-A510	A880-A775	A880-A975	A880	I510	I775	I975	I880	
0.036500	0.000239	-0.000904	-0.003324	0.003703	6578.715475	45868.525123	3975.602078	24300.441408
0.536500	-0.001384	-0.000067	-0.002963	0.005757	6546.705222	45748.052798	3970.866622	24198.871433
1.040000	-0.002577	-0.000924	-0.002992	0.003630	6554.807911	45873.823208	3976.739133	24304.049791
1.537000	-0.000116	0.000266	-0.003019	0.002048	6590.099183	46149.545935	3981.110725	24382.631791
2.040500	-0.001484	0.000923	-0.000302	0.004608	6555.812780	45960.060864	3981.551002	24255.633453
2.535500	0.001271	0.000559	0.000098	0.002735	6596.239023	46110.180210	3987.971979	24348.457459
3.035000	0.000194	0.000144	-0.005437	-0.001457	6623.691742	46488.392601	3984.174105	24557.670965
3.536000	0.001346	-0.000011	-0.000802	-0.000027	6621.229522	46329.239297	3993.255987	24486.057411
4.036000	-0.001950	-0.000198	-0.000523	0.002499	6570.111092	46058.329899	3986.882485	24360.192963
4.536500	-0.000403	-0.000329	0.000494	-0.000075	6606.224471	46302.268583	3997.086308	24488.496199
5.036500	0.001823	0.000636	0.003267	0.000659	6619.381052	46325.364831	4002.914426	24451.792687
5.536000	0.002069	0.000190	-0.000860	-0.000102	6628.287865	46356.994385	3993.303462	24489.825070
6.037000	0.000990	-0.000108	0.000355	-0.000164	6619.292710	46333.278871	3996.941162	24492.932426
6.537500	0.001022	0.000122	0.002164	0.000122	6617.050308	46327.650534	4001.291564	24478.605358
7.034500	0.000602	0.001239	-0.001248	0.000746	6607.852183	46377.124541	3989.794246	24447.495099
7.535500	-0.000900	-0.000236	-0.000936	-0.000520	6605.764380	46356.179890	3994.278915	24510.732553
8.035500	0.000961	0.000576	-0.000055	0.000229	6615.569289	46362.496067	3994.653968	24473.307889
8.536000	-0.000387	-0.000044	-0.000681	-0.000346	6608.749490	46357.970656	3994.509493	24502.029624
9.036000	0.000387	0.000966	0.000000	0.000592	6607.309975	46365.190758	3993.777925	24455.177571
9.536500	0.000000	0.000233	-0.000709	0.000000	6609.114075	46351.083534	3993.443066	24484.726852
10.036500	-0.000004	-0.000292	0.000112	-0.000341	6612.082782	46332.565340	3996.754375	24501.765125
10.537000	0.000344	-0.000330	0.005641	-0.000494	6616.498514	46344.095392	4013.064233	24509.412854
11.040000	0.001309	0.000000	0.000354	0.000669	6614.763931	46260.757598	3994.565989	24451.340845
11.534500	-0.001327	0.000423	-0.000110	0.000029	6597.187566	46367.239430	3995.068855	24483.300913
12.035000	0.001054	-0.000134	-0.001635	-0.000706	6624.649821	46384.959113	3992.818258	24520.026261
12.535500	0.000965	-0.000125	-0.000102	-0.000772	6624.448087	46392.592450	3997.372419	24523.356154
13.035500	0.000769	0.001353	0.000799	0.002010	6598.197228	46261.895314	3992.017869	24384.509931
13.536000	0.001683	0.000877	0.003650	0.001080	6614.430326	46307.334599	4002.806151	24430.811028
14.039000	-0.003105	-0.000168	-0.001231	0.004030	6546.760164	45909.120025	3980.562037	24284.223469
14.536500	-0.000920	-0.000315	-0.004109	0.002254	6581.250030	46071.044340	3977.466347	24372.363468
15.034000	-0.000627	-0.000111	-0.001940	0.000815	6596.428603	46234.977207	3987.635536	24444.010108
15.539500	0.000703	0.000353	0.005495	0.000302	6612.647866	46332.738193	4010.346161	24469.614047
16.037500	-0.003160	0.000482	-0.003837	0.005156	6536.538939	45861.845992	3970.103122	24228.542420
16.535000	-0.000886	0.000184	0.002090	-0.000170	6602.814448	46363.165267	4001.917783	24493.239550
17.035000	0.001952	0.000362	0.000024	-0.001183	6636.839628	46482.756025	3998.906854	24543.928146
17.535500	0.001520	0.000233	-0.001162	0.000819	6615.295171	46268.980997	3989.831135	24443.830464
18.036000	-0.000027	0.000015	0.000965	0.002979	6582.718499	46031.708846	3989.735874	24336.334787
18.536000	-0.001516	-0.000694	-0.005138	0.000591	6590.596182	46199.104061	3979.247214	24455.218119
19.036500	0.001286	0.000694	-0.002577	0.002171	6601.322214	46179.958562	3982.008338	24376.485896
19.536500	0.000028	0.000058	0.004225	0.001309	6597.842278	46202.498824	4003.798284	24419.400665
20.033500	-0.000248	-0.000407	-0.000789	0.001079	6597.434658	46179.056651	3990.151208	24430.858648
20.537000	0.000137	0.000479	-0.004866	0.000997	6601.541291	46275.837943	3978.871627	24434.959629
21.034500	-0.001306	-0.000044	-0.001452	0.001234	6586.801910	46199.842768	3987.833580	24423.129548
21.535500	-0.000943	-0.000737	-0.002543	0.000415	6597.167161	46212.389978	3987.064383	24464.003588
22.034500	-0.001320	0.000558	-0.001226	0.001733	6582.303073	46210.076551	3987.060028	24398.261716
22.535500	0.000837	-0.000382	-0.001607	0.000966	6607.977236	46192.846862	3988.151553	24436.491005
23.035500	0.000273	0.000454	0.004404	0.001897	6594.836169	46183.407103	4002.626440	24390.127760
23.536500	-0.001576	0.000789	-0.002009	0.001729	6580.099653	46233.602020	3984.857664	24398.461058
24.036500	-0.001482	0.000074	0.002142	0.000903	6588.163755	46244.735059	3998.998965	24439.655543
24.540000	-0.000304	0.000518	0.001771	0.001727	6591.256082	46206.668037	3995.585164	24398.562371
25.034500	-0.000354	0.000009	-0.002930	0.000898	6598.093371	46238.718682	3984.602590	24439.882954
25.535000	-0.001885	-0.000477	0.000829	0.000985	6583.910527	46181.420523	3995.017541	24435.534139
26.035000	-0.000377	0.000615	-0.002162	0.001294	6594.419013	46259.725535	3985.656624	24420.160563
26.535000	-0.001107	0.000027	0.003034	0.001134	6589.418828	46216.863478	4000.886592	24428.117098
27.035500	0.002568	-0.000182	-0.001734	-0.001482	6644.965984	46458.069092	3994.742929	24558.905199
27.535000	0.001116	0.000999	0.001979	-0.000412	6622.597098	46469.219947	4002.291873	24505.310460
28.036000	0.000937	-0.000025	-0.002296	-0.000304	6620.068324	46355.633664	3989.799203	24499.929031
28.536500	0.001896	0.000361	-0.001609	-0.000003	6625.881130	46364.140476	3990.895841	24484.873769
29.039500	0.000983	0.000613	-0.000085	0.000446	6613.847158	46344.425661	3993.949753	24462.432176
29.537000	0.000453	0.000713	-0.001987	0.000694	6606.989709	46329.535509	3987.847265	24450.065460
30.037500	-0.003507	0.000120	-0.000371	0.005088	6534.125484	45832.758747	3980.006204	24231.913166
30.537000	0.000971	0.000177	-0.002581	0.002574	6595.016312	46088.237609	3980.862262	24356.469915
31.035000	-0.000896	-0.000197	0.004041	0.002437	6579.861603	46064.553112	4000.039400	24363.258120
31.535000	0.000656	0.000773	0.003092	0.000865	6607.276921	46318.463024	4001.822143	24441.538892
32.035500	-0.000720	0.000583	0.000965	0.005505	6554.654646	45837.292141	3982.594070	24211.304055
32.536000	-0.000639	0.000715	-0.000212	0.000869	6595.845633	46312.178158	3992.386020	24441.319004
33.036000	-0.000771	0.000183	0.000351	0.001816	6586.385890	46164.424917	3991.296750	24394.156160
33.539500	-0.000279	0.000005	0.001889	-0.000761	6613.364783	46404.492963	4003.035766	24522.815730
34.036500	-0.000219	0.000170	-0.000496	0.004449	6568.201703	45901.072794	3981.452350	24263.492621
34.537000	-0.003285	0.000172	0.001169	0.002696	6556.778518	46075.543310	3991.119138	24350.410111
35.034500	-0.000425	-0.000305	0.000690	0.002301	6585.163575	46067.280762	3990.880969	24370.008396
35.534500	-0.000565	0.000351	0.002587	0.002301	6583.945113	46132.704230	3996.276831	24370.025750
36.037500	-0.002106	0.000475	0.001797	0.004285	6553.210289	45947.565218	3988.393630	24271.596462
36.535000	0.002114	0.000600	-0.000191	0.002521	6605.529393	46135.643387	3987.760559	24359.113552
37.036000	-0.001576	0.000170	-0.003183	0.002094	6576.918045	46135.384163	3980.520103	24380.341571
37.536000	-0.001205	0.000603	0.003230	0.002040	6580.629411	46183.920169	3998.858398	24383.010144
38.039000	-0.002088	-0.000268	-0.001460	0.001950	6573.698986	46106.098046	3985.785624	24387.501935
38.537000	0.001030	0.000374	0.000825	0.000796	6611.176186	46285.430853	3995.546847	24444.989230
39.037000	-0.000731	0.001090	0.002749	0.001942	6585.638785	46242.429433	3997.764015	24387.882846
39.537000	0.000609	0.000882	0.000916	0.001589	6600.488446	46256.972469	3993.546900	24405.468494
40.035000	0.000670	-0.000178	-0.001990	0.000691	6608.924593	46240.690285	3987.846508	24450.210926
40.535000	0.002681	0.000106	-0.001712	0.001123	6622.868696	46225.936620	3987.412996	24428.688239
41.035000	-0.000579	0.000575	-0.001173	0.001503	6590.817285	46234.800288	3987.863119	24409.746225
41.535500	-0.002044	0.000330	-0.001441	0.001132	6581.230662	46247.375568	3988.153206	24428.226231
42.036000	0.000258	0.000127	0.003843	0.001054	6602.111563	46234.931576	4003.435762	24432.127870
42.539000	-0.000117	0.000302	0.004109	0.001794	6592.311891	46178.518207	4002.077372	24395.261922
43.036500	-0.001685	-0.000476	-0.002082	0.001532	6580.871018	46126.937612	3985.207035	24408.283648
43.537000	0.001241	0.000821	0.001006	0.001314	6608.474828	46278.292032	3994.586060	24419.157101
44.037000	-0.000063	0.000628	-0.000551	-0.000282	6611.049305	46419.009028	3994.695075	24498.830786
44.535000	0.000434	-0.000278	-0.000655	-0.000490	6617.263011	46348.941239	3994.993200	24509.244223
45.035000	0.000023	-0.000093	0.001840	0.001759	6593.846567	46142.453605	3995.691632	24396.973874
45.535500	-0.000205	0.001123	0.000116	0.000373	6604.027969	46402.881861	3994.732859	24466.111277
46.035500	-0.003669	-0.000153	-0.001044	0.004745	6535.694103	45839.764504	3979.080344	24248.879662
46.536000	0.000709	0.001079	0.002712	0.000384	6611.979963	46397.419273	4002.113435	24465.549010
47.038500	0.000148	-0.000110	-0.001130	0.003112	6583.087283	46006.092628	3983.437201	24329.759642
47.536500	-0.000672	0.000827	0.001608	0.002946	6577.368305	46115.919015	3991.656259	24337.988289
48.036500	-0.002625	0.000198	-0.001053	0.004214	6549.328366	45927.176790	3980.546096	24275.111713
48.537000	0.001690	0.000832	0.000815	0.000249	6621.828599	46386.124185	3997.076548	24472.288968
49.037000	-0.000553	-0.000127	-0.001575	0.002500	6582.306729	46065.222313	3983.906190	24360.118183
49.537500	0.001644	0.001092	0.000177	-0.001804	6639.615494	46618.770253	4001.119357	24575.070591
50.035000	-0.000824	0.000295	0.001247	0.005463	6554.121875	45812.960289	3983.508052	24213.401127
50.535500	0.004864	-0.001872	0.014753	0.033463	6365.247098	42927.624870	3943.288458	22875.045138
51.035000	0.042910	-0.015157	0.063170	0.437629	4324.561376	18155.204187	3280.563456	10702.820845
51.538500	0.002500	-0.016791	-0.014629	-0.001815	6647.320050	44852.762870	3959.485841	24575.611831
52.035500	-0.021392	-0.086762	-0.046700	-0.242471	9148.872249	65091.441229	4700.161868	40714.646151
52.536000	-0.007694	-0.086869	-0.028005	-0.243760	9372.390750	65261.181273	4791.610535	40827.423991
53.037000	-0.005713	-0.087704	-0.025524	-0.245913	9435.427337	65451.057936	4813.427835	41016.565862
53.537000	-0.007969	-0.076966	-0.026840	-0.233715	9217.657806	65240.870592	4750.456664	39957.527247
54.034500	-0.005937	-0.054973	-0.027052	-0.204911	8832.945318	64269.528287	4621.693105	37571.645519
54.537500	-0.007817	-0.054398	-0.020911	-0.204980	8807.765832	64360.738519	4648.532419	37577.212513
55.035000	-0.008578	-0.040553	-0.021377	-0.183737	8510.101302	63321.230373	4556.361272	35916.031262
55.535500	0.002678	-0.038413	-0.013568	-0.180954	8622.931975	63231.673303	4577.291254	35704.360622
56.038500	0.005918	-0.017136	-0.002623	-0.133635	8059.252834	59715.371168	4431.136451	32305.426943
56.536000	0.016115	-0.006759	0.005934	-0.099829	7780.049179	56726.980376	4336.643718	30094.202186
57.036500	0.024440	0.002474	0.015521	-0.062726	7459.638678	53376.036723	4239.737648	27857.502749
57.536000	0.038777	0.011919	0.027336	-0.007733	7041.661208	48341.854275	4099.522147	24874.689434
58.037000	0.049104	0.019638	0.047073	0.022468	6851.153877	46045.127570	4067.587575	23390.342476
58.537000	0.070453	0.030586	0.070213	0.065466	6653.305637	42969.693983	4009.060189	21447.412708
59.037500	0.090013	0.042648	0.093747	0.113099	6411.017903	39811.852016	3941.539075	19508.142878
59.535500	0.106727	0.052292	0.111584	0.153902	6215.231822	37250.428946	3880.583120	18007.924715
60.035000	0.127105	0.065566	0.136244	0.193570	6066.103873	35220.033238	3842.457907	16678.556462
60.537500	0.151440	0.075408	0.158415	0.229044	5982.958737	33362.839262	3809.749852	15588.334519
61.035000	0.169840	0.085952	0.180111	0.263067	5869.866298	31755.164938	3780.317335	14623.095275
61.536500	0.190228	0.099072	0.192803	0.314766	5655.123726	29295.274232	3692.512822	13293.830855
62.036000	0.201025	0.106217	0.218508	0.343457	5539.165647	28013.620017	3686.110178	12621.603452
62.537000	0.216991	0.115787	0.235794	0.354961	5567.633512	27901.618230	3698.545061	12364.291477
63.033500	0.233023	0.128922	0.251678	0.375238	5540.539745	27492.442207	3689.081137	11927.031079
63.534500	0.242943	0.131709	0.261526	0.428804	5276.840315	24769.423225	3599.931385	10865.488490
64.034000	0.256038	0.140188	0.281532	0.433879	5323.330309	24942.177243	3629.376141	10771.541485
64.535000	0.263654	0.146355	0.290169	0.439901	5332.669049	24949.529621	3634.636393	10661.466603
65.035000	0.274906	0.152101	0.302461	0.462630	5266.164532	24100.691998	3613.824291	10259.541764
65.536000	0.280407	0.153599	0.308231	0.485480	5168.902215	23079.495539	3580.825392	9876.111702
66.035500	0.276841	0.160122	0.313439	0.501687	5062.694598	22632.663166	3560.250634	9616.134674
66.535500	0.281074	0.161450	0.315021	0.502559	5080.406589	22653.462577	3561.563803	9602.415922
67.036500	0.280363	0.164300	0.320707	0.497293	5104.635703	23027.708894	3582.082961	9685.667188
67.536500	0.286325	0.167257	0.315286	0.494579	5151.490183	23293.354448	3576.961176	9728.959829
68.037000	0.289384	0.171725	0.319815	0.497359	5153.009345	23373.100693	3580.264533	9684.606786
68.540000	0.291708	0.172889	0.325777	0.493917	5184.698443	23592.288651	3598.262682	9739.568607
69.038000	0.292167	0.172065	0.318022	0.493147	5191.503618	23589.738139	3584.858733	9751.922301
69.535000	0.294024	0.175860	0.328922	0.495448	5189.041150	23661.300463	3601.391061	9715.068596
70.035000	0.295052	0.176967	0.323137	0.498307	5178.917111	23577.378632	3584.773543	9669.561300
70.535000	0.298404	0.178303	0.326892	0.496388	5208.182033	23733.575439	3595.643642	9700.076741
71.035500	0.300713	0.179666	0.332983	0.498275	5210.535309	23708.356142	3603.789439	9670.067255
71.536000	0.301071	0.179955	0.331791	0.496668	5221.543413	23799.768377	3604.597332	9695.608444
72.037000	0.301405	0.182316	0.337266	0.497013	5221.486692	23897.427831	3614.656767	9690.124296
72.540000	0.302542	0.183181	0.334874	0.496137	5232.814864	23982.089578	3611.671744	9704.072560
73.037500	0.304394	0.184245	0.334922	0.498321	5230.943569	23927.529817	3607.483032	9669.328444
73.534500	0.305371	0.182947	0.335632	0.495648	5251.610087	23994.510059	3614.125051	9711.875477
74.037500	0.308815	0.185909	0.333084	0.498867	5252.885319	23981.958455	3602.834126	9660.669012
74.538000	0.306020	0.187705	0.337696	0.495454	5256.406560	24237.381670	3618.587703	9714.971674
75.035500	0.307921	0.188668	0.338995	0.495043	5269.607659	24305.269463	3621.981742	9721.533103
75.535500	0.307794	0.188503	0.335010	0.492579	5283.028872	24419.297913	3618.961483	9761.034622
76.036000	0.307603	0.189231	0.339987	0.493039	5279.282278	24432.670549	3627.962219	9753.649047
76.536500	0.310170	0.189386	0.336379	0.490966	5306.099852	24543.834733	3624.893950	9787.022872
77.037000	0.312761	0.191389	0.337557	0.491475	5318.228046	24618.768877	3626.230187	9778.819765
77.536500	0.309756	0.190188	0.335679	0.489813	5310.397696	24641.875159	3625.797278	9805.652286
78.037500	0.310021	0.193702	0.343697	0.492640	5295.529704	24676.473076	3636.230561	9760.064131
78.543000	0.313675	0.192894	0.341027	0.491456	5323.685259	24695.372095	3633.231492	9779.126676
79.035000	0.312044	0.194441	0.341700	0.491799	5312.158810	24756.118191	3633.898439	9773.600414
79.535000	0.311599	0.194329	0.347685	0.491829	5309.394655	24748.975836	3645.988547	9773.116478
80.035000	0.310132	0.194042	0.345731	0.491240	5304.290910	24764.222095	3643.202413	9782.609650
80.536000	0.311555	0.195299	0.344078	0.491331	5312.035783	24823.243454	3639.654500	9781.138229
81.036000	0.309732	0.195240	0.331081	0.491398	5301.050852	24816.826825	3613.531726	9780.051203
81.536500	0.311288	0.193552	0.339453	0.490565	5314.945645	24773.580774	3631.856043	9793.499981
82.037000	0.311232	0.194964	0.343155	0.492463	5303.579280	24749.015662	3635.494482	9762.913098
82.537500	0.311133	0.195607	0.339556	0.494368	5291.972938	24685.373091	3624.444809	9732.342727
83.037000	0.314101	0.194533	0.339811	0.494129	5310.565289	24643.301469	3625.429574	9736.158786
83.535000	0.312678	0.195706	0.344901	0.493620	5305.251460	24728.060940	3636.683386	9744.321735
84.035500	0.310253	0.194627	0.337111	0.491030	5306.212849	24804.445693	3626.227932	9785.993693
84.535500	0.313256	0.196095	0.346011	0.490051	5329.461650	24928.676395	3646.201103	9801.810748
85.035500	0.316639	0.195309	0.338422	0.489705	5351.421187	24906.244752	3631.511853	9807.399188
85.539000	0.312019	0.194788	0.347524	0.488274	5332.622655	24952.583989	3652.952360	9830.595203
86.036000	0.313587	0.195395	0.341879	0.489882	5332.396018	24901.652654	3638.134334	9804.542431
86.539500	0.316382	0.195502	0.341986	0.490560	5344.849369	24872.638083	3636.976778	9793.576808
87.036500	0.316206	0.195400	0.346558	0.491612	5337.618096	24814.116148	3644.128720	9776.608327
87.540000	0.316932	0.196116	0.345005	0.492177	5338.558833	24821.741044	3639.818289	9767.502138
88.035000	0.315392	0.196327	0.340679	0.493945	5319.169030	24743.003095	3627.532994	9739.112281
88.535500	0.315849	0.196542	0.344166	0.494576	5318.154823	24722.026070	3633.271238	9729.013071
89.035500	0.317384	0.196516	0.347425	0.495960	5319.033651	24650.960478	3637.056271	9706.894366
89.536000	0.315272	0.194837	0.344038	0.494662	5314.282830	24631.815052	3632.838777	9727.626596
90.036000	0.319009	0.196675	0.346906	0.497159	5321.526110	24598.752467	3633.586715	9687.797438
90.536000	0.316383	0.197354	0.341158	0.496858	5307.965466	24647.927442	3622.674993	9692.578664
91.036500	0.317930	0.197578	0.342881	0.498324	5308.435637	24585.613896	3623.185811	9669.277578
91.537000	0.316858	0.196196	0.347531	0.497514	5306.914400	24556.971692	3634.129775	9682.147064
92.040000	0.319760	0.197511	0.349351	0.499443	5312.580759	24526.278308	3633.912640	9651.560357
92.537000	0.318529	0.198755	0.348325	0.500293	5300.481963	24545.941413	3630.135130	9638.110708
93.035000	0.320642	0.197685	0.346746	0.499399	5317.976754	24537.126213	3628.760353	9652.243550
93.535000	0.321456	0.198142	0.350272	0.499842	5320.145044	24537.873105	3634.963592	9645.243187
94.035500	0.319170	0.198238	0.345469	0.500530	5302.827876	24508.296874	3623.947968	9634.377793
94.536000	0.322526	0.200500	0.345804	0.501826	5314.813378	24556.583579	3622.035088	9613.951572
95.036000	0.318924	0.199226	0.345393	0.501366	5296.558635	24515.883500	3622.131554	9621.195438
95.536000	0.321894	0.199242	0.349543	0.500996	5315.961235	24535.149172	3631.170005	9627.013695
96.036500	0.321389	0.199604	0.345098	0.501139	5312.191173	24546.114650	3621.997528	9624.772898
96.540000	0.322169	0.199905	0.352260	0.501984	5311.807961	24518.886928	3634.653676	9611.458069
97.037500	0.320628	0.198306	0.345189	0.500177	5313.355335	24529.319052	3624.093269	9639.948124
97.537500	0.324730	0.200502	0.352782	0.502901	5321.403083	24502.910532	3633.855766	9597.045689
98.035000	0.326717	0.200170	0.349201	0.503325	5330.555356	24465.232410	3625.817934	9590.399704
98.535000	0.324923	0.199127	0.341171	0.501290	5331.966560	24514.692262	3613.922720	9622.384587
99.035500	0.321327	0.198794	0.349650	0.501373	5310.460790	24493.933849	3630.628150	9621.073794
99.536000	0.324225	0.199295	0.344998	0.502292	5322.006607	24473.045723	3619.507177	9606.609853
100.036000	0.325527	0.200391	0.354173	0.503845	5320.541992	24450.315048	3634.758181	9582.246921
100.536500	0.324868	0.200633	0.351379	0.504682	5311.812260	24420.677970	3627.458682	9569.137545
101.039500	0.325720	0.201151	0.354702	0.505214	5313.682073	24420.012450	3633.065447	9560.834026
101.537000	0.324276	0.198691	0.350207	0.505028	5306.361519	24307.163630	3624.427681	9563.740748
102.034500	0.326834	0.201429	0.352817	0.507354	5307.707455	24327.523456	3624.992826	9527.490194
102.537500	0.323131	0.200008	0.354246	0.506239	5292.701910	24312.407441	3630.086742	9544.846805
103.035000	0.324362	0.198580	0.349284	0.505821	5302.253602	24262.440182	3621.010955	9551.358420
103.535000	0.327137	0.200073	0.352767	0.507764	5307.078979	24240.237312	3624.074713	9521.117041
104.036000	0.324349	0.199904	0.355988	0.508603	5286.089429	24190.581939	3628.838107	9508.110085
104.541000	0.326244	0.200549	0.356531	0.508589	5297.119174	24223.033551	3629.955935	9508.332653
105.036000	0.326579	0.201127	0.354057	0.510437	5288.371902	24160.518625	3621.321921	9479.749228
105.539500	0.324610	0.199987	0.351716	0.510787	5275.025394	24087.372591	3615.989543	9474.347619
106.037000	0.328685	0.199709	0.356200	0.511030	5297.118038	24061.910201	3624.407696	9470.606731
106.537500	0.327337	0.198709	0.358491	0.510831	5290.474923	24022.738551	3629.389137	9473.676761
107.034500	0.329085	0.198374	0.356298	0.512172	5292.824344	23941.073493	3622.328100	9453.033570
107.535000	0.328743	0.200423	0.354426	0.513632	5282.430486	23969.738879	3615.723573	9430.631563
108.035500	0.326871	0.200059	0.355403	0.513532	5272.249924	23956.887529	3617.852451	9432.168079
108.535500	0.330190	0.199414	0.351135	0.514049	5288.365627	23900.397273	3608.432182	9424.250108
109.035500	0.327183	0.200123	0.358173	0.514935	5266.008055	23891.824030	3620.563913	9410.712053
109.542000	0.331478	0.198996	0.356191	0.516660	5280.742792	23753.855120	3613.233756	9384.421613
110.039500	0.329984	0.199249	0.357632	0.516183	5274.899600	23789.050459	3617.018031	9391.674805
