sample name	sample
index	504
start time	 03-11-2021  02:56:10 PM


Wavelength (nm)	Absorbance
494.344910	NaN
494.563924	NaN
494.782919	NaN
495.001897	-0.090617
495.220856	0.606784
495.439797	0.403861
495.658719	0.182474
495.877624	0.049260
496.096510	0.135703
496.315378	0.208421
496.534227	0.222805
496.753059	-0.047569
496.971872	-0.012974
497.190667	0.132792
497.409444	0.153722
497.628203	0.158301
497.846943	0.159509
498.065665	0.160797
498.284369	0.160912
498.503055	0.160496
498.721723	0.160908
498.940372	0.160207
499.159003	0.160942
499.377616	0.160606
499.596210	0.160999
499.814787	0.161726
500.033345	0.161266
500.251885	0.160525
500.470406	0.160726
500.688910	0.161875
500.907395	0.162300
501.125862	0.162991
501.344311	0.163722
501.562742	0.163797
501.781154	0.163124
501.999548	0.163511
502.217924	0.163826
502.436282	0.163449
502.654621	0.162607
502.872942	0.162941
503.091245	0.162929
503.309530	0.162544
503.527797	0.161612
503.746045	0.162623
503.964275	0.162962
504.182487	0.162394
504.400681	0.163632
504.618856	0.164477
504.837013	0.164332
505.055152	0.164562
505.273273	0.164013
505.491376	0.164920
505.709460	0.163615
505.927526	0.163611
506.145574	0.165649
506.363604	0.164941
506.581615	0.165238
506.799608	0.165704
507.017583	0.165758
507.235540	0.166103
507.453478	0.166694
507.671399	0.166543
507.889301	0.165968
508.107185	0.165115
508.325050	0.165644
508.542898	0.164690
508.760727	0.164300
508.978538	0.164306
509.196330	0.164507
509.414105	0.163184
509.631861	0.163598
509.849599	0.164153
510.067319	0.164118
510.285021	0.163891
510.502704	0.164821
510.720369	0.165729
510.938016	0.165120
511.155645	0.165638
511.373255	0.167023
511.590848	0.167892
511.808422	0.168504
512.025977	0.169516
512.243515	0.169803
512.461034	0.169762
512.678536	0.169927
512.896018	0.170868
513.113483	0.170113
513.330930	0.170040
513.548358	0.170288
513.765768	0.169855
513.983160	0.169672
514.200533	0.170718
514.417889	0.170645
514.635226	0.171089
514.852545	0.170811
515.069845	0.171678
515.287128	0.171781
515.504392	0.171641
515.721638	0.172703
515.938866	0.172767
516.156075	0.172799
516.373267	0.173412
516.590440	0.173290
516.807594	0.174485
517.024731	0.174336
517.241850	0.174419
517.458950	0.175045
517.676032	0.174925
517.893095	0.175129
518.110141	0.175468
518.327168	0.175062
518.544177	0.175246
518.761168	0.175016
518.978141	0.175435
519.195095	0.176004
519.412031	0.176303
519.628949	0.176403
519.845849	0.176890
520.062731	0.176592
520.279594	0.177417
520.496439	0.177455
520.713266	0.177971
520.930074	0.178696
521.146865	0.178519
521.363637	0.178858
521.580391	0.179362
521.797127	0.179726
522.013844	0.179919
522.230543	0.179993
522.447224	0.180333
522.663887	0.180006
522.880532	0.179716
523.097158	0.179977
523.313766	0.179864
523.530356	0.179211
523.746928	0.178948
523.963481	0.179845
524.180017	0.180109
524.396534	0.180671
524.613032	0.180867
524.829513	0.181354
525.045975	0.181867
525.262420	0.181978
525.478845	0.182304
525.695253	0.183241
525.911643	0.182625
526.128014	0.183063
526.344367	0.182035
526.560702	0.183012
526.777018	0.183061
526.993316	0.183383
527.209597	0.183737
527.425858	0.184715
527.642102	0.184702
527.858328	0.186277
528.074535	0.186318
528.290724	0.187572
528.506894	0.187836
528.723047	0.188483
528.939181	0.188347
529.155297	0.188960
529.371395	0.189114
529.587475	0.188234
529.803536	0.187080
530.019579	0.187770
530.235604	0.187773
530.451611	0.187985
530.667600	0.187983
530.883570	0.188113
531.099522	0.188258
531.315456	0.187788
531.531372	0.189407
531.747269	0.190468
531.963148	0.190774
532.179009	0.191027
532.394852	0.190925
532.610676	0.191359
532.826482	0.192137
533.042271	0.192474
533.258040	0.193897
533.473792	0.194018
533.689525	0.194445
533.905240	0.194660
534.120937	0.195650
534.336616	0.196735
534.552277	0.197084
534.767919	0.197439
534.983543	0.197648
535.199149	0.197460
535.414736	0.197288
535.630306	0.197600
535.845857	0.197384
536.061390	0.197517
536.276904	0.197277
536.492401	0.197514
536.707879	0.197427
536.923339	0.198010
537.138781	0.198286
537.354204	0.198614
537.569610	0.198702
537.784997	0.198918
538.000366	0.199019
538.215716	0.199259
538.431049	0.199375
538.646363	0.199911
538.861659	0.199464
539.076937	0.199823
539.292196	0.200403
539.507438	0.200785
539.722661	0.201538
539.937866	0.201768
540.153052	0.201701
540.368221	0.202294
540.583371	0.203077
540.798503	0.203873
541.013617	0.204811
541.228712	0.204949
541.443789	0.205131
541.658848	0.204980
541.873889	0.205456
542.088912	0.206259
542.303916	0.206254
542.518902	0.206297
542.733870	0.206628
542.948820	0.206160
543.163752	0.206791
543.378665	0.207410
543.593560	0.207225
543.808437	0.207438
544.023295	0.207723
544.238136	0.207889
544.452958	0.208334
544.667762	0.208386
544.882548	0.209264
545.097315	0.209155
545.312064	0.208615
545.526795	0.209781
545.741508	0.210144
545.956203	0.210378
546.170879	0.211244
546.385537	0.211396
546.600177	0.211675
546.814799	0.211356
547.029402	0.211540
547.243988	0.212436
547.458555	0.212691
547.673103	0.212864
547.887634	0.212697
548.102146	0.212748
548.316640	0.212577
548.531116	0.212857
548.745574	0.213093
548.960013	0.213157
549.174435	0.213483
549.388838	0.213655
549.603222	0.213662
549.817589	0.213876
550.031937	0.214033
550.246267	0.214263
550.460579	0.214744
550.674873	0.215108
550.889148	0.215533
551.103405	0.215608
551.317644	0.215682
551.531865	0.215811
551.746068	0.216748
551.960252	0.216739
552.174418	0.217290
552.388566	0.217595
552.602696	0.217735
552.816807	0.217993
553.030900	0.218238
553.244975	0.218477
553.459032	0.218993
553.673070	0.218963
553.887091	0.219224
554.101093	0.219215
554.315077	0.218635
554.529042	0.218932
554.742990	0.219269
554.956919	0.219144
555.170830	0.219813
555.384722	0.220266
555.598597	0.220157
555.812453	0.220615
556.026291	0.220800
556.240111	0.221745
556.453913	0.221621
556.667696	0.222015
556.881461	0.222906
557.095208	0.222506
557.308937	0.222511
557.522647	0.223007
557.736339	0.223252
557.950013	0.223232
558.163669	0.223173
558.377307	0.223382
558.590926	0.223373
558.804527	0.223665
559.018110	0.224034
559.231675	0.223878
559.445221	0.224083
559.658749	0.223899
559.872259	0.224279
560.085751	0.224156
560.299225	0.224360
560.512680	0.224759
560.726117	0.224684
560.939536	0.224936
561.152937	0.225268
561.366319	0.225597
561.579683	0.225791
561.793029	0.225978
562.006357	0.226337
562.219667	0.226815
562.432958	0.226845
562.646231	0.226767
562.859486	0.226881
563.072723	0.227155
563.285941	0.226825
563.499141	0.227189
563.712323	0.227556
563.925487	0.227699
564.138632	0.228341
564.351760	0.228571
564.564869	0.228987
564.777960	0.228984
564.991032	0.229110
565.204087	0.229698
565.417123	0.229836
565.630141	0.229520
565.843140	0.229904
566.056122	0.229960
566.269085	0.230309
566.482030	0.230062
566.694957	0.230544
566.907866	0.231072
567.120756	0.231342
567.333628	0.231972
567.546482	0.232766
567.759318	0.232840
567.972135	0.233006
568.184935	0.233161
568.397716	0.233823
568.610478	0.234166
568.823223	0.234025
569.035949	0.234250
569.248657	0.234244
569.461347	0.234403
569.674019	0.234840
569.886672	0.234422
570.099308	0.234623
570.311925	0.234716
570.524523	0.234953
570.737104	0.235293
570.949666	0.235120
571.162210	0.235452
571.374736	0.235617
571.587244	0.235483
571.799733	0.236055
572.012205	0.236125
572.224658	0.236567
572.437092	0.236420
572.649509	0.236267
572.861907	0.236444
573.074287	0.236622
573.286649	0.236649
573.498993	0.237114
573.711318	0.237162
573.923625	0.237223
574.135914	0.237007
574.348185	0.237434
574.560438	0.237944
574.772672	0.238133
574.984888	0.238004
575.197086	0.238412
575.409266	0.238496
575.621427	0.238377
575.833570	0.238682
576.045695	0.238844
576.257802	0.239085
576.469890	0.239208
576.681961	0.239593
576.894013	0.240044
577.106046	0.240155
577.318062	0.240349
577.530059	0.240979
577.742039	0.240857
577.954000	0.240779
578.165942	0.240594
578.377867	0.240846
578.589773	0.240736
578.801661	0.240708
579.013531	0.240755
579.225382	0.241264
579.437216	0.241218
579.649031	0.241609
579.860828	0.241694
580.072606	0.241736
580.284367	0.241682
580.496109	0.242057
580.707833	0.242153
580.919539	0.242565
581.131227	0.242401
581.342896	0.243008
581.554547	0.243219
581.766180	0.243802
581.977795	0.244212
582.189391	0.244599
582.400969	0.244654
582.612529	0.244989
582.824071	0.245119
583.035595	0.245212
583.247100	0.245326
583.458587	0.245858
583.670056	0.245811
583.881506	0.246404
584.092939	0.246842
584.304353	0.247462
584.515749	0.247410
584.727127	0.247686
584.938486	0.248177
585.149828	0.248202
585.361151	0.247772
585.572456	0.248109
585.783742	0.248410
585.995011	0.248306
586.206261	0.248248
586.417493	0.248513
586.628706	0.248500
586.839902	0.248452
587.051079	0.248714
587.262238	0.248843
587.473379	0.249193
587.684502	0.249052
587.895606	0.248839
588.106692	0.249157
588.317760	0.249049
588.528810	0.249047
588.739841	0.249301
588.950855	0.249438
589.161850	0.250211
589.372827	0.250054
589.583785	0.250254
589.794726	0.251204
590.005648	0.250881
590.216552	0.251665
590.427437	0.252389
590.638305	0.252743
590.849154	0.252908
591.059985	0.252756
591.270798	0.252705
591.481592	0.252523
591.692369	0.252169
591.903127	0.252644
592.113867	0.252718
592.324588	0.252600
592.535292	0.252645
592.745977	0.253007
592.956644	0.253497
593.167293	0.253894
593.377923	0.254215
593.588536	0.254771
593.799130	0.255143
594.009706	0.255179
594.220263	0.255610
594.430803	0.255859
594.641324	0.255554
594.851827	0.255309
595.062312	0.255780
595.272778	0.256047
595.483227	0.256043
595.693657	0.256176
595.904069	0.256152
596.114462	0.256208
596.324838	0.256359
596.535195	0.257028
596.745534	0.257612
596.955855	0.257709
597.166157	0.258201
597.376441	0.258223
597.586707	0.257987
597.796955	0.258599
598.007185	0.259053
598.217396	0.259379
598.427589	0.259476
598.637764	0.259550
598.847921	0.260106
599.058060	0.259995
599.268180	0.260349
599.478282	0.261185
599.688366	0.261208
599.898431	0.261100
600.108479	0.261129
600.318508	0.261246
600.528519	0.261240
600.738511	0.261206
600.948486	0.261320
601.158442	0.261543
601.368380	0.261386
601.578300	0.261806
601.788202	0.262071
601.998085	0.262357
602.207950	0.262491
602.417797	0.262743
602.627626	0.262645
602.837436	0.262984
603.047228	0.263323
603.257002	0.263631
603.466758	0.263777
603.676496	0.264286
603.886215	0.264297
604.095916	0.264584
604.305599	0.265101
604.515264	0.265754
604.724910	0.266228
604.934538	0.266167
605.144148	0.266358
605.353740	0.266237
605.563314	0.265912
605.772869	0.266210
605.982406	0.266329
606.191925	0.266402
606.401425	0.266201
606.610908	0.265945
606.820372	0.266267
607.029818	0.266403
607.239246	0.266694
607.448655	0.267004
607.658047	0.267043
607.867420	0.267404
608.076775	0.267128
608.286111	0.267458
608.495430	0.267710
608.704730	0.267686
608.914012	0.267734
609.123275	0.267748
609.332521	0.267869
609.541748	0.268109
609.750957	0.268209
609.960148	0.268948
610.169321	0.269083
610.378475	0.269405
610.587611	0.269532
610.796729	0.270101
611.005829	0.270358
611.214910	0.270542
611.423974	0.270638
611.633019	0.270755
611.842045	0.270941
612.051054	0.271162
612.260044	0.271195
612.469017	0.271432
612.677970	0.271129
612.886906	0.271359
613.095824	0.271134
613.304723	0.271409
613.513604	0.271440
613.722467	0.271068
613.931311	0.271316
614.140138	0.271425
614.348946	0.271686
614.557736	0.272227
614.766507	0.272342
614.975261	0.272890
615.183996	0.273113
615.392713	0.273324
615.601412	0.273550
615.810092	0.273729
616.018754	0.273838
616.227399	0.274036
616.436024	0.273890
616.644632	0.274185
616.853222	0.274424
617.061793	0.274619
617.270346	0.274767
617.478880	0.274893
617.687397	0.275000
617.895895	0.275369
618.104375	0.275740
618.312837	0.276118
618.521281	0.276174
618.729706	0.276374
618.938113	0.276675
619.146502	0.276891
619.354873	0.277406
619.563226	0.277566
619.771560	0.277658
619.979876	0.277852
620.188174	0.277941
620.396453	0.278460
620.604715	0.278578
620.812958	0.278607
621.021183	0.278654
621.229390	0.278831
621.437578	0.279002
621.645748	0.279286
621.853900	0.279454
622.062034	0.279641
622.270150	0.279338
622.478247	0.279441
622.686326	0.279440
622.894387	0.279807
623.102430	0.280279
623.310454	0.280276
623.518461	0.280236
623.726449	0.279931
623.934418	0.279690
624.142370	0.279913
624.350303	0.280074
624.558218	0.280007
624.766115	0.279937
624.973994	0.279521
625.181855	0.279790
625.389697	0.280137
625.597521	0.280595
625.805327	0.281044
626.013114	0.281552
626.220883	0.281704
626.428634	0.282058
626.636367	0.282423
626.844082	0.282533
627.051778	0.282757
627.259457	0.283150
627.467117	0.283151
627.674758	0.283331
627.882382	0.283281
628.089987	0.283361
628.297574	0.283703
628.505143	0.283821
628.712694	0.284290
628.920226	0.284280
629.127740	0.284022
629.335236	0.284199
629.542714	0.284348
629.750174	0.284535
629.957615	0.284762
630.165038	0.284980
630.372443	0.285284
630.579829	0.285324
630.787198	0.285458
630.994548	0.285709
631.201880	0.285954
631.409194	0.286259
631.616489	0.286224
631.823766	0.286437
632.031025	0.286366
632.238266	0.286410
632.445489	0.286534
632.652693	0.286748
632.859879	0.287195
633.067047	0.287357
633.274197	0.287272
633.481329	0.287421
633.688442	0.287617
633.895537	0.287816
634.102614	0.287893
634.309672	0.288206
634.516713	0.288311
634.723735	0.288339
634.930739	0.288800
635.137724	0.289182
635.344692	0.289393
635.551641	0.289411
635.758572	0.289595
635.965485	0.289809
636.172379	0.289996
636.379256	0.290179
636.586114	0.290236
636.792954	0.289883
636.999775	0.290087
637.206579	0.290374
637.413364	0.290686
637.620131	0.290759
637.826880	0.290840
638.033610	0.290876
638.240323	0.290897
638.447017	0.291008
638.653692	0.291375
638.860350	0.291428
639.066990	0.291667
639.273611	0.291790
639.480214	0.292221
639.686798	0.292494
639.893365	0.292758
640.099913	0.293115
640.306443	0.293313
640.512955	0.293643
640.719449	0.293895
640.925924	0.294011
641.132381	0.294017
641.338820	0.293964
641.545241	0.294419
641.751644	0.294669
641.958028	0.294894
642.164394	0.295184
642.370742	0.295194
642.577071	0.295316
642.783383	0.295420
642.989676	0.295526
643.195951	0.295617
643.402207	0.295595
643.608446	0.295642
643.814666	0.295783
644.020868	0.296196
644.227052	0.296376
644.433218	0.296614
644.639365	0.296695
644.845494	0.297047
645.051605	0.297454
645.257698	0.297491
645.463772	0.297540
645.669828	0.297740
645.875866	0.297626
646.081886	0.297951
646.287888	0.297972
646.493871	0.298293
646.699836	0.298458
646.905783	0.298879
647.111712	0.299071
647.317622	0.299125
647.523514	0.299260
647.729388	0.299385
647.935244	0.299448
648.141082	0.299750
648.346901	0.299819
648.552702	0.300331
648.758485	0.300493
648.964250	0.300685
649.169996	0.301436
649.375724	0.301632
649.581434	0.301936
649.787126	0.302299
649.992800	0.302243
650.198455	0.302388
650.404092	0.302269
650.609711	0.302083
650.815311	0.302315
651.020894	0.301997
651.226458	0.302304
651.432004	0.302516
651.637532	0.302437
651.843041	0.302732
652.048532	0.303032
652.254006	0.303297
652.459460	0.303694
652.664897	0.303956
652.870315	0.304213
653.075716	0.304238
653.281097	0.304373
653.486461	0.304715
653.691807	0.304898
653.897134	0.305221
654.102443	0.305516
654.307734	0.305767
654.513006	0.305625
654.718261	0.306233
654.923497	0.306799
655.128715	0.307020
655.333915	0.307293
655.539096	0.307770
655.744259	0.307843
655.949404	0.308055
656.154531	0.308191
656.359640	0.308695
656.564730	0.308532
656.769802	0.308441
656.974856	0.308523
657.179892	0.308591
657.384909	0.308650
657.589908	0.308687
657.794889	0.308814
657.999852	0.308773
658.204797	0.308902
658.409723	0.309258
658.614631	0.309689
658.819521	0.309947
659.024393	0.310300
659.229246	0.310483
659.434081	0.311045
659.638898	0.311380
659.843697	0.311675
660.048478	0.311936
660.253240	0.312207
660.457984	0.312426
660.662710	0.312548
660.867417	0.312707
661.072107	0.312960
661.276778	0.313004
661.481431	0.313011
661.686066	0.313321
661.890682	0.313607
662.095281	0.313907
662.299861	0.313906
662.504422	0.314194
662.708966	0.314530
662.913491	0.314837
663.117999	0.315012
663.322488	0.315427
663.526958	0.315654
663.731411	0.315948
663.935845	0.316014
664.140261	0.316191
664.344659	0.316342
664.549038	0.316567
664.753400	0.316666
664.957743	0.316876
665.162068	0.316843
665.366375	0.316771
665.570663	0.316629
665.774933	0.316600
665.979185	0.316726
666.183419	0.317022
666.387635	0.317197
666.591832	0.317415
666.796011	0.317785
667.000172	0.318204
667.204315	0.318723
667.408439	0.319067
667.612545	0.319530
667.816634	0.320101
668.020703	0.320191
668.224755	0.320252
668.428788	0.320371
668.632803	0.320513
668.836800	0.320459
669.040779	0.320487
669.244739	0.320938
669.448681	0.321334
669.652605	0.321282
669.856511	0.321704
670.060399	0.321854
670.264268	0.322303
670.468119	0.322539
670.671952	0.322652
670.875767	0.322922
671.079563	0.323042
671.283341	0.323128
671.487101	0.323417
671.690843	0.323577
671.894567	0.323914
672.098272	0.323827
672.301959	0.324158
672.505628	0.324686
672.709278	0.325389
672.912911	0.325553
673.116525	0.325660
673.320121	0.325802
673.523699	0.326115
673.727258	0.326480
673.930799	0.326958
674.134322	0.327098
674.337827	0.327327
674.541314	0.326989
674.744782	0.327205
674.948232	0.327536
675.151664	0.327780
675.355078	0.327934
675.558474	0.327878
675.761851	0.327981
675.965210	0.328193
676.168551	0.328385
676.371873	0.328991
676.575178	0.329388
676.778464	0.329722
676.981732	0.330067
677.184981	0.330210
677.388213	0.330503
677.591426	0.330769
677.794621	0.331106
677.997798	0.331289
678.200956	0.331226
678.404097	0.331397
678.607219	0.331468
678.810323	0.331679
679.013408	0.332012
679.216476	0.332267
679.419525	0.332560
679.622556	0.332768
679.825569	0.332986
680.028563	0.333727
680.231540	0.333747
680.434498	0.333996
680.637438	0.334349
680.840359	0.334708
681.043263	0.334922
681.246148	0.335389
681.449015	0.335638
681.651864	0.336186
681.854694	0.336072
682.057506	0.336372
682.260301	0.336797
682.463076	0.337046
682.665834	0.337051
682.868573	0.337759
683.071295	0.337698
683.273998	0.338164
683.476682	0.338129
683.679349	0.338400
683.881997	0.338625
684.084627	0.338761
684.287239	0.338720
684.489833	0.339013
684.692408	0.338916
684.894965	0.339282
685.097504	0.339378
685.300025	0.339922
685.502527	0.339944
685.705012	0.340199
685.907478	0.340504
686.109925	0.341021
686.312355	0.341229
686.514766	0.341514
686.717159	0.341741
686.919534	0.341874
687.121891	0.341604
687.324230	0.342022
687.526550	0.342195
687.728852	0.342394
687.931136	0.342413
688.133401	0.342728
688.335649	0.342669
688.537878	0.342764
688.740089	0.342970
688.942281	0.343204
689.144456	0.343150
689.346612	0.343415
689.548750	0.343153
689.750870	0.343299
689.952971	0.343179
690.155055	0.343660
690.357120	0.343470
690.559167	0.343356
690.761195	0.343743
690.963206	0.343892
691.165198	0.344127
691.367172	0.344532
691.569128	0.344556
691.771065	0.344785
691.972984	0.344663
692.174885	0.345240
692.376768	0.345461
692.578633	0.345396
692.780479	0.345788
692.982308	0.345987
693.184118	0.346193
693.385909	0.346518
693.587683	0.346917
693.789438	0.347210
693.991175	0.347239
694.192894	0.347496
694.394595	0.347808
694.596277	0.347566
694.797941	0.347531
694.999587	0.347689
695.201215	0.347662
695.402824	0.347765
695.604416	0.347816
695.805989	0.347749
696.007543	0.347581
696.209080	0.347574
696.410598	0.348124
696.612099	0.348154
696.813580	0.348081
697.015044	0.348453
697.216490	0.348699
697.417917	0.348950
697.619326	0.349297
697.820717	0.349866
698.022089	0.350007
698.223444	0.350221
698.424780	0.350409
698.626098	0.350678
698.827397	0.350999
699.028679	0.351016
699.229942	0.351262
699.431187	0.351469
699.632414	0.351670
699.833622	0.352097
700.034813	0.352299
700.235985	0.352453
700.437139	0.352881
700.638274	0.352996
700.839392	0.353321
701.040491	0.353323
701.241572	0.353744
701.442635	0.353669
701.643679	0.353871
701.844706	0.353926
702.045714	0.354230
702.246704	0.354244
702.447675	0.354144
702.648629	0.353921
702.849564	0.353973
703.050481	0.353831
703.251380	0.354057
703.452260	0.353786
703.653122	0.353852
703.853966	0.353933
704.054792	0.353893
704.255600	0.353942
704.456389	0.353908
704.657160	0.353875
704.857913	0.353964
705.058648	0.353898
705.259365	0.354059
705.460063	0.353874
705.660743	0.353953
705.861405	0.354081
706.062048	0.354248
706.262674	0.354711
706.463281	0.354965
706.663870	0.354853
706.864441	0.354767
707.064993	0.355029
707.265527	0.355182
707.466043	0.355058
707.666541	0.354968
707.867021	0.354897
708.067482	0.354610
708.267925	0.354637
708.468350	0.354861
708.668757	0.354865
708.869145	0.354853
709.069516	0.354983
709.269868	0.355147
709.470201	0.355111
709.670517	0.355495
709.870814	0.355754
710.071093	0.355670
710.271354	0.355773
710.471597	0.355747
710.671821	0.355802
710.872028	0.355699
711.072216	0.355713
711.272385	0.355945
711.472537	0.355543
711.672670	0.355415
711.872785	0.355746
712.072882	0.355626
712.272961	0.355986
712.473021	0.355747
712.673063	0.355916
712.873087	0.355880
713.073093	0.355892
713.273081	0.356062
713.473050	0.356048
713.673001	0.355608
713.872934	0.355677
714.072849	0.355609
714.272745	0.355887
714.472623	0.355794
714.672483	0.355952
714.872325	0.355819
715.072148	0.356264
715.271954	0.356462
715.471741	0.356588
715.671509	0.356754
715.871260	0.356706
716.070992	0.356727
716.270707	0.356793
716.470403	0.356746
716.670080	0.356783
716.869740	0.356424
717.069381	0.356496
717.269004	0.356529
717.468609	0.356341
717.668195	0.356390
717.867764	0.356362
718.067314	0.356126
718.266846	0.356208
718.466360	0.356313
718.665855	0.356136
718.865332	0.355712
719.064791	0.355605
719.264232	0.355437
719.463655	0.355052
719.663059	0.354563
719.862445	0.354827
720.061813	0.354590
720.261163	0.354357
720.460494	0.354268
720.659807	0.354218
720.859102	0.354114
721.058379	0.353991
721.257638	0.354189
721.456878	0.354342
721.656100	0.354161
721.855304	0.353771
722.054490	0.353395
722.253657	0.353278
722.452806	0.353562
722.651937	0.353884
722.851050	0.354051
723.050145	0.354007
723.249221	0.353794
723.448279	0.353780
723.647319	0.353950
723.846340	0.354267
724.045344	0.354468
724.244329	0.353955
724.443296	0.353715
724.642245	0.353518
724.841175	0.353609
725.040088	0.353702
725.238982	0.353468
725.437857	0.353264
725.636715	0.353099
725.835554	0.352986
726.034376	0.353240
726.233179	0.353074
726.431963	0.353278
726.630730	0.353134
726.829478	0.353202
727.028208	0.353452
727.226920	0.353384
727.425614	0.353169
727.624289	0.352742
727.822946	0.352594
728.021585	0.352581
728.220206	0.352176
728.418808	0.351890
728.617392	0.351414
728.815958	0.351136
729.014506	0.351328
729.213036	0.351743
729.411547	0.352016
729.610040	0.352086
729.808515	0.352094
730.006972	0.352071
730.205410	0.352079
730.403831	0.352164
730.602233	0.352102
730.800616	0.351617
730.998982	0.350913
731.197329	0.350372
731.395658	0.349810
731.593969	0.349512
731.792262	0.349310
731.990536	0.349022
732.188793	0.349084
732.387031	0.348646
732.585250	0.348619
732.783452	0.348611
732.981635	0.348837
733.179800	0.349033
733.377947	0.348727
733.576076	0.348671
733.774186	0.348707
733.972278	0.348427
734.170352	0.348476
734.368408	0.348207
734.566446	0.348093
734.764465	0.347769
734.962466	0.347235
735.160449	0.347067
735.358413	0.346881
735.556360	0.346500
735.754288	0.346205
735.952198	0.346131
736.150090	0.346540
736.347963	0.346347
736.545818	0.346071
736.743655	0.346117
736.941474	0.345916
737.139275	0.345698
737.337057	0.345610
737.534821	0.345563
737.732567	0.345198
737.930295	0.344601
738.128005	0.344806
738.325696	0.344534
738.523369	0.344455
738.721024	0.344309
738.918660	0.344105
739.116279	0.344024
739.313879	0.343742
739.511461	0.343579
739.709024	0.343628
739.906570	0.343296
740.104097	0.343511
740.301606	0.343242
740.499097	0.343233
740.696569	0.343135
740.894024	0.343044
741.091460	0.342895
741.288878	0.342719
741.486277	0.342373
741.683659	0.342059
741.881022	0.341825
742.078367	0.341456
742.275694	0.341146
742.473002	0.340881
742.670293	0.340498
742.867565	0.340386
743.064819	0.340131
743.262054	0.340073
743.459272	0.339887
743.656471	0.339548
743.853652	0.339543
744.050815	0.339138
744.247959	0.338965
744.445085	0.338806
744.642194	0.338582
744.839283	0.338349
745.036355	0.338054
745.233408	0.338027
745.430444	0.337713
745.627461	0.337546
745.824459	0.337587
746.021440	0.337415
746.218402	0.337401
746.415346	0.337413
746.612272	0.337465
746.809180	0.337240
747.006069	0.336829
747.202940	0.336816
747.399793	0.336667
747.596628	0.336238
747.793444	0.335995
747.990243	0.335831
748.187023	0.335070
748.383784	0.334974
748.580528	0.335059
748.777253	0.335007
748.973960	0.334583
749.170649	0.334281
749.367320	0.334207
749.563973	0.334053
749.760607	0.333725
749.957223	0.333829
750.153821	0.333524
750.350400	0.333093
750.546962	0.332748
750.743505	0.332647
750.940030	0.332548
751.136536	0.332438
751.333025	0.332121
751.529495	0.331735
751.725947	0.331659
751.922381	0.331399
752.118796	0.331414
752.315194	0.331394
752.511573	0.331297
752.707934	0.331078
752.904276	0.331125
753.100601	0.330984
753.296907	0.330876
753.493195	0.330673
753.689465	0.330579
753.885716	0.329961
754.081949	0.329508
754.278164	0.329423
754.474361	0.329473
754.670540	0.329344
754.866700	0.329267
755.062843	0.329286
755.258967	0.329204
755.455072	0.328945
755.651160	0.328928
755.847229	0.328862
756.043280	0.328529
756.239313	0.327964
756.435328	0.327727
756.631324	0.327460
756.827302	0.327051
757.023262	0.326829
757.219204	0.326641
757.415127	0.326292
757.611033	0.326247
757.806920	0.326372
758.002788	0.326220
758.198639	0.325912
758.394471	0.325832
758.590286	0.325726
758.786081	0.325497
758.981859	0.325348
759.177619	0.325504
759.373360	0.325233
759.569083	0.325104
759.764788	0.325133
759.960474	0.325064
760.156143	0.324774
760.351793	0.324745
760.547425	0.324288
760.743038	0.324061
760.938634	0.324006
761.134211	0.323766
761.329770	0.323175
761.525311	0.323089
761.720833	0.322817
761.916338	0.322799
762.111824	0.322509
762.307292	0.322526
762.502741	0.322553
762.698173	0.322106
762.893586	0.322321
763.088981	0.322569
763.284358	0.322513
763.479716	0.322377
763.675057	0.322150
763.870379	0.322253
764.065683	0.322099
764.260968	0.321697
764.456236	0.321508
764.651485	0.321038
764.846716	0.320468
765.041929	0.320214
765.237123	0.319905
765.432299	0.319720
765.627457	0.319227
765.822597	0.319238
766.017719	0.319225
766.212822	0.319306
766.407907	0.319157
766.602974	0.319151
766.798023	0.318775
766.993054	0.318730
767.188066	0.318723
767.383060	0.318532
767.578036	0.318209
767.772993	0.318072
767.967933	0.318212
768.162854	0.318264
768.357757	0.318543
768.552642	0.318631
768.747508	0.318431
768.942356	0.318057
769.137186	0.317946
769.331998	0.318103
769.526792	0.317916
769.721567	0.317667
769.916324	0.317493
770.111063	0.317155
770.305784	0.317148
770.500486	0.317404
770.695171	0.317411
770.889837	0.317555
771.084484	0.317037
771.279114	0.316799
771.473725	0.316516
771.668318	0.316403
771.862893	0.316167
772.057450	0.315673
772.251988	0.315184
772.446509	0.315239
772.641011	0.315117
772.835494	0.315254
773.029960	0.315461
773.224407	0.315515
773.418836	0.315440
773.613247	0.315326
773.807640	0.315737
774.002014	0.315782
774.196370	0.315791
774.390708	0.315573
774.585028	0.315917
774.779330	0.315925
774.973613	0.315816
775.167878	0.315627
775.362125	0.315714
775.556354	0.315384
775.750564	0.315700
775.944756	0.315609
776.138930	0.315636
776.333086	0.315235
776.527223	0.315115
776.721343	0.314986
776.915444	0.314751
777.109526	0.314647
777.303591	0.314771
777.497637	0.314700
777.691666	0.314660
777.885676	0.314720
778.079667	0.314908
778.273641	0.314968
778.467596	0.315089
778.661533	0.315370
778.855452	0.315589
779.049352	0.315638
779.243235	0.315558
779.437099	0.315602
779.630945	0.315809
779.824773	0.315665
780.018582	0.315519
780.212373	0.315486
780.406146	0.315710
780.599901	0.315621
780.793638	0.315662
780.987356	0.315619
781.181056	0.315494
781.374738	0.315328
781.568402	0.315221
781.762047	0.315323
781.955674	0.315023
782.149283	0.315070
782.342874	0.315185
782.536447	0.315098
782.730001	0.314851
782.923537	0.314748
783.117055	0.314828
783.310555	0.314916
783.504036	0.314816
783.697499	0.315192
783.890944	0.314834
784.084371	0.314324
784.277780	0.314188
784.471170	0.314415
784.664542	0.314203
784.857896	0.314055
785.051231	0.313977
785.244549	0.313758
785.437848	0.313624
785.631129	0.313755
785.824392	0.314126
786.017636	0.314291
786.210863	0.314429
786.404071	0.314776
786.597260	0.314936
786.790432	0.315022
786.983585	0.315517
787.176721	0.315948
787.369838	0.315961
787.562936	0.315879
787.756017	0.315798
787.949079	0.315784
788.142123	0.315910
788.335149	0.315929
788.528156	0.316309
788.721146	0.316156
788.914117	0.316111
789.107070	0.316146
789.300005	0.316345
789.492921	0.316407
789.685819	0.316509
789.878699	0.316569
790.071561	0.316426
790.264405	0.316254
790.457230	0.316437
790.650037	0.316242
790.842826	0.316370
791.035597	0.316414
791.228349	0.316572
791.421084	0.316512
791.613800	0.316520
791.806497	0.317094
791.999177	0.317226
792.191838	0.317344
792.384481	0.317566
792.577106	0.317827
792.769713	0.317986
792.962301	0.318327
793.154871	0.318524
793.347423	0.318701
793.539957	0.318590
793.732473	0.318652
793.924970	0.318688
794.117449	0.318751
794.309910	0.318754
794.502353	0.319021
794.694777	0.319074
794.887183	0.319346
795.079571	0.319682
795.271941	0.319948
795.464293	0.320150
795.656626	0.320437
795.848941	0.320675
796.041238	0.320801
796.233516	0.320890
796.425777	0.320676
796.618019	0.320912
796.810243	0.320900
797.002449	0.320843
797.194636	0.320917
797.386805	0.320959
797.578956	0.320754
797.771089	0.320908
797.963204	0.320915
798.155300	0.321084
798.347378	0.321071
798.539438	0.321358
798.731480	0.321545
798.923503	0.321630
799.115509	0.321673
799.307496	0.322260
799.499465	0.322515
799.691415	0.322722
799.883348	0.323107
800.075262	0.323328
800.267158	0.323640
800.459035	0.323944
800.650895	0.324346
800.842736	0.324367
801.034559	0.324352
801.226364	0.324465
801.418150	0.324571
801.609919	0.324810
801.801669	0.324897
801.993401	0.324668
802.185114	0.324600
802.376810	0.324570
802.568487	0.324937
802.760146	0.325016
802.951787	0.325271
803.143409	0.325375
803.335014	0.325488
803.526600	0.325474
803.718168	0.325678
803.909717	0.325862
804.101249	0.326108
804.292762	0.326182
804.484257	0.326327
804.675734	0.326282
804.867192	0.326852
805.058632	0.327052
805.250054	0.327337
805.441458	0.327940
805.632844	0.328503
805.824211	0.328843
806.015561	0.329408
806.206891	0.330005
806.398204	0.330484
806.589499	0.330733
806.780775	0.330878
806.972033	0.331478
807.163273	0.331464
807.354495	0.331706
807.545698	0.331927
807.736883	0.332030
807.928050	0.332211
808.119199	0.332634
808.310329	0.332597
808.501441	0.332903
808.692535	0.333074
808.883611	0.333481
809.074669	0.333650
809.265708	0.334086
809.456729	0.333902
809.647732	0.334082
809.838717	0.334257
810.029683	0.334733
810.220632	0.335115
810.411562	0.335150
810.602474	0.335337
810.793367	0.335558
810.984242	0.336065
811.175100	0.336768
811.365938	0.336936
811.556759	0.337273
811.747562	0.337548
811.938346	0.337864
812.129112	0.338237
812.319860	0.338394
812.510589	0.338676
812.701300	0.338748
812.891994	0.339288
813.082668	0.339609
813.273325	0.339825
813.463964	0.340105
813.654584	0.340290
813.845186	0.340758
814.035769	0.341293
814.226335	0.341763
814.416882	0.341961
814.607411	0.341858
814.797922	0.342261
814.988415	0.342289
815.178889	0.342668
815.369345	0.343113
815.559783	0.343497
815.750203	0.343735
815.940605	0.343916
816.130988	0.344163
816.321353	0.344553
816.511700	0.344912
816.702028	0.345567
816.892339	0.345837
817.082631	0.345956
817.272905	0.346477
817.463161	0.346738
817.653398	0.347162
817.843617	0.347526
818.033819	0.348018
818.224001	0.348322
818.414166	0.348487
818.604312	0.348524
818.794440	0.349145
818.984550	0.348892
819.174642	0.349188
819.364716	0.349326
819.554771	0.349814
819.744808	0.350143
819.934827	0.350739
820.124827	0.351108
820.314810	0.351884
820.504774	0.352246
820.694720	0.352675
820.884647	0.353057
821.074557	0.353353
821.264448	0.353536
821.454321	0.354008
821.644176	0.354006
821.834012	0.354282
822.023831	0.354490
822.213631	0.354876
822.403413	0.355189
822.593176	0.355593
822.782922	0.356090
822.972649	0.356311
823.162358	0.356792
823.352049	0.357104
823.541721	0.357749
823.731376	0.358187
823.921012	0.358433
824.110629	0.358670
824.300229	0.358814
824.489811	0.359274
824.679374	0.359564
824.868919	0.359846
825.058445	0.360350
825.247954	0.360882
825.437444	0.361108
825.626916	0.361199
825.816370	0.361966
826.005806	0.362255
826.195223	0.362629
826.384622	0.363257
826.574003	0.363471
826.763366	0.363706
826.952711	0.363591
827.142037	0.364026
827.331345	0.364690
827.520635	0.364948
827.709906	0.365884
827.899160	0.366367
828.088395	0.366730
828.277612	0.367389
828.466810	0.367884
828.655991	0.368577
828.845153	0.369161
829.034297	0.369623
829.223423	0.369778
829.412531	0.370250
829.601620	0.370627
829.790691	0.371154
829.979744	0.371291
830.168779	0.371728
830.357795	0.372257
830.546793	0.372573
830.735773	0.373207
830.924735	0.374189
831.113679	0.374126
831.302604	0.374372
831.491511	0.374515
831.680400	0.374769
831.869271	0.375651
832.058123	0.376074
832.246957	0.376629
832.435773	0.376845
832.624571	0.376989
832.813351	0.377542
833.002112	0.378173
833.190855	0.379097
833.379580	0.379562
833.568287	0.379510
833.756975	0.379537
833.945645	0.379901
834.134297	0.380270
834.322931	0.380784
834.511547	0.381239
834.700144	0.381598
834.888723	0.381698
835.077284	0.382259
835.265826	0.382772
835.454351	0.383654
835.642857	0.383658
835.831345	0.383882
836.019815	0.384126
836.208266	0.384617
836.396699	0.385280
836.585114	0.385811
836.773511	0.386230
836.961890	0.386651
837.150250	0.387004
837.338592	0.387932
837.526916	0.388490
837.715222	0.388945
837.903510	0.389633
838.091779	0.389835
838.280030	0.390323
838.468263	0.390904
838.656477	0.391802
838.844674	0.392231
839.032852	0.392631
839.221012	0.393243
839.409153	0.393591
839.597277	0.393648
839.785382	0.394355
839.973469	0.395032
840.161538	0.395567
840.349589	0.395854
840.537621	0.396137
840.725635	0.396575
840.913631	0.396866
841.101609	0.397676
841.289568	0.398422
841.477509	0.398969
841.665432	0.398750
841.853337	0.399215
842.041224	0.399644
842.229092	0.400294
842.416942	0.400789
842.604774	0.401179
842.792588	0.401715
842.980383	0.402066
843.168160	0.402589
843.355919	0.403326
843.543660	0.403987
843.731382	0.404283
843.919087	0.404486
844.106773	0.404578
844.294441	0.405304
844.482090	0.405589
844.669722	0.406045
844.857335	0.406091
845.044930	0.406405
845.232507	0.406664
845.420065	0.407249
845.607605	0.407690
845.795127	0.408109
845.982631	0.408628
846.170117	0.409084
846.357584	0.409637
846.545033	0.410173
846.732464	0.411028
846.919877	0.411580
847.107272	0.411738
847.294648	0.412351
847.482006	0.413036
847.669346	0.413214
847.856667	0.413601
848.043971	0.414080
848.231256	0.414681
848.418523	0.414942
848.605771	0.415368
848.793002	0.416044
848.980214	0.416677
849.167408	0.417204
849.354584	0.417840
849.541742	0.418391
849.728881	0.418820
849.916002	0.419246
850.103105	0.419714
850.290190	0.420149
850.477256	0.420696
850.664304	0.421389
850.851334	0.422118
851.038346	0.422724
851.225340	0.423302
851.412315	0.423963
851.599272	0.424357
851.786211	0.425066
851.973132	0.425895
852.160034	0.426407
852.346918	0.426593
852.533784	0.426577
852.720632	0.427152
852.907462	0.427517
853.094273	0.427177
853.281066	0.427521
853.467841	0.427734
853.654598	0.427506
853.841336	0.427570
854.028056	0.428163
854.214758	0.429118
854.401442	0.429494
854.588107	0.430280
854.774755	0.431256
854.961384	0.431907
855.147995	0.432184
855.334587	0.432516
855.521162	0.432853
855.707718	0.432652
855.894256	0.432872
856.080775	0.432947
856.267277	0.433018
856.453760	0.433454
856.640225	0.433952
856.826672	0.434812
857.013101	0.435584
857.199511	0.435928
857.385903	0.436701
857.572277	0.436853
857.758633	0.437279
857.944970	0.437932
858.131290	0.438541
858.317591	0.438550
858.503873	0.438779
858.690138	0.439268
858.876384	0.439849
859.062612	0.440430
859.248822	0.441018
859.435014	0.441858
859.621188	0.441966
859.807343	0.442246
859.993480	0.442717
860.179599	0.443107
860.365699	0.443645
860.551781	0.444202
860.737846	0.444534
860.923891	0.445039
861.109919	0.445114
861.295929	0.445691
861.481920	0.446196
861.667893	0.446625
861.853848	0.447116
862.039784	0.447344
862.225702	0.447896
862.411603	0.448433
862.597484	0.448752
862.783348	0.449259
862.969193	0.449844
863.155021	0.450229
863.340830	0.450523
863.526620	0.450653
863.712393	0.450762
863.898147	0.451188
864.083883	0.451374
864.269601	0.451420
864.455301	0.452107
864.640982	0.452019
864.826645	0.452204
865.012290	0.452955
865.197917	0.453395
865.383526	0.453767
865.569116	0.453930
865.754688	0.454487
865.940242	0.455194
866.125777	0.455219
866.311295	0.455861
866.496794	0.456390
866.682275	0.456568
866.867737	0.457250
867.053182	0.457921
867.238608	0.458487
867.424016	0.458657
867.609406	0.458768
867.794778	0.459366
867.980131	0.459645
868.165466	0.459905
868.350783	0.460070
868.536082	0.459844
868.721362	0.459831
868.906625	0.460083
869.091869	0.460551
869.277094	0.460848
869.462302	0.461121
869.647491	0.461205
869.832662	0.461522
870.017815	0.462320
870.202950	0.462601
870.388066	0.462887
870.573165	0.462910
870.758245	0.462878
870.943306	0.463578
871.128350	0.463719
871.313375	0.464671
871.498382	0.464792
871.683371	0.464695
871.868342	0.465602
872.053294	0.466648
872.238229	0.467040
872.423144	0.467675
872.608042	0.467807
872.792922	0.467810
872.977783	0.467684
873.162626	0.468687
873.347451	0.468791
873.532258	0.468340
873.717046	0.468075
873.901816	0.468003
874.086568	0.468495
874.271302	0.468643
874.456017	0.468972
874.640715	0.468911
874.825394	0.468459
875.010055	0.468540
875.194697	0.468936
875.379322	0.469056
875.563928	0.469510
875.748516	0.469532
875.933085	0.470057
876.117637	0.469851
876.302170	0.470056
876.486685	0.470529
876.671182	0.471503
876.855661	0.472168
877.040121	0.472640
877.224563	0.473019
877.408987	0.473658
877.593393	0.473816
877.777780	0.473894
877.962150	0.474313
878.146501	0.474386
878.330833	0.474373
878.515148	0.474603
878.699444	0.474912
878.883722	0.475087
879.067982	0.474441
879.252224	0.474107
879.436447	0.474789
879.620653	0.475338
879.804840	0.475440
879.989008	0.475845
880.173159	0.475810
880.357291	0.475740
880.541405	0.476179
880.725501	0.476539
880.909579	0.477117
881.093638	0.477769
881.277680	0.477531
881.461703	0.477653
881.645707	0.477032
881.829694	0.477297
882.013662	0.477627
882.197612	0.477715
882.381544	0.477739
882.565458	0.477903
882.749353	0.477533
882.933230	0.477435
883.117089	0.477829
883.300930	0.478325
883.484753	0.478377
883.668557	0.478590
883.852343	0.478257
884.036111	0.478448
884.219861	0.478239
884.403592	0.478874
884.587305	0.479317
884.771000	0.479458
884.954677	0.479894
885.138335	0.480038
885.321976	0.480014
885.505598	0.480059
885.689201	0.479912
885.872787	0.479769
886.056354	0.479472
886.239904	0.479566
886.423434	0.479242
886.606947	0.478661
886.790442	0.478640
886.973918	0.478686
887.157376	0.479694
887.340816	0.479752
887.524237	0.480069
887.707641	0.479668
887.891026	0.479249
888.074393	0.479010
888.257741	0.479141
888.441072	0.478900
888.624384	0.478724
888.807678	0.478246
888.990954	0.478182
889.174211	0.478098
889.357451	0.478480
889.540672	0.479133
889.723875	0.480107
889.907059	0.479852
890.090226	0.480145
890.273374	0.480117
890.456504	0.479712
890.639616	0.479974
890.822709	0.480105
891.005785	0.479750
891.188842	0.479003
891.371881	0.478798
891.554901	0.479473
891.737904	0.479138
891.920888	0.479591
892.103854	0.479465
892.286802	0.478968
892.469731	0.478739
892.652643	0.479183
892.835536	0.479339
893.018410	0.478813
893.201267	0.478494
893.384106	0.478788
893.566926	0.478573
893.749728	0.478869
893.932511	0.479383
894.115277	0.479555
894.298024	0.478832
894.480753	0.478570
894.663464	0.478154
894.846157	0.477760
895.028831	0.477084
895.211487	0.476314
895.394125	0.476089
895.576745	0.475566
895.759346	0.474862
895.941930	0.475145
896.124495	0.474986
896.307041	0.475063
896.489570	0.475017
896.672080	0.474787
896.854573	0.475021
897.037046	0.474787
897.219502	0.474699
897.401940	0.474945
897.584359	0.474576
897.766760	0.474538
897.949143	0.473916
898.131507	0.473923
898.313854	0.473684
898.496182	0.473099
898.678492	0.472572
898.860783	0.472260
899.043057	0.471471
899.225312	0.471199
899.407549	0.470901
899.589768	0.471098
899.771968	0.470546
899.954151	0.471062
900.136315	0.470970
900.318461	0.470818
900.500588	0.470322
900.682698	0.470646
900.864789	0.470273
901.046862	0.470143
901.228917	0.469858
901.410953	0.469442
901.592971	0.468888
901.774972	0.468555
901.956953	0.468492
902.138917	0.468779
902.320862	0.468055
902.502790	0.467982
902.684699	0.467271
902.866589	0.466333
903.048462	0.466029
903.230316	0.465235
903.412152	0.464614
903.593970	0.464116
903.775770	0.463250
903.957551	0.462927
904.139314	0.462302
904.321059	0.461927
904.502786	0.461524
904.684494	0.461448
904.866185	0.460786
905.047857	0.460708
905.229510	0.459968
905.411146	0.459676
905.592763	0.459734
905.774363	0.459380
905.955943	0.458618
906.137506	0.458717
906.319051	0.457671
906.500577	0.457184
906.682085	0.456301
906.863575	0.456240
907.045046	0.455711
907.226500	0.455412
907.407935	0.455284
907.589352	0.455030
907.770750	0.454542
907.952131	0.454625
908.133493	0.454519
908.314837	0.454470
908.496163	0.453768
908.677470	0.453008
908.858760	0.452913
909.040031	0.452440
909.221284	0.451765
909.402518	0.450928
909.583735	0.450288
909.764933	0.450264
909.946113	0.449647
910.127275	0.449375
910.308418	0.449338
910.489544	0.448248
910.670651	0.447869
910.851740	0.447865
911.032810	0.447747
911.213863	0.446928
911.394897	0.446225
911.575913	0.445434
911.756911	0.444867
911.937890	0.443963
912.118851	0.443386
912.299794	0.442214
912.480719	0.441281
912.661626	0.440399
912.842514	0.439585
913.023384	0.438654
913.204236	0.438134
913.385070	0.437803
913.565886	0.437708
913.746683	0.437165
913.927462	0.436438
914.108223	0.436137
914.288965	0.435678
914.469690	0.435236
914.650396	0.435012
914.831084	0.434691
915.011754	0.433681
915.192405	0.432780
915.373038	0.431724
915.553653	0.431109
915.734250	0.430748
915.914829	0.429936
916.095389	0.429418
916.275931	0.428534
916.456455	0.428008
916.636961	0.427497
916.817448	0.427434
916.997917	0.426740
917.178368	0.425774
917.358801	0.424570
917.539216	0.424311
917.719612	0.423923
917.899990	0.422484
918.080350	0.421985
918.260692	0.421289
918.441015	0.419188
918.621320	0.418659
918.801607	0.418079
918.981876	0.418391
919.162127	0.417042
919.342359	0.415708
919.522573	0.416294
919.702769	0.414970
919.882947	0.414319
920.063106	0.414289
920.243247	0.413560
920.423370	0.413184
920.603475	0.411434
920.783562	0.410928
920.963630	0.410355
921.143680	0.408017
921.323712	0.406717
921.503725	0.405224
921.683721	0.404329
921.863698	0.403844
922.043657	0.402699
922.223598	0.401766
922.403520	0.400088
922.583424	0.399903
922.763311	0.400273
922.943178	0.400361
923.123028	0.400274
923.302859	0.399392
923.482673	0.397728
923.662467	0.397489
923.842244	0.396863
924.022003	0.397033
924.201743	0.395449
924.381465	0.394892
924.561169	0.393362
924.740854	0.391802
924.920522	0.391409
925.100171	0.391245
925.279802	0.390291
925.459414	0.389346
925.639009	0.387987
925.818585	0.388600
925.998143	0.386848
926.177683	0.385983
926.357205	0.385281
926.536708	0.383698
926.716193	0.382569
926.895660	0.381840
927.075109	0.380673
927.254539	0.379992
927.433951	0.378095
927.613345	0.377029
927.792721	0.376779
927.972079	0.376005
928.151418	0.375721
928.330739	0.374608
928.510042	0.373129
928.689327	0.372088
928.868593	0.371069
929.047841	0.370756
929.227071	0.370813
929.406283	0.369104
929.585476	0.368529
929.764652	0.367312
929.943809	0.366238
930.122948	0.365305
930.302068	0.364975
930.481171	0.364415
930.660255	0.362837
930.839321	0.360842
931.018369	0.360514
931.197398	0.359691
931.376409	0.358508
931.555402	0.358180
931.734377	0.357281
931.913334	0.355758
932.092272	0.354718
932.271192	0.354029
932.450094	0.352949
932.628978	0.351789
932.807844	0.350428
932.986691	0.349720
933.165520	0.348945
933.344331	0.348365
933.523123	0.347522
933.701898	0.346525
933.880654	0.343379
934.059392	0.343711
934.238111	0.342123
934.416813	0.341191
934.595496	0.340730
934.774161	0.339297
934.952808	0.337746
935.131437	0.337051
935.310047	0.335834
935.488639	0.336123
935.667213	0.334216
935.845769	0.333615
936.024306	0.332281
936.202825	0.330513
936.381326	0.329156
936.559809	0.327891
936.738274	0.326614
936.916720	0.325960
937.095148	0.325243
937.273558	0.324355
937.451950	0.322061
937.630323	0.320813
937.808678	0.320193
937.987015	0.318629
938.165334	0.317694
938.343635	0.316701
938.521917	0.315083
938.700181	0.314146
938.878427	0.313805
939.056655	0.314281
939.234864	0.313278
939.413055	0.311125
939.591228	0.310574
939.769383	0.309992
939.947519	0.308625
940.125638	0.307512
940.303738	0.306092
940.481820	0.304094
940.659883	0.302764
940.837929	0.300237
941.015956	0.299667
941.193965	0.297656
941.371955	0.296663
941.549928	0.295372
941.727882	0.294248
941.905818	0.293549
942.083736	0.291457
942.261636	0.289860
942.439517	0.289941
942.617380	0.288588
942.795225	0.287616
942.973052	0.286193
943.150860	0.285499
943.328651	0.285225
943.506423	0.283556
943.684176	0.283263
943.861912	0.282281
944.039629	0.281808
944.217328	0.280289
944.395009	0.278265
944.572672	0.276166
944.750317	0.272657
944.927943	0.269669
945.105551	0.267161
945.283141	0.264589
945.460712	0.263755
945.638265	0.262056
945.815801	0.260703
945.993317	0.260041
946.170816	0.259255
946.348297	0.260565
946.525759	0.259331
946.703203	0.259857
946.880629	0.260337
947.058036	0.258097
947.235425	0.256368
947.412797	0.255612
947.590149	0.255311
947.767484	0.253618
947.944800	0.251425
948.122099	0.252029
948.299379	0.250640
948.476640	0.248955
948.653884	0.249313
948.831109	0.247318
949.008316	0.245354
949.185505	0.244040
949.362676	0.243299
949.539828	0.242720
949.716962	0.240007
949.894078	0.238935
950.071176	0.238586
950.248256	0.235979
950.425317	0.235188
950.602360	0.234154
950.779385	0.231651
950.956391	0.229554
951.133380	0.228624
951.310350	0.228454
951.487302	0.225367
951.664235	0.222391
951.841151	0.222289
952.018048	0.222134
952.194927	0.222101
952.371788	0.222941
952.548631	0.222864
952.725455	0.220681
952.902261	0.218869
953.079049	0.217528
953.255819	0.216836
953.432570	0.213553
953.609303	0.211821
953.786018	0.210562
953.962715	0.210679
954.139394	0.207851
954.316054	0.208285
954.492696	0.207851
954.669320	0.207339
954.845926	0.204878
955.022513	0.204978
955.199083	0.204062
955.375634	0.203524
955.552166	0.200144
955.728681	0.201539
955.905177	0.198474
956.081655	0.196808
956.258115	0.195654
956.434557	0.195737
956.610980	0.194984
956.787385	0.196389
956.963772	0.194664
957.140141	0.194239
957.316492	0.191426
957.492824	0.191013
957.669138	0.187996
957.845434	0.188688
958.021712	0.190348
958.197971	0.189975
958.374212	0.186079
958.550435	0.184295
958.726640	0.184865
958.902826	0.186070
959.078995	0.186410
959.255145	0.187804
959.431277	0.185223
959.607390	0.182221
959.783486	0.182727
959.959563	0.184754
960.135622	0.182951
960.311662	0.177707
960.487685	0.177160
960.663689	0.176701
960.839675	0.175470
961.015643	0.176767
961.191593	0.179675
961.367524	0.178000
961.543437	0.175754
961.719332	0.179744
961.895209	0.182860
962.071067	0.181275
962.246907	0.179019
962.422730	0.182230
962.598533	0.180694
962.774319	0.179013
962.950086	0.179097
963.125835	0.177769
963.301566	0.176666
963.477279	0.176256
963.652973	0.175617
963.828650	0.174758
964.004308	0.171592
964.179947	0.170890
964.355569	0.169880
964.531172	0.168238
964.706757	0.168043
964.882324	0.165701
965.057873	0.166441
965.233403	0.165552
965.408916	0.166618
965.584410	0.165568
965.759885	0.165911
965.935343	0.163272
966.110782	0.162308
966.286203	0.161257
966.461606	0.161694
966.636991	0.161169
966.812357	0.161326
966.987705	0.161802
967.163035	0.161631
967.338347	0.159324
967.513641	0.160122
967.688916	0.160404
967.864173	0.160261
968.039412	0.160449
968.214632	0.158592
968.389835	0.158186
968.565019	0.157695
968.740185	0.159008
968.915333	0.160352
969.090462	0.159407
969.265573	0.158355
969.440667	0.158964
969.615741	0.158229
969.790798	0.160516
969.965836	0.161910
970.140856	0.162198
970.315858	0.159876
970.490842	0.160685
970.665808	0.161555
970.840755	0.162777
971.015684	0.162657
971.190595	0.160020
971.365487	0.157950
971.540362	0.156373
971.715218	0.156852
971.890056	0.158149
972.064875	0.157273
972.239677	0.158310
972.414460	0.159762
972.589225	0.161434
972.763972	0.163639
972.938700	0.162495
973.113411	0.163793
973.288103	0.163444
973.462777	0.164711
973.637432	0.163728
973.812070	0.163329
973.986689	0.159534
974.161290	0.159714
974.335873	0.158606
974.510437	0.160003
974.684984	0.160326
974.859512	0.160520
975.034022	0.159249
975.208513	0.161159
975.382987	0.159409
975.557442	0.161839
975.731879	0.162917
975.906298	0.163019
976.080698	0.164588
976.255080	0.162631
976.429445	0.163829
976.603790	0.163037
976.778118	0.161948
976.952427	0.162902
977.126719	0.162744
977.300992	0.159814
977.475246	0.160958
977.649483	0.156204
977.823701	0.156556
977.997901	0.152573
978.172083	0.154928
978.346247	0.155754
978.520392	0.157132
978.694519	0.158759
978.868628	0.158622
979.042719	0.157617
979.216791	0.161768
979.390845	0.164931
979.564882	0.167367
979.738899	0.165068
979.912899	0.164930
980.086880	0.163333
980.260843	0.161754
980.434788	0.161638
980.608715	0.161638
980.782623	0.159928
980.956514	0.157000
981.130386	0.155225
981.304240	0.156485
981.478075	0.156554
981.651892	0.155570
981.825692	0.156742
981.999472	0.157119
982.173235	0.158208
982.346980	0.160141
982.520706	0.160830
982.694414	0.163359
982.868104	0.161400
983.041775	0.160643
983.215428	0.160853
983.389064	0.159997
983.562680	0.160797
983.736279	0.160253
983.909860	0.158399
984.083422	0.159307
984.256966	0.158700
984.430491	0.159064
984.603999	0.160070
984.777488	0.159525
984.950959	0.159748
985.124412	0.157538
985.297847	0.158958
985.471263	0.158227
985.644661	0.156892
985.818041	0.157237
985.991403	0.157353
986.164747	0.157592
986.338072	0.161079
986.511379	0.159236
986.684668	0.161293
986.857938	0.161912
987.031191	0.162491
987.204425	0.163160
987.377641	0.161634
987.550839	0.163223
987.724018	0.161424
987.897179	0.161335
988.070322	0.161764
988.243447	0.161536
988.416554	0.158131
988.589642	0.159107
988.762712	0.158688
988.935764	0.159058
989.108798	0.156592
989.281813	0.159746
989.454811	0.158209
989.627790	0.158601
989.800751	0.160113
989.973693	0.162583
990.146617	0.161801
990.319524	0.160985
990.492412	0.160287
990.665281	0.163265
990.838133	0.161023
991.010966	0.161704
991.183781	0.163210
991.356578	0.161697
991.529356	0.160811
991.702117	0.162628
991.874859	0.162033
992.047583	0.162159
992.220288	0.162098
992.392976	0.164305
992.565645	0.163319
992.738296	0.163097
992.910929	0.162944
993.083543	0.163320
993.256139	0.161626
993.428718	0.163455
993.601277	0.163421
993.773819	0.161839
993.946342	0.159173
994.118848	0.160715
994.291335	0.159555
994.463803	0.160367
994.636254	0.158969
994.808686	0.158691
994.981100	0.159769
995.153496	0.161160
995.325874	0.161138
995.498233	0.162543
995.670574	0.163441
995.842897	0.163196
996.015202	0.161748
996.187488	0.162231
996.359757	0.162361
996.532007	0.162239
996.704239	0.161843
996.876452	0.160550
997.048648	0.162046
997.220825	0.159861
997.392984	0.158845
997.565124	0.158176
997.737247	0.158850
997.909351	0.157928
998.081437	0.156735
998.253505	0.157832
998.425554	0.159131
998.597586	0.156384
998.769599	0.155535
998.941594	0.158961
999.113571	0.159156
999.285529	0.157358
999.457469	0.158808
999.629391	0.158843
999.801295	0.156312
999.973181	0.156595
1000.145048	0.158246
1000.316897	0.160278
1000.488728	0.158144
1000.660541	0.158141
1000.832335	0.159366
1001.004111	0.158575
1001.175869	0.159154
1001.347609	0.159990
1001.519331	0.160721
1001.691034	0.159653
1001.862719	0.158269
1002.034386	0.159713
1002.206035	0.157588
1002.377665	0.159061
1002.549277	0.158714
1002.720871	0.157532
1002.892447	0.156862
1003.064004	0.156048
1003.235544	0.155748
1003.407065	0.155162
1003.578568	0.154111
1003.750052	0.158140
1003.921519	0.157684
1004.092967	0.158829
1004.264397	0.159987
1004.435809	0.161445
1004.607202	0.160051
1004.778577	0.159939
1004.949934	0.162513
1005.121273	0.162019
1005.292594	0.159125
1005.463896	0.159078
1005.635180	0.158642
1005.806446	0.157921
1005.977694	0.158934
1006.148923	0.160171
1006.320135	0.158794
1006.491328	0.158025
1006.662503	0.158566
1006.833659	0.159437
1007.004798	0.160149
1007.175918	0.159438
1007.347020	0.160905
1007.518103	0.160506
1007.689169	0.160210
1007.860216	0.161818
1008.031245	0.161624
1008.202256	0.161034
1008.373248	0.160938
1008.544223	0.159633
1008.715179	0.159152
1008.886117	0.157459
1009.057036	0.154255
1009.227938	0.154823
1009.398821	0.154668
1009.569686	0.153150
1009.740533	0.151858
1009.911361	0.151858
1010.082172	0.149706
1010.252964	0.150807
1010.423738	0.151708
1010.594493	0.154222
1010.765231	0.154055
1010.935950	0.154134
1011.106651	0.152320
1011.277334	0.154585
1011.447998	0.157216
1011.618645	0.159387
1011.789273	0.158604
1011.959882	0.158596
1012.130474	0.157540
1012.301048	0.156538
1012.471603	0.157263
1012.642140	0.161024
1012.812658	0.159374
1012.983159	0.157180
1013.153641	0.156541
1013.324105	0.156452
1013.494551	0.156028
1013.664979	0.157409
1013.835388	0.158757
1014.005779	0.158321
1014.176152	0.156365
1014.346507	0.157731
1014.516843	0.158804
1014.687162	0.159559
1014.857462	0.160944
1015.027744	0.161683
1015.198007	0.160044
1015.368252	0.156932
1015.538480	0.157230
1015.708689	0.157668
1015.878879	0.157916
1016.049052	0.157709
1016.219206	0.157206
1016.389342	0.153959
1016.559460	0.151690
1016.729559	0.152807
1016.899641	0.156255
1017.069704	0.154138
1017.239749	0.153765
1017.409775	0.153749
1017.579784	0.151827
1017.749774	0.152247
1017.919746	0.155654
1018.089700	0.156854
1018.259635	0.154993
1018.429553	0.154287
1018.599452	0.154833
1018.769333	0.155889
1018.939195	0.154266
1019.109040	0.155692
1019.278866	0.155446
1019.448674	0.154504
1019.618464	0.154957
1019.788235	0.156570
1019.957989	0.157362
1020.127724	0.157966
1020.297441	0.158624
1020.467139	0.158222
1020.636820	0.157780
1020.806482	0.158103
1020.976126	0.157418
1021.145752	0.156327
1021.315359	0.155693
1021.484948	0.154586
1021.654519	0.154271
1021.824072	0.151164
1021.993607	0.151543
1022.163123	0.150987
1022.332621	0.149822
1022.502101	0.151173
1022.671563	0.152343
1022.841007	0.153026
1023.010432	0.155875
1023.179839	0.155888
1023.349228	0.157548
1023.518598	0.159341
1023.687951	0.158921
1023.857285	0.159114
1024.026601	0.157420
1024.195899	0.157540
1024.365178	0.158023
1024.534439	0.155629
1024.703682	0.154383
1024.872907	0.153923
1025.042114	0.153442
1025.211302	0.153581
1025.380472	0.153531
1025.549624	0.153159
1025.718758	0.152424
1025.887873	0.151020
1026.056970	0.151426
1026.226049	0.152277
1026.395110	0.153099
1026.564153	0.153084
1026.733177	0.155377
1026.902183	0.155251
1027.071171	0.158795
1027.240141	0.157337
1027.409092	0.157806
1027.578026	0.155722
1027.746940	0.157022
1027.915837	0.155467
1028.084716	0.155999
1028.253576	0.155185
1028.422418	0.156490
1028.591242	0.153589
1028.760048	0.155764
1028.928835	0.155584
1029.097604	0.156690
1029.266355	0.154287
1029.435088	0.154689
1029.603803	0.154931
1029.772499	0.155177
1029.941177	0.153897
1030.109837	0.154891
1030.278478	0.154211
1030.447102	0.154992
1030.615707	0.155539
1030.784294	0.157060
1030.952863	0.158034
1031.121413	0.154934
1031.289945	0.154129
1031.458460	0.154459
1031.626955	0.154992
1031.795433	0.153046
1031.963892	0.153488
1032.132334	0.152142
1032.300756	0.152522
1032.469161	0.154172
1032.637548	0.155657
1032.805916	0.156119
1032.974266	0.155443
1033.142598	0.155850
1033.310911	0.158128
1033.479207	0.156954
1033.647484	0.157938
1033.815743	0.158792
1033.983983	0.157211
1034.152206	0.157953
1034.320410	0.158117
1034.488596	0.160362
1034.656764	0.158836
1034.824914	0.158314
1034.993045	0.159157
1035.161158	0.158539
1035.329253	0.157302
1035.497330	0.156767
1035.665388	0.157131
1035.833428	0.157507
1036.001450	0.154263
1036.169454	0.154561
1036.337440	0.156344
1036.505407	0.155252
1036.673356	0.156078
1036.841287	0.155186
1037.009200	0.153513
1037.177094	0.151791
1037.344970	0.150477
1037.512828	0.152313
1037.680668	0.150323
1037.848489	0.148088
1038.016293	0.147160
1038.184078	0.147207
1038.351845	0.149057
1038.519593	0.150729
1038.687324	0.150077
1038.855036	0.149278
1039.022730	0.148931
1039.190406	0.150560
1039.358063	0.151675
1039.525702	0.152059
1039.693323	0.149863
1039.860926	0.149893
1040.028511	0.147844
1040.196077	0.149950
1040.363625	0.150216
1040.531155	0.151730
1040.698667	0.151359
1040.866161	0.152126
1041.033636	0.152428
1041.201093	0.154407
1041.368532	0.154355
1041.535952	0.155220
1041.703355	0.154860
1041.870739	0.154634
1042.038105	0.153468
1042.205452	0.154047
1042.372782	0.152657
1042.540093	0.153779
1042.707386	0.153357
1042.874661	0.153792
1043.041918	0.155612
1043.209156	0.155335
1043.376376	0.156901
1043.543578	0.158787
1043.710762	0.159255
1043.877927	0.160481
1044.045074	0.159563
1044.212203	0.159873
1044.379314	0.160324
1044.546407	0.160450
1044.713481	0.159792
1044.880537	0.158372
1045.047575	0.154986
1045.214595	0.153774
1045.381596	0.150824
1045.548579	0.150482
1045.715544	0.149051
1045.882491	0.147425
1046.049420	0.147259
1046.216330	0.147076
1046.383222	0.148798
1046.550096	0.151440
1046.716951	0.153637
1046.883789	0.153663
1047.050608	0.153827
1047.217409	0.154036
1047.384192	0.155044
1047.550956	0.155152
1047.717703	0.158694
1047.884431	0.157286
1048.051140	0.155975
1048.217832	0.155013
1048.384505	0.155751
1048.551161	0.155557
1048.717798	0.156255
1048.884416	0.157392
1049.051017	0.157091
1049.217599	0.155408
1049.384163	0.156366
1049.550709	0.156304
1049.717237	0.157463
1049.883746	0.158274
1050.050237	0.158935
1050.216710	0.161464
1050.383165	0.157811
1050.549601	0.156226
1050.716019	0.154688
1050.882420	0.153343
1051.048801	0.154339
1051.215165	0.151623
1051.381510	0.151016
1051.547837	0.150590
1051.714146	0.148121
1051.880437	0.150244
1052.046709	0.151309
1052.212964	0.149888
1052.379200	0.151239
1052.545417	0.150189
1052.711617	0.152033
1052.877798	0.152816
1053.043961	0.153010
1053.210106	0.152158
1053.376233	0.152038
1053.542341	0.150657
1053.708432	0.152044
1053.874504	0.151822
1054.040557	0.152450
1054.206593	0.152877
1054.372610	0.154845
1054.538609	0.153687
1054.704590	0.156383
1054.870553	0.153519
1055.036497	0.156094
1055.202424	0.156863
1055.368331	0.155529
1055.534221	0.156828
1055.700093	0.154500
1055.865946	0.151546
1056.031781	0.154212
1056.197598	0.153462
1056.363397	0.156185
1056.529177	0.156521
1056.694939	0.156120
1056.860683	0.157800
1057.026409	0.156281
1057.192116	0.158906
1057.357806	0.161401
1057.523477	0.160130
1057.689130	0.159490
1057.854764	0.159989
1058.020381	0.158436
1058.185979	0.159316
1058.351559	0.158437
1058.517120	0.158748
1058.682664	0.157928
1058.848189	0.156806
1059.013696	0.156580
1059.179185	0.156487
1059.344656	0.154460
1059.510108	0.156412
1059.675542	0.156990
1059.840958	0.159111
1060.006356	0.159861
1060.171735	0.157589
1060.337096	0.158204
1060.502439	0.159679
1060.667764	0.161470
1060.833071	0.163048
1060.998359	0.159948
1061.163629	0.159974
1061.328881	0.160481
1061.494115	0.159473
1061.659330	0.163733
1061.824527	0.162078
1061.989706	0.162150
1062.154867	0.162326
1062.320010	0.161247
1062.485134	0.164185
1062.650240	0.164679
1062.815328	0.162255
1062.980398	0.162196
1063.145449	0.159994
1063.310482	0.162164
1063.475497	0.160371
1063.640494	0.159818
1063.805473	0.160781
1063.970433	0.158528
1064.135375	0.158408
1064.300299	0.158136
1064.465204	0.157275
1064.630092	0.154955
1064.794961	0.153161
1064.959812	0.153904
1065.124645	0.151612
1065.289459	0.150544
1065.454256	0.152079
1065.619034	0.150770
1065.783793	0.151730
1065.948535	0.153206
1066.113258	0.156860
1066.277964	0.156340
1066.442651	0.156543
1066.607319	0.158382
1066.771970	0.159998
1066.936602	0.162351
1067.101216	0.163041
1067.265812	0.164207
1067.430389	0.164020
1067.594949	0.162888
1067.759490	0.164491
1067.924013	0.164077
1068.088518	0.162627
1068.253004	0.162714
1068.417472	0.160309
1068.581922	0.162077
1068.746354	0.162456
1068.910768	0.160021
1069.075163	0.159524
1069.239540	0.158039
1069.403899	0.157725
1069.568240	0.157502
1069.732562	0.157363
1069.896866	0.157578
1070.061152	0.155411
1070.225420	0.153642
1070.389670	0.156244
1070.553901	0.159310
1070.718114	0.159645
1070.882309	0.162160
1071.046486	0.162044
1071.210644	0.164102
1071.374784	0.163779
1071.538906	0.164084
1071.703010	0.165173
1071.867096	0.165150
1072.031163	0.162245
1072.195212	0.163932
1072.359243	0.163474
1072.523256	0.166481
1072.687250	0.164146
1072.851226	0.163801
1073.015184	0.162723
1073.179124	0.162949
1073.343045	0.163344
1073.506949	0.162426
1073.670834	0.161721
1073.834701	0.162295
1073.998549	0.161371
1074.162380	0.162522
1074.326192	0.166663
1074.489986	0.168345
1074.653761	0.168792
1074.817519	0.169305
1074.981258	0.171780
1075.144979	0.169835
1075.308682	0.168942
1075.472367	0.168654
1075.636033	0.166578
1075.799681	0.162988
1075.963311	0.161888
1076.126923	0.160663
1076.290516	0.159073
1076.454092	0.158780
1076.617649	0.161205
1076.781187	0.158258
1076.944708	0.163350
1077.108210	0.165820
1077.271695	0.166036
1077.435160	0.165817
1077.598608	0.165788
1077.762038	0.167721
1077.925449	0.166805
1078.088842	0.166785
1078.252217	0.169339
1078.415573	0.165692
1078.578912	0.165542
1078.742232	0.165064
1078.905534	0.165290
1079.068817	0.166054
1079.232083	0.165877
1079.395330	0.164252
1079.558559	0.161954
1079.721770	0.163293
1079.884962	0.161878
1080.048136	0.161985
1080.211293	0.164126
1080.374430	0.166876
1080.537550	0.167931
1080.700651	0.165451
1080.863735	0.168054
1081.026800	0.170835
1081.189846	0.169741
1081.352875	0.169609
1081.515885	0.169625
1081.678877	0.170941
1081.841851	0.171795
1082.004807	0.170430
1082.167744	0.173082
1082.330663	0.170643
1082.493564	0.171245
1082.656447	0.169637
1082.819312	0.168561
1082.982158	0.167758
1083.144986	0.166448
1083.307796	0.163710
1083.470587	0.166315
1083.633361	0.166594
1083.796116	0.168951
1083.958853	0.165854
1084.121571	0.167839
1084.284272	0.168751
1084.446954	0.170200
1084.609618	0.169591
1084.772264	0.170561
1084.934892	0.168746
1085.097501	0.167043
1085.260092	0.169664
1085.422665	0.171273
1085.585220	0.171825
1085.747756	0.172438
1085.910274	0.172497
1086.072774	0.171853
1086.235256	0.170135
1086.397720	0.170579
1086.560165	0.174715
1086.722592	0.174036
1086.885001	0.175951
1087.047392	0.177656
1087.209764	0.180424
1087.372119	0.183156
1087.534455	0.183881
1087.696772	0.185062
1087.859072	0.185255
1088.021353	0.182524
1088.183616	0.182141
1088.345861	0.180861
1088.508088	0.180501
1088.670296	0.177494
1088.832486	0.175314
1088.994658	0.179178
1089.156812	0.180108
1089.318948	0.176932
1089.481065	0.177086
1089.643164	0.174573
1089.805245	0.174434
1089.967308	0.172646
1090.129352	0.172846
1090.291378	0.172953
1090.453386	0.168515
1090.615376	0.169551
1090.777347	0.172217
1090.939301	0.174405
1091.101236	0.179209
1091.263153	0.182446
1091.425051	0.184700
1091.586932	0.185646
1091.748794	0.187205
1091.910638	0.190476
1092.072463	0.185748
1092.234271	0.183870
1092.396060	0.181407
1092.557831	0.178606
1092.719584	0.177278
1092.881319	0.173687
1093.043035	0.173531
1093.204733	0.169161
1093.366413	0.167047
1093.528075	0.170183
1093.689718	0.175379
1093.851343	0.174528
1094.012950	0.178291
1094.174539	0.176596
1094.336110	0.176294
1094.497662	0.180930
1094.659196	0.184768
1094.820712	0.187725
1094.982210	0.190477
1095.143689	0.188914
1095.305151	0.189107
1095.466594	0.184676
1095.628018	0.188523
1095.789425	0.189955
1095.950813	0.184342
1096.112183	0.182889
1096.273535	0.180879
1096.434869	0.180293
1096.596184	0.176262
1096.757482	0.179181
1096.918761	0.177749
1097.080021	0.173410
1097.241264	0.175569
1097.402488	0.176038
1097.563694	0.177595
1097.724882	0.176165
1097.886052	0.179758
1098.047203	0.184192
1098.208336	0.181038
1098.369451	0.181941
1098.530548	0.181869
1098.691627	0.181700
1098.852687	0.187140
1099.013729	0.184770
1099.174753	0.184902
1099.335758	0.178345
1099.496746	0.175222
1099.657715	0.176076
1099.818666	0.177188
1099.979599	0.179613
1100.140513	0.181020
1100.301409	0.176416
1100.462287	0.174909
1100.623147	0.175281
1100.783989	0.175814
1100.944812	0.178693
1101.105617	0.182180
1101.266404	0.181145
1101.427173	0.182580
1101.587923	0.180504
1101.748656	0.179710
1101.909370	0.182326
1102.070066	0.180682
1102.230743	0.182208
1102.391403	0.182595
1102.552044	0.178431
1102.712667	0.176107
1102.873271	0.176158
1103.033858	0.176856
1103.194426	0.179929
1103.354976	0.178881
1103.515508	0.184326
1103.676021	0.186039
1103.836517	0.188767
1103.996994	0.192064
1104.157453	0.198398
1104.317893	0.199491
1104.478316	0.199361
1104.638720	0.198057
1104.799106	0.198570
1104.959474	0.193240
1105.119823	0.188961
1105.280155	0.183168
1105.440468	0.183690
1105.600763	0.188903
1105.761039	0.189854
1105.921298	0.189861
1106.081538	0.192288
1106.241760	0.197609
1106.401964	0.202035
1106.562149	0.203142
1106.722316	0.210292
1106.882465	0.208109
1107.042596	0.202087
1107.202709	0.198402
1107.362803	0.201984
1107.522879	0.202673
1107.682937	0.198775
1107.842977	0.196417
1108.002999	0.198046
1108.163002	0.192174
1108.322987	0.193463
1108.482954	0.190248
1108.642902	0.193848
1108.802833	0.195044
1108.962745	0.192316
1109.122639	0.188482
1109.282515	0.188429
1109.442372	0.184345
1109.602211	0.181976
1109.762032	0.180857
1109.921835	0.181380
1110.081620	0.179587
1110.241386	0.173714
1110.401134	0.172937
1110.560864	0.177957
1110.720576	0.175742
1110.880269	0.180588
1111.039945	0.185858
1111.199602	0.185091
1111.359240	0.181043
1111.518861	0.177206
1111.678463	0.179737
1111.838047	0.179389
1111.997613	0.182023
1112.157161	0.185647
1112.316690	0.186769
1112.476202	0.182615
1112.635695	0.182872
1112.795169	0.189658
1112.954626	0.193305
1113.114064	0.193246
1113.273484	0.196180
1113.432886	0.192157
1113.592270	0.192997
1113.751635	0.187766
1113.910983	0.189084
1114.070312	0.194377
1114.229622	0.196875
1114.388915	0.199869
1114.548189	0.201195
1114.707445	0.198563
1114.866683	0.199706
1115.025903	0.200292
1115.185104	0.205663
1115.344287	0.210145
1115.503452	0.206309
1115.662599	0.200077
1115.821727	0.199762
1115.980838	0.198718
1116.139930	0.199258
1116.299004	0.199649
1116.458059	0.198442
1116.617097	0.200463
1116.776116	0.198783
1116.935117	0.200474
1117.094099	0.205645
1117.253064	0.201652
1117.412010	0.201825
1117.570938	0.205878
1117.729848	0.206653
1117.888740	0.206854
1118.047613	0.206311
1118.206468	0.207817
1118.365305	0.208040
1118.524124	0.210001
1118.682924	0.207850
1118.841707	0.210092
1119.000471	0.205554
1119.159216	0.203843
1119.317944	0.203456
1119.476653	0.198140
1119.635344	0.199095
1119.794017	0.200239
1119.952672	0.193846
1120.111308	0.198188
1120.269927	0.192223
1120.428527	0.194759
1120.587108	0.194368
1120.745672	0.197408
1120.904217	0.202256
1121.062744	0.203064
1121.221253	0.206033
1121.379744	0.210871
1121.538216	0.208085
1121.696671	0.211936
1121.855107	0.215302
1122.013524	0.218919
1122.171924	0.212345
1122.330305	0.208417
1122.488668	0.206150
1122.647013	0.205319
1122.805340	0.207958
1122.963648	0.208678
1123.121938	0.209206
1123.280210	0.203216
1123.438464	0.197102
1123.596700	0.199459
1123.754917	0.202827
1123.913116	0.202369
1124.071297	0.195397
1124.229459	0.198419
1124.387604	0.205164
1124.545730	0.199327
1124.703838	0.208018
1124.861928	0.215222
1125.019999	0.217608
1125.178052	0.215247
1125.336088	0.209183
1125.494104	0.213859
1125.652103	0.211226
1125.810083	0.207627
1125.968045	0.209027
1126.125989	0.205613
1126.283915	0.206793
1126.441823	0.204428
1126.599712	0.204285
1126.757583	0.219737
1126.915436	0.219771
1127.073270	0.214278
1127.231087	0.213604
1127.388885	0.216982
1127.546665	0.210241
1127.704426	0.209601
1127.862170	0.214734
1128.019895	0.220445
1128.177602	0.213114
1128.335291	0.211704
1128.492961	0.219158
1128.650614	0.222808
1128.808248	0.227473
1128.965864	0.233878
1129.123461	0.232597
1129.281041	0.231717
1129.438602	0.227791
1129.596145	0.221460
1129.753670	0.221918
1129.911176	0.221150
1130.068665	0.216212
1130.226135	0.214812
1130.383587	0.209870
1130.541020	0.208148
1130.698436	0.201026
1130.855833	0.201196
1131.013212	0.206896
1131.170573	0.211555
1131.327915	0.214213
1131.485239	0.209837
1131.642545	0.202930
1131.799833	0.205695
1131.957103	0.209510
1132.114354	0.212244
1132.271588	0.212077
1132.428803	0.205689
1132.585999	0.206859
1132.743178	0.197699
1132.900338	0.201413
1133.057480	0.205785
1133.214604	0.203152
1133.371710	0.196937
1133.528797	0.198860
1133.685866	0.194148
1133.842917	0.199405
1133.999950	0.187766
1134.156964	0.191748
1134.313960	0.195087
1134.470938	0.194334
1134.627898	0.199092
1134.784840	0.204774
1134.941763	0.205684
1135.098668	0.211332
1135.255555	0.218257
1135.412424	0.227843
1135.569274	0.215331
1135.726107	0.213839
1135.882921	0.218071
1136.039716	0.213090
1136.196494	0.206135
1136.353253	0.205484
1136.509995	0.198872
1136.666717	0.187576
1136.823422	0.186821
1136.980109	0.202477
1137.136777	0.203187
1137.293427	0.200024
1137.450059	0.202845
1137.606672	0.201089
1137.763267	0.204459
1137.919844	0.209841
1138.076403	0.218274
1138.232944	0.215172
1138.389466	0.209963
1138.545971	0.216789
1138.702457	0.220675
1138.858924	0.214740
1139.015374	0.219083
1139.171805	0.217836
1139.328218	0.218329
1139.484613	0.212984
1139.640990	0.210463
1139.797348	0.214108
1139.953688	0.206651
1140.110010	0.197873
1140.266314	0.207805
1140.422600	0.205421
1140.578867	0.205988
1140.735116	0.203518
1140.891347	0.207111
1141.047559	0.213452
1141.203754	0.195741
1141.359930	0.196863
1141.516088	0.200937
1141.672228	0.205074
1141.828349	0.211859
1141.984452	0.213795
1142.140537	0.215661
1142.296604	0.205435
1142.452653	0.200150
1142.608683	0.210503
1142.764695	0.210090
1142.920689	0.207848
1143.076665	0.199050
1143.232622	0.195236
1143.388562	0.195756
1143.544483	0.189890
1143.700385	0.201198
1143.856270	0.199427
1144.012136	0.202603
1144.167985	0.201643
1144.323814	0.207137
1144.479626	0.211432
1144.635420	0.219065
1144.791195	0.215530
1144.946952	0.219694
1145.102691	0.219820
1145.258411	0.228226
1145.414113	0.232314
1145.569798	0.234087
1145.725463	0.226848
1145.881111	0.230001
1146.036741	0.225302
1146.192352	0.234267
1146.347945	0.244535
1146.503519	0.237973
1146.659076	0.236257
1146.814614	0.229696
1146.970134	0.222881
1147.125636	0.229434
1147.281120	0.219149
1147.436585	0.222768
1147.592032	0.223763
1147.747461	0.220721
1147.902872	0.225698
1148.058265	0.233389
1148.213639	0.237366
1148.368995	0.242544
1148.524333	0.233954
1148.679653	0.244494
1148.834954	0.240981
1148.990237	0.224175
1149.145502	0.229825
1149.300749	0.224197
1149.455977	0.217670
1149.611188	0.213963
1149.766380	0.220447
1149.921553	0.235930
1150.076709	0.229660
1150.231846	0.231115
1150.386966	0.238259
1150.542066	0.234247
1150.697149	0.232243
1150.852214	0.242595
1151.007260	0.247321
1151.162288	0.243049
1151.317298	0.239242
1151.472289	0.243348
1151.627263	0.229201
1151.782218	0.226103
1151.937155	0.225026
1152.092073	0.223181
1152.246974	0.213851
1152.401856	0.219690
1152.556720	0.210021
1152.711566	0.205579
1152.866393	0.197980
1153.021203	0.204156
1153.175994	0.212093
1153.330767	0.203636
1153.485521	0.204867
1153.640258	0.200925
1153.794976	0.197838
1153.949676	0.203070
1154.104358	0.211127
1154.259021	0.216336
1154.413667	0.220268
1154.568294	0.220673
1154.722903	0.214387
1154.877493	0.224690
1155.032066	0.227895
1155.186620	0.225885
1155.341156	0.223899
1155.495674	0.219637
1155.650173	0.229552
1155.804654	0.228733
1155.959118	0.218656
1156.113562	0.234036
1156.267989	0.223092
1156.422397	0.222545
1156.576788	0.222348
1156.731160	0.225995
1156.885513	0.236554
1157.039849	0.228989
1157.194166	0.234146
1157.348465	0.235411
1157.502746	0.226989
1157.657009	0.236659
1157.811253	0.239871
1157.965479	0.230663
1158.119687	0.233069
1158.273877	0.221952
1158.428048	0.219771
1158.582201	0.224106
1158.736337	0.219135
1158.890453	0.215452
1159.044552	0.207481
1159.198632	0.201616
1159.352694	0.202273
1159.506738	0.196091
1159.660764	0.193842
1159.814771	0.194565
1159.968761	0.193044
1160.122732	0.205568
1160.276685	0.234343
1160.430619	0.240785
1160.584535	0.240069
1160.738434	0.250228
1160.892313	0.265077
1161.046175	0.270582
1161.200019	0.273821
1161.353844	0.251466
1161.507651	0.242818
1161.661440	0.209820
1161.815210	0.207429
1161.968962	0.216326
1162.122697	0.215354
1162.276412	0.208169
1162.430110	0.218137
1162.583789	0.223475
1162.737451	0.217804
1162.891094	0.215403
1163.044718	0.218209
1163.198325	0.231483
1163.351913	0.220735
1163.505483	0.216642
1163.659035	0.208200
1163.812569	0.193762
1163.966084	0.188427
1164.119581	0.207480
1164.273060	0.224935
1164.426521	0.245905
1164.579964	0.242572
1164.733388	0.238895
1164.886794	0.232239
1165.040182	0.235462
1165.193551	0.249126
1165.346903	0.245730
1165.500236	0.232167
1165.653551	0.204346
1165.806848	0.194064
1165.960126	0.183644
1166.113386	0.188027
1166.266628	0.192497
1166.419852	0.210772
1166.573058	0.204016
1166.726245	0.198187
1166.879414	0.221961
1167.032565	0.240355
1167.185698	0.246165
1167.338812	0.252189
1167.491909	0.251064
1167.644987	0.249851
1167.798046	0.222666
1167.951088	0.213431
1168.104111	0.213062
1168.257117	0.203791
1168.410103	0.194894
1168.563072	0.194104
1168.716023	0.198222
1168.868955	0.195459
1169.021869	0.187372
1169.174765	0.206129
1169.327642	0.217853
1169.480501	0.218182
1169.633343	0.233946
1169.786165	0.255826
1169.938970	0.268588
1170.091757	0.274680
1170.244525	0.282806
1170.397275	0.294843
1170.550007	0.292033
1170.702720	0.283462
1170.855415	0.281747
1171.008092	0.259425
1171.160751	0.243241
1171.313392	0.226666
1171.466014	0.167422
1171.618619	0.211149
1171.771205	0.211149
1171.923772	0.211149
