sample name	sample
index	1177
start time	 04-26-2021  11:27:36 AM
880	0.359538
Peak Time (s)	92.035
Peak Height 	0.3595
calc peak height	90,93
Baseline Time (s)	9.037
Baseline Value 	-0.003703
subtract baseline	10,4
Abs	0.304124
Peak Time (s)	91.037
Peak Height 	0.3041
calc peak height	90,93
Baseline Time (s)	10.037
Baseline Value 	0.002807
subtract baseline	10,3
PK_550	0.173160
Peak Time (s)	92.535
Peak Height 	0.1732
calc peak height	90,93
Baseline Time (s)	10.534
Baseline Value 	3.938E-4
subtract baseline	10,2
PK_880	0.295453
Peak Time (s)	92.535
Peak Height 	0.2955
calc peak height	90,93
Baseline Time (s)	9.037
Baseline Value 	3.585E-4
subtract baseline	10,1


Time (s)	A880-A510	A880-A775	A880-A975	A880	I510	I775	I975	I880	
0.036000	-0.002809	0.000131	-0.006308	0.007984	6097.302889	43324.416630	3823.587691	22393.237045
0.537500	-0.001093	0.000052	-0.001662	0.005561	6128.155700	43543.156874	3839.561932	22502.474423
1.034500	0.000910	-0.000664	-0.009145	0.004237	6153.170459	43600.129835	3825.629572	22562.434860
1.535000	-0.002262	-0.000621	-0.001907	0.004885	6124.470966	43543.449112	3840.545114	22533.086609
2.035000	-0.001479	-0.000465	0.001666	0.002974	6144.682679	43737.431066	3853.129291	22619.814563
2.535000	-0.000970	0.000022	0.000590	0.001696	6158.159823	43903.723026	3853.596163	22678.014380
3.036000	0.000993	-0.000702	0.000138	-0.000976	6193.380836	44087.991531	3858.737486	22800.277060
3.539000	-0.004008	-0.000353	-0.002956	0.004456	6114.629099	43608.723952	3839.132534	22552.520556
4.037000	-0.000938	-0.000017	-0.004657	0.000915	6164.312410	43973.841095	3843.331403	22713.684711
4.537000	-0.000544	-0.000107	-0.002174	0.000634	6169.430187	43991.888704	3849.671389	22726.521677
5.036000	0.000982	0.000686	0.004099	0.001181	6176.856278	44015.088755	3862.934392	22701.501512
5.537500	0.001899	0.000235	-0.001736	0.000557	6188.594639	44031.503930	3850.856162	22730.032658
6.035000	0.002366	0.000218	-0.002942	0.000621	6191.663941	44023.785357	3847.934399	22727.096821
6.535000	-0.001810	0.000280	-0.002728	0.000260	6162.668443	44063.930384	3849.256211	22743.609099
7.035000	0.000416	0.000957	0.003435	0.001432	6170.657444	44017.055359	3860.805514	22690.066274
7.536000	0.000627	0.000648	0.001938	0.000858	6176.619068	44042.137491	3858.660247	22716.292611
8.036500	0.001232	0.001318	-0.009333	0.000923	6180.720216	44099.505395	3832.676854	22713.297002
8.536000	0.000804	-0.000644	-0.003038	-0.000623	6189.245249	44060.068644	3850.577040	22784.084782
9.037000	0.000000	-0.000077	-0.002394	0.000000	6178.372425	44054.757192	3850.623844	22755.531075
9.536500	0.000073	0.000316	0.001094	0.000343	6176.319801	44059.478765	3857.895474	22739.827302
10.037000	-0.000563	0.000615	0.000000	0.000739	6168.482138	44050.313941	3854.443735	22721.710854
10.534500	-0.000847	0.000000	-0.003026	-0.000343	6174.536748	44094.547816	3849.958171	22771.235750
11.035500	-0.000218	-0.000279	0.001622	-0.000376	6179.580166	44071.301897	3860.793567	22772.779758
11.535500	0.002002	0.000518	0.002107	0.000376	6190.755715	44075.456920	3860.170945	22738.304229
12.035500	-0.000604	-0.000117	-0.001408	-0.000109	6174.605031	44061.258508	3853.150550	22760.512003
12.536000	-0.001818	0.000005	0.001363	-0.000290	6166.767764	44089.935173	3859.989271	22768.795702
13.039000	0.000968	0.000290	0.003634	-0.001948	6200.624609	44274.688746	3869.167843	22844.947277
13.539500	0.000293	0.000216	-0.000925	-0.000330	6183.114698	44113.897552	3854.778904	22770.671107
14.050000	-0.002822	0.000014	0.001595	0.003192	6132.955682	43761.952397	3852.461586	22609.898213
14.537000	-0.000376	0.000108	-0.000437	0.002356	6157.667072	43849.554125	3849.707607	22647.951049
15.037500	0.000471	0.000429	-0.003511	0.000958	6174.674845	44011.947833	3845.857661	22711.724743
15.550500	0.002153	0.000607	0.004249	0.000139	6193.724422	44106.496980	3865.720527	22749.179521
16.035500	-0.003986	0.000257	0.001545	0.004414	6115.101691	43669.892587	3849.529617	22554.403003
16.535500	-0.000406	-0.000306	0.002909	-0.000364	6178.058385	44067.615060	3863.764079	22772.223387
17.036000	-0.000393	-0.000306	-0.002322	-0.000625	6180.135319	44092.285971	3852.230406	22784.164795
17.539000	-0.000558	0.000763	-0.002967	0.003173	6150.122106	43834.248265	3842.033795	22610.757737
18.036500	0.000843	0.000247	0.000675	0.002380	6166.708424	43860.338821	3852.213502	22646.838995
18.537000	-0.001246	0.000111	-0.000890	0.001170	6160.047226	43961.766229	3851.394557	22702.025308
19.037000	-0.000624	0.000306	0.000180	0.001094	6165.334572	43987.438019	3854.038695	22705.494359
19.537000	0.000059	-0.000066	-0.000691	0.001520	6167.283736	43911.956056	3851.046925	22686.044404
20.034500	-0.000625	0.000439	0.001743	0.002540	6154.391984	43863.330585	3854.310225	22639.547454
20.535000	-0.002989	0.000663	-0.001023	0.001464	6144.681197	43986.165501	3850.410996	22688.601559
21.035500	0.000638	-0.000333	0.003700	0.001330	6173.110870	43904.654344	3861.657062	22694.697215
21.536000	-0.000427	0.000935	-0.003065	0.002300	6157.701164	43932.861285	3843.805419	22650.488469
22.036000	-0.001748	0.000148	0.001570	0.001967	6150.242267	43890.053592	3855.236687	22665.665170
22.536000	0.000502	0.001438	-0.002207	0.001829	6168.297647	44024.979158	3846.850018	22671.951842
23.036500	0.000620	0.000256	-0.003124	0.001751	6169.780394	43920.591537	3844.925639	22675.491006
23.536500	0.000323	0.001230	-0.001207	0.001867	6166.646911	44001.684570	3849.057856	22670.197447
24.037500	-0.001803	0.000605	0.006314	0.001658	6152.154670	43962.339463	3866.995086	22679.724736
24.537500	-0.001406	0.000508	-0.001890	0.001502	6156.328103	43967.891480	3848.327872	22686.847134
25.035000	0.001353	0.000463	0.003958	0.001987	6173.553323	43917.814082	3860.728120	22664.725359
25.537500	-0.002135	0.000792	0.002273	0.001434	6151.340567	44001.300851	3858.101110	22689.980396
26.035500	-0.001485	0.000699	0.002729	0.001992	6152.040290	43939.692632	3857.863543	22664.533143
26.536000	-0.001808	-0.000013	0.002715	0.000930	6157.616528	43972.767357	3860.297914	22712.992345
27.038500	-0.002534	0.001310	-0.001082	0.002085	6143.431657	43988.686551	3848.846884	22660.285970
27.536000	-0.001166	0.000407	0.000838	0.001287	6159.771279	43978.678868	3855.115571	22696.675109
28.036500	0.000083	0.000769	0.006034	0.000730	6173.459249	44065.785329	3868.516594	22722.145641
28.537000	-0.000615	0.000993	0.004474	0.000458	6170.218499	44112.748722	3865.498969	22734.557206
29.067500	0.000094	0.001240	0.000655	0.000566	6174.785224	44125.951417	3856.361194	22729.622960
29.537500	-0.001392	0.000633	-0.002410	0.005882	6123.521336	43567.544353	3837.131313	22487.988103
30.035000	-0.001999	0.000128	0.002783	0.000123	6162.277573	44062.537839	3862.336266	22749.914781
30.535500	0.000440	0.000614	-0.000221	0.000314	6179.329912	44090.480557	3854.915117	22741.146787
31.035500	0.001079	0.000964	0.003786	0.000578	6182.184386	44098.616852	3863.610962	22729.061990
31.536000	-0.002548	0.001463	0.000957	0.005208	6119.917187	43708.653674	3846.356173	22518.473528
32.036500	-0.000824	0.000172	0.001619	0.002597	6152.457248	43832.853907	3853.892791	22636.967256
32.536000	-0.000248	0.000254	-0.001560	-0.000343	6179.093048	44118.650437	3853.339213	22771.255692
33.036500	0.001451	0.000067	0.003010	-0.000204	6190.980672	44087.697499	3863.626592	22764.873786
33.537500	-0.000619	0.001043	-0.004893	0.006825	6122.239780	43517.627192	3829.373876	22445.401125
34.037500	-0.000417	-0.000483	0.001267	0.003774	6146.657091	43660.508382	3850.365087	22583.462093
34.534500	0.001990	0.000683	-0.002957	-0.001976	6208.664797	44314.764101	3853.882497	22846.206120
35.038000	-0.000123	0.000855	0.001542	0.001938	6162.741123	43959.514033	3855.237290	22666.988206
35.535500	-0.003078	-0.000008	-0.001826	0.003460	6129.028155	43734.634055	3843.985285	22597.712730
36.035500	-0.003390	0.000324	0.000306	0.002585	6133.245117	43848.285396	3850.888472	22637.486058
36.539000	-0.002730	0.000620	0.004503	0.002245	6140.755004	43908.310419	3861.399441	22653.005795
37.036000	-0.000643	0.000212	0.001086	0.001608	6161.295926	43929.961331	3854.945998	22682.025542
37.536500	-0.002503	-0.000395	0.001712	0.002038	6144.012454	43832.006508	3855.397619	22662.400036
38.037000	-0.000999	0.000750	-0.000839	0.002599	6151.130828	43887.186030	3848.223660	22636.885380
38.537000	-0.000187	0.000916	-0.001241	0.002552	6157.609314	43907.264329	3847.405764	22638.985638
39.037500	0.000038	0.001256	0.003182	0.002977	6156.096427	43899.222847	3856.631071	22619.677903
39.535000	0.001560	0.000948	-0.003488	0.003216	6165.799654	43847.572745	3840.745258	22608.775183
40.035000	-0.002292	0.000931	0.001326	0.002907	6139.071263	43875.123797	3852.498407	22622.826776
40.536000	0.000320	0.000563	0.001264	0.002968	6158.292732	43834.711764	3852.213880	22620.055538
41.036500	-0.000657	-0.000130	-0.002306	0.001471	6162.232068	43910.531833	3847.443188	22688.279304
41.536500	-0.000305	0.000778	0.004578	0.002457	6157.436878	43903.244861	3861.079144	22643.336621
42.036500	-0.000468	0.000746	0.003295	0.002248	6157.786987	43919.931309	3858.583320	22652.861833
42.536500	-0.000813	0.000181	0.004761	0.002112	6156.197714	43879.385242	3862.307552	22659.030947
43.037000	-0.001974	0.000394	-0.000299	0.001842	6149.475497	43925.035227	3851.207477	22671.346017
43.537000	0.000593	0.000824	-0.005072	0.002195	6166.215822	43932.297352	3839.461851	22655.263860
44.034500	-0.000043	0.000926	-0.000614	0.002940	6155.765588	43871.556236	3847.954987	22621.341394
44.535000	-0.000076	0.001080	0.001147	0.002294	6160.403955	43947.133268	3853.501126	22650.774957
45.035500	0.000603	0.001097	0.009511	-0.002303	6200.545802	44385.632726	3883.894653	22861.299043
45.535500	0.003160	0.000856	0.002325	0.000588	6197.990595	44087.490093	3860.185749	22728.626058
46.069000	-0.001416	0.000790	-0.002837	0.001473	6156.477119	43997.382659	3846.220631	22688.200102
46.536500	-0.001077	0.000552	0.002874	-0.000267	6172.215193	44139.711397	3863.456262	22767.747507
47.036500	-0.000908	0.000227	0.002784	-0.000036	6171.751643	44086.962819	3862.707945	22757.187196
47.537000	-0.003159	0.000365	0.002532	0.004763	6118.671501	43647.276225	3850.999587	22538.590187
48.040000	-0.002004	0.000471	0.001529	0.006085	6117.428039	43533.301426	3845.656002	22478.806172
48.537500	-0.000579	0.000534	0.002650	0.002355	6156.139413	43889.871913	3856.839117	22647.993011
49.035000	-0.002293	0.001259	0.004132	0.003368	6135.600863	43862.634230	3857.925461	22601.877996
49.535500	-0.002905	0.000003	-0.000106	0.003674	6128.722465	43715.535560	3847.437920	22587.997800
50.035500	-0.003656	0.000561	0.001009	0.005365	6110.479629	43609.154876	3846.114611	22511.343668
50.538000	0.001390	0.000376	0.001864	-0.000321	6191.405189	44128.144725	3861.226029	22770.217554
51.039000	0.004658	0.001068	0.005117	-0.001541	6225.852268	44310.056957	3871.694635	22826.225845
51.536500	0.001356	0.000801	0.001506	0.002324	6171.020695	43917.930501	3854.260184	22649.383999
52.039500	0.000157	-0.000678	0.000912	0.009320	6109.423622	43125.224245	3836.867598	22333.274714
52.536500	0.029457	-0.022778	0.011222	0.604498	3754.354489	12608.219398	3106.837100	7811.212266
53.037500	0.001168	-0.024543	-0.022607	-0.050121	6592.379037	46559.267964	3921.945845	25188.524927
53.535000	0.002749	-0.033863	-0.009719	-0.145067	7517.450372	56074.826283	4224.003453	30643.038764
54.035000	-0.017185	-0.038139	-0.016962	-0.164153	7508.405512	57919.592142	4261.981539	31890.965794
54.535500	0.010836	-0.062064	0.011539	-0.231715	8648.914299	63735.314336	4611.484169	36776.286594
55.035000	0.034182	-0.033917	0.035788	-0.162341	8068.353821	58225.740734	4437.667803	31770.080295
55.535500	0.041702	-0.018891	0.045867	-0.031930	6788.598182	45316.751598	4053.501185	24272.882982
56.036500	0.042784	-0.007999	0.043433	0.008040	6453.454278	42569.599580	3941.568975	22390.742281
56.536500	0.061292	0.006968	0.059052	0.032368	6405.822159	41723.539816	3919.899765	21327.104843
57.037000	0.092566	0.022115	0.093107	0.046620	6546.934823	41803.705156	3969.806804	20731.170487
57.537000	0.122806	0.043245	0.126233	0.082413	6500.281139	40511.935244	3962.949527	19317.862390
58.038000	0.161695	0.067213	0.158897	0.121357	6499.827767	39237.032359	3946.975665	17906.906117
58.534500	0.191572	0.084692	0.186030	0.161248	6417.222665	37409.337088	3915.226141	16586.986096
59.035500	0.211401	0.102746	0.211401	0.198495	6277.994737	35917.331741	3886.496497	15459.341238
59.535500	0.227659	0.114971	0.226200	0.239668	6088.294543	33788.066371	3825.437001	14320.343078
60.038500	0.241605	0.122037	0.243876	0.278687	5908.073261	31596.966774	3778.667722	13336.184649
60.536500	0.254129	0.132861	0.254941	0.308001	5793.083093	30400.724513	3740.465066	12652.857375
61.036000	0.260129	0.138211	0.262533	0.321573	5742.656382	29884.992116	3728.290283	12351.777576
61.536000	0.265884	0.144533	0.265168	0.338400	5670.493510	29239.981495	3700.059890	11991.303876
62.037000	0.273095	0.150110	0.276875	0.369471	5521.082302	27738.148678	3663.000675	11361.310217
62.537000	0.277128	0.153785	0.285590	0.375333	5509.965548	27613.360232	3668.357548	11247.424929
63.037500	0.282045	0.154068	0.284214	0.377337	5527.698884	27515.676865	3662.013878	11208.849350
63.535000	0.283432	0.157844	0.282352	0.368200	5592.747137	28258.634180	3675.728278	11386.209035
64.044000	0.278132	0.160645	0.280332	0.363502	5588.980187	28700.284923	3680.832935	11478.864105
64.535500	0.281027	0.162594	0.277969	0.361684	5618.591512	28925.077432	3679.791830	11514.995573
65.091000	0.280726	0.164793	0.287118	0.357754	5641.602313	29295.002483	3705.154253	11593.603563
65.536500	0.281118	0.165615	0.288132	0.358924	5636.653562	29273.869873	3704.847642	11570.129813
66.036000	0.278847	0.165254	0.282508	0.359857	5616.358942	29195.388602	3692.041062	11551.449654
66.537000	0.279325	0.165493	0.290532	0.358276	5629.384937	29305.791080	3710.867331	11583.116583
67.036500	0.280388	0.165679	0.286555	0.357626	5640.262850	29356.708499	3704.298040	11596.173199
67.534000	0.281129	0.166025	0.283676	0.360149	5628.944955	29224.429723	3693.741386	11545.607874
68.034500	0.281010	0.165580	0.282262	0.362793	5611.485391	29037.829701	3685.895143	11492.929537
68.535000	0.288922	0.166491	0.285837	0.360335	5677.596321	29241.394841	3697.585927	11541.897581
69.034500	0.286713	0.166938	0.287854	0.361170	5658.024595	29217.858991	3699.896703	11525.237454
69.538500	0.287542	0.168132	0.288762	0.362641	5653.918654	29201.126125	3698.795711	11495.962388
70.036000	0.283543	0.167484	0.289894	0.363480	5623.141388	29111.195004	3699.368516	11479.309631
70.536000	0.288384	0.169169	0.297751	0.361304	5667.891117	29345.271374	3719.213892	11522.566987
71.036500	0.289409	0.170114	0.296306	0.361992	5670.058518	29360.918856	3714.954018	11508.854733
71.536500	0.286698	0.168635	0.294113	0.362097	5651.998790	29264.601465	3710.391818	11506.775289
72.037000	0.287778	0.170535	0.290928	0.365666	5636.132402	29163.442566	3697.118676	11436.058500
72.537500	0.293178	0.171983	0.291683	0.363955	5681.699199	29355.172654	3701.940012	11469.880707
73.035000	0.288710	0.171009	0.293692	0.362880	5659.868074	29361.379608	3708.010345	11491.210009
73.535500	0.290270	0.171596	0.292895	0.363802	5663.963837	29340.961682	3704.622692	11472.927122
74.036000	0.288264	0.170584	0.294492	0.365231	5641.995407	29192.780777	3704.953351	11444.655212
74.535500	0.290316	0.170728	0.298283	0.361358	5679.989716	29437.080310	3720.168895	11521.486010
75.036000	0.291771	0.172152	0.294023	0.360956	5692.005209	29548.848014	3712.474116	11529.492570
75.536500	0.291925	0.171746	0.291388	0.360151	5698.231909	29573.400620	3708.850480	11545.572741
76.037000	0.291587	0.171658	0.293423	0.358610	5706.066311	29662.792784	3715.950127	11576.425628
76.537000	0.293738	0.170961	0.295461	0.356488	5734.047256	29750.762044	3724.281506	11619.082337
77.037500	0.293232	0.171057	0.294847	0.355370	5738.077108	29825.933531	3725.296240	11641.636249
77.535000	0.291738	0.172485	0.293400	0.355905	5724.737765	29881.318829	3721.311510	11630.836218
78.035000	0.293579	0.170664	0.297999	0.352139	5761.761890	30002.438730	3738.252252	11707.164940
78.535500	0.293694	0.172771	0.295359	0.352514	5760.030469	30110.741998	3732.108366	11699.526598
79.038000	0.295382	0.171692	0.295027	0.351022	5781.226102	30136.682718	3734.469183	11729.932034
79.536000	0.292231	0.170851	0.294614	0.349841	5768.078217	30157.978989	3736.032692	11754.059527
80.036500	0.293259	0.170591	0.295378	0.348087	5786.670074	30251.941956	3741.185359	11790.033674
80.536500	0.294687	0.170858	0.301471	0.347250	5801.892077	30321.611891	3755.515994	11807.249837
81.036500	0.292718	0.170281	0.290184	0.345826	5798.219793	30375.122413	3735.187375	11836.605251
81.537500	0.294423	0.170616	0.301407	0.347455	5798.726230	30293.324017	3754.954756	11803.023240
82.037500	0.293800	0.170146	0.295027	0.346005	5804.303901	30355.287444	3744.743342	11832.915473
82.538000	0.293631	0.170639	0.292980	0.346895	5797.166850	30330.153694	3738.713117	11814.547006
83.038000	0.292517	0.169859	0.296902	0.346428	5792.816090	30310.334820	3747.737367	11824.173500
83.538000	0.291697	0.168762	0.290483	0.346597	5786.184092	30230.548712	3734.225453	11820.690374
84.035500	0.290731	0.170873	0.295011	0.351613	5746.370218	30048.404447	3733.233406	11717.886067
84.536000	0.293735	0.169227	0.292595	0.347800	5791.779846	30184.179299	3736.076570	11795.922556
85.036500	0.292639	0.170666	0.296926	0.349642	5772.122793	30158.914756	3741.170039	11758.143392
85.536500	0.292066	0.170140	0.298270	0.350071	5765.449292	30098.982569	3743.049248	11749.362559
86.036500	0.291543	0.170477	0.295918	0.350726	5757.620127	30079.095140	3736.889284	11735.979625
86.537000	0.290913	0.168879	0.292634	0.350348	5755.955606	30002.879376	3730.976870	11743.707099
87.035000	0.291983	0.169240	0.299827	0.351149	5757.734557	29975.395652	3744.034909	11727.337522
87.535000	0.291548	0.170838	0.291693	0.352898	5743.279077	29966.007969	3723.924630	11691.735265
88.035000	0.288088	0.169254	0.296116	0.355031	5706.586730	29735.323194	3728.544083	11648.498936
88.535500	0.289034	0.170872	0.289068	0.353754	5721.112815	29914.825411	3716.948491	11674.357927
89.036000	0.291734	0.171236	0.290540	0.354904	5731.280481	29865.953972	3717.590875	11651.054221
89.536000	0.292104	0.170326	0.293143	0.354380	5737.164979	29841.964237	3723.859183	11661.659088
90.036500	0.290407	0.170561	0.294693	0.356560	5711.736771	29721.587127	3722.592301	11617.621709
90.536500	0.294534	0.171218	0.298994	0.356744	5737.604961	29750.845595	3730.903247	11613.929555
91.037000	0.291588	0.172164	0.304124	0.357763	5711.594672	29746.306909	3739.279467	11593.431442
91.534000	0.294395	0.171500	0.294559	0.357416	5732.263018	29726.697033	3720.606469	11600.398566
92.034500	0.292552	0.171074	0.290811	0.359538	5706.303718	29569.750917	3708.920953	11557.832072
92.535500	0.295453	0.173160	0.292260	0.358801	5730.114096	29743.721972	3713.254743	11572.588695
93.038500	0.293966	0.171206	0.292175	0.358004	5725.586404	29672.343084	3714.672349	11588.592582
93.535500	0.293320	0.171362	0.300427	0.358990	5714.896886	29621.165031	3729.256182	11568.813337
94.035500	0.291024	0.171791	0.291223	0.362056	5680.056318	29459.424190	3704.767925	11507.591408
94.536500	0.295510	0.173155	0.296676	0.359903	5723.254572	29675.318002	3719.863489	11550.520071
95.036500	0.293832	0.172451	0.295610	0.360379	5709.164468	29602.657568	3716.781845	11541.007736
95.542000	0.295228	0.172650	0.295791	0.360750	5715.859560	29592.160184	3716.404226	11533.612683
96.045500	0.294324	0.173083	0.290024	0.361978	5701.953798	29543.326667	3702.564511	11509.146453
96.534500	0.293739	0.172426	0.292979	0.360090	5710.443406	29618.969581	3712.122800	11546.793685
97.034500	0.292775	0.173824	0.295557	0.362507	5688.468404	29556.363980	3712.443545	11498.627410
97.535000	0.294017	0.173091	0.296272	0.361873	5700.635581	29550.236110	3715.123969	11511.219039
98.047500	0.296743	0.173375	0.297766	0.362248	5715.970334	29544.674260	3717.354805	11503.762594
98.536000	0.292188	0.172903	0.291632	0.361677	5690.034948	29550.737310	3706.318662	11515.128919
