sample name	sample
index	728
start time	 03-25-2021  02:35:34 PM


Wavelength (nm)	Absorbance
494.344910	0.254498
494.563924	0.254498
494.782919	0.254498
495.001897	-0.098641
495.220856	-0.129317
495.439797	-0.135640
495.658719	-0.166260
495.877624	-0.184517
496.096510	-0.158010
496.315378	-0.078988
496.534227	-0.005327
496.753059	0.014721
496.971872	0.100617
497.190667	0.089218
497.409444	0.080302
497.628203	0.077127
497.846943	0.076802
498.065665	0.075177
498.284369	0.075251
498.503055	0.075520
498.721723	0.075711
498.940372	0.075130
499.159003	0.074799
499.377616	0.075406
499.596210	0.075426
499.814787	0.075507
500.033345	0.076311
500.251885	0.074822
500.470406	0.074872
500.688910	0.074896
500.907395	0.074617
501.125862	0.074982
501.344311	0.074792
501.562742	0.075231
501.781154	0.075762
501.999548	0.075429
502.217924	0.076468
502.436282	0.076655
502.654621	0.076723
502.872942	0.077778
503.091245	0.078701
503.309530	0.078679
503.527797	0.078973
503.746045	0.078975
503.964275	0.078989
504.182487	0.079250
504.400681	0.079449
504.618856	0.079678
504.837013	0.078502
505.055152	0.077486
505.273273	0.077066
505.491376	0.077157
505.709460	0.077149
505.927526	0.077513
506.145574	0.077606
506.363604	0.077178
506.581615	0.077473
506.799608	0.077781
507.017583	0.078146
507.235540	0.077740
507.453478	0.078098
507.671399	0.078087
507.889301	0.078114
508.107185	0.078085
508.325050	0.077160
508.542898	0.076203
508.760727	0.075960
508.978538	0.075767
509.196330	0.076137
509.414105	0.075828
509.631861	0.075479
509.849599	0.074626
510.067319	0.074409
510.285021	0.075134
510.502704	0.075953
510.720369	0.076259
510.938016	0.076992
511.155645	0.077400
511.373255	0.077725
511.590848	0.077474
511.808422	0.078617
512.025977	0.078732
512.243515	0.078955
512.461034	0.078059
512.678536	0.077500
512.896018	0.077562
513.113483	0.077838
513.330930	0.077652
513.548358	0.078361
513.765768	0.077799
513.983160	0.077507
514.200533	0.077908
514.417889	0.078599
514.635226	0.079584
514.852545	0.078946
515.069845	0.077976
515.287128	0.077265
515.504392	0.076979
515.721638	0.076791
515.938866	0.077453
516.156075	0.077344
516.373267	0.077926
516.590440	0.077955
516.807594	0.077863
517.024731	0.077834
517.241850	0.078275
517.458950	0.078591
517.676032	0.079253
517.893095	0.078788
518.110141	0.078580
518.327168	0.077570
518.544177	0.077239
518.761168	0.077625
518.978141	0.078736
519.195095	0.079107
519.412031	0.079386
519.628949	0.079533
519.845849	0.079458
520.062731	0.079435
520.279594	0.079539
520.496439	0.079275
520.713266	0.079322
520.930074	0.079795
521.146865	0.079504
521.363637	0.079401
521.580391	0.079626
521.797127	0.080842
522.013844	0.080709
522.230543	0.081157
522.447224	0.081615
522.663887	0.082166
522.880532	0.081285
523.097158	0.081626
523.313766	0.081810
523.530356	0.082044
523.746928	0.081096
523.963481	0.081836
524.180017	0.081864
524.396534	0.081795
524.613032	0.081209
524.829513	0.081515
525.045975	0.081546
525.262420	0.081335
525.478845	0.081012
525.695253	0.081627
525.911643	0.081198
526.128014	0.081868
526.344367	0.082025
526.560702	0.082058
526.777018	0.082268
526.993316	0.081896
527.209597	0.081895
527.425858	0.081656
527.642102	0.081712
527.858328	0.081892
528.074535	0.081218
528.290724	0.081186
528.506894	0.081593
528.723047	0.081801
528.939181	0.082144
529.155297	0.082136
529.371395	0.082474
529.587475	0.082089
529.803536	0.082482
530.019579	0.082785
530.235604	0.082625
530.451611	0.082702
530.667600	0.082448
530.883570	0.082778
531.099522	0.083084
531.315456	0.083968
531.531372	0.084472
531.747269	0.084657
531.963148	0.084878
532.179009	0.085338
532.394852	0.085161
532.610676	0.085510
532.826482	0.085470
533.042271	0.084784
533.258040	0.083861
533.473792	0.084084
533.689525	0.083566
533.905240	0.083556
534.120937	0.083639
534.336616	0.084053
534.552277	0.084285
534.767919	0.084358
534.983543	0.085229
535.199149	0.085602
535.414736	0.085325
535.630306	0.086069
535.845857	0.086741
536.061390	0.086751
536.276904	0.087175
536.492401	0.086682
536.707879	0.086962
536.923339	0.087008
537.138781	0.087090
537.354204	0.087467
537.569610	0.087225
537.784997	0.086917
538.000366	0.086659
538.215716	0.086027
538.431049	0.086407
538.646363	0.086592
538.861659	0.086624
539.076937	0.086646
539.292196	0.086627
539.507438	0.087135
539.722661	0.087118
539.937866	0.087746
540.153052	0.088037
540.368221	0.088213
540.583371	0.088140
540.798503	0.088222
541.013617	0.088568
541.228712	0.088956
541.443789	0.088643
541.658848	0.088128
541.873889	0.087944
542.088912	0.088206
542.303916	0.088302
542.518902	0.088968
542.733870	0.089109
542.948820	0.089531
543.163752	0.088968
543.378665	0.088952
543.593560	0.089451
543.808437	0.089831
544.023295	0.090226
544.238136	0.090522
544.452958	0.090028
544.667762	0.090009
544.882548	0.089206
545.097315	0.089887
545.312064	0.090097
545.526795	0.090506
545.741508	0.090483
545.956203	0.090265
546.170879	0.090429
546.385537	0.090537
546.600177	0.090658
546.814799	0.091173
547.029402	0.091145
547.243988	0.091139
547.458555	0.091002
547.673103	0.091648
547.887634	0.091719
548.102146	0.091016
548.316640	0.091131
548.531116	0.091309
548.745574	0.091095
548.960013	0.090619
549.174435	0.091305
549.388838	0.091739
549.603222	0.091348
549.817589	0.091368
550.031937	0.091656
550.246267	0.091709
550.460579	0.091669
550.674873	0.091920
550.889148	0.092360
551.103405	0.092262
551.317644	0.092096
551.531865	0.092288
551.746068	0.092286
551.960252	0.092601
552.174418	0.092597
552.388566	0.092399
552.602696	0.092390
552.816807	0.092431
553.030900	0.092182
553.244975	0.092093
553.459032	0.091891
553.673070	0.092013
553.887091	0.091962
554.101093	0.092000
554.315077	0.092151
554.529042	0.092150
554.742990	0.092186
554.956919	0.092169
555.170830	0.092204
555.384722	0.092423
555.598597	0.092534
555.812453	0.092638
556.026291	0.092938
556.240111	0.093066
556.453913	0.093302
556.667696	0.093357
556.881461	0.093319
557.095208	0.093804
557.308937	0.093732
557.522647	0.093849
557.736339	0.093743
557.950013	0.093413
558.163669	0.093533
558.377307	0.093527
558.590926	0.093889
558.804527	0.094273
559.018110	0.093935
559.231675	0.094227
559.445221	0.094287
559.658749	0.094824
559.872259	0.095076
560.085751	0.095344
560.299225	0.095315
560.512680	0.094981
560.726117	0.094993
560.939536	0.095132
561.152937	0.095115
561.366319	0.095031
561.579683	0.094997
561.793029	0.095398
562.006357	0.095050
562.219667	0.095324
562.432958	0.095330
562.646231	0.095592
562.859486	0.095880
563.072723	0.095809
563.285941	0.095619
563.499141	0.095585
563.712323	0.095436
563.925487	0.095497
564.138632	0.096030
564.351760	0.095954
564.564869	0.095760
564.777960	0.095464
564.991032	0.095806
565.204087	0.096337
565.417123	0.096361
565.630141	0.096411
565.843140	0.096292
566.056122	0.095766
566.269085	0.096300
566.482030	0.096292
566.694957	0.096662
566.907866	0.096352
567.120756	0.095916
567.333628	0.095947
567.546482	0.096231
567.759318	0.096699
567.972135	0.096645
568.184935	0.096722
568.397716	0.096709
568.610478	0.096529
568.823223	0.096644
569.035949	0.097239
569.248657	0.097265
569.461347	0.096911
569.674019	0.096903
569.886672	0.097080
570.099308	0.096886
570.311925	0.097275
570.524523	0.097143
570.737104	0.097418
570.949666	0.096928
571.162210	0.096751
571.374736	0.096674
571.587244	0.096754
571.799733	0.096537
572.012205	0.096713
572.224658	0.096538
572.437092	0.096754
572.649509	0.096752
572.861907	0.096937
573.074287	0.097073
573.286649	0.097308
573.498993	0.097437
573.711318	0.097893
573.923625	0.098035
574.135914	0.097822
574.348185	0.097749
574.560438	0.097668
574.772672	0.097789
574.984888	0.097847
575.197086	0.097828
575.409266	0.097895
575.621427	0.097626
575.833570	0.097856
576.045695	0.098340
576.257802	0.098634
576.469890	0.098871
576.681961	0.098853
576.894013	0.099348
577.106046	0.099504
577.318062	0.099681
577.530059	0.099781
577.742039	0.099466
577.954000	0.099441
578.165942	0.099504
578.377867	0.099350
578.589773	0.099936
578.801661	0.099873
579.013531	0.099683
579.225382	0.099396
579.437216	0.099162
579.649031	0.099124
579.860828	0.099131
580.072606	0.098792
580.284367	0.098681
580.496109	0.098342
580.707833	0.098096
580.919539	0.098456
581.131227	0.098874
581.342896	0.099093
581.554547	0.099340
581.766180	0.099331
581.977795	0.099563
582.189391	0.100119
582.400969	0.100120
582.612529	0.100247
582.824071	0.100217
583.035595	0.099806
583.247100	0.100102
583.458587	0.100168
583.670056	0.100145
583.881506	0.100301
584.092939	0.099959
584.304353	0.100216
584.515749	0.100375
584.727127	0.100557
584.938486	0.100907
585.149828	0.101144
585.361151	0.101097
585.572456	0.100991
585.783742	0.100926
585.995011	0.100955
586.206261	0.100654
586.417493	0.100476
586.628706	0.100448
586.839902	0.100523
587.051079	0.100410
587.262238	0.100359
587.473379	0.100579
587.684502	0.100589
587.895606	0.101007
588.106692	0.100777
588.317760	0.100676
588.528810	0.100903
588.739841	0.100781
588.950855	0.100668
589.161850	0.101153
589.372827	0.101241
589.583785	0.101369
589.794726	0.101317
590.005648	0.101909
590.216552	0.102333
590.427437	0.101906
590.638305	0.101959
590.849154	0.101975
591.059985	0.101789
591.270798	0.101834
591.481592	0.102131
591.692369	0.101985
591.903127	0.101756
592.113867	0.101757
592.324588	0.102366
592.535292	0.102370
592.745977	0.102307
592.956644	0.102112
593.167293	0.102045
593.377923	0.101861
593.588536	0.102142
593.799130	0.102649
594.009706	0.102833
594.220263	0.102799
594.430803	0.102969
594.641324	0.103270
594.851827	0.103432
595.062312	0.103649
595.272778	0.103498
595.483227	0.103735
595.693657	0.103458
595.904069	0.103343
596.114462	0.103265
596.324838	0.103328
596.535195	0.103474
596.745534	0.103478
596.955855	0.103167
597.166157	0.103538
597.376441	0.103029
597.586707	0.103125
597.796955	0.103193
598.007185	0.103060
598.217396	0.102926
598.427589	0.102869
598.637764	0.103279
598.847921	0.103629
599.058060	0.103546
599.268180	0.103839
599.478282	0.103852
599.688366	0.103854
599.898431	0.104015
600.108479	0.104362
600.318508	0.104520
600.528519	0.104058
600.738511	0.104015
600.948486	0.104115
601.158442	0.104226
601.368380	0.104375
601.578300	0.104414
601.788202	0.104441
601.998085	0.104362
602.207950	0.104158
602.417797	0.104610
602.627626	0.104749
602.837436	0.104633
603.047228	0.104806
603.257002	0.105031
603.466758	0.105158
603.676496	0.105253
603.886215	0.105065
604.095916	0.105240
604.305599	0.105050
604.515264	0.104965
604.724910	0.105229
604.934538	0.104910
605.144148	0.104778
605.353740	0.104747
605.563314	0.104650
605.772869	0.104873
605.982406	0.104970
606.191925	0.104912
606.401425	0.105274
606.610908	0.105344
606.820372	0.105416
607.029818	0.105382
607.239246	0.105381
607.448655	0.105664
607.658047	0.105887
607.867420	0.105831
608.076775	0.106078
608.286111	0.105772
608.495430	0.105816
608.704730	0.105861
608.914012	0.106186
609.123275	0.106380
609.332521	0.106115
609.541748	0.105924
609.750957	0.105942
609.960148	0.106100
610.169321	0.106285
610.378475	0.106084
610.587611	0.106245
610.796729	0.106053
611.005829	0.106098
611.214910	0.106128
611.423974	0.106335
611.633019	0.106416
611.842045	0.106530
612.051054	0.106689
612.260044	0.107002
612.469017	0.106978
612.677970	0.107119
612.886906	0.106980
613.095824	0.107169
613.304723	0.107205
613.513604	0.107526
613.722467	0.107257
613.931311	0.107083
614.140138	0.106807
614.348946	0.106978
614.557736	0.107018
614.766507	0.107170
614.975261	0.107273
615.183996	0.107251
615.392713	0.106798
615.601412	0.106840
615.810092	0.106723
616.018754	0.106792
616.227399	0.106814
616.436024	0.106745
616.644632	0.106987
616.853222	0.106930
617.061793	0.107035
617.270346	0.107456
617.478880	0.107665
617.687397	0.107890
617.895895	0.108357
618.104375	0.108235
618.312837	0.108276
618.521281	0.108052
618.729706	0.108211
618.938113	0.108019
619.146502	0.107711
619.354873	0.107618
619.563226	0.107721
619.771560	0.107527
619.979876	0.107618
620.188174	0.107613
620.396453	0.107715
620.604715	0.107905
620.812958	0.108144
621.021183	0.108457
621.229390	0.108677
621.437578	0.108650
621.645748	0.108894
621.853900	0.109001
622.062034	0.108940
622.270150	0.109083
622.478247	0.109038
622.686326	0.109038
622.894387	0.109063
623.102430	0.109054
623.310454	0.109324
623.518461	0.109457
623.726449	0.109483
623.934418	0.109638
624.142370	0.109543
624.350303	0.109615
624.558218	0.109797
624.766115	0.109873
624.973994	0.110022
625.181855	0.109899
625.389697	0.109379
625.597521	0.109278
625.805327	0.109495
626.013114	0.109654
626.220883	0.109461
626.428634	0.109433
626.636367	0.109325
626.844082	0.109306
627.051778	0.109361
627.259457	0.109731
627.467117	0.109811
627.674758	0.109819
627.882382	0.109927
628.089987	0.110001
628.297574	0.110113
628.505143	0.110382
628.712694	0.110522
628.920226	0.110590
629.127740	0.110580
629.335236	0.110735
629.542714	0.110809
629.750174	0.110800
629.957615	0.110836
630.165038	0.110708
630.372443	0.110551
630.579829	0.110453
630.787198	0.110511
630.994548	0.110394
631.201880	0.110469
631.409194	0.110528
631.616489	0.110406
631.823766	0.110509
632.031025	0.110698
632.238266	0.111027
632.445489	0.111197
632.652693	0.111327
632.859879	0.111463
633.067047	0.111610
633.274197	0.111470
633.481329	0.111777
633.688442	0.111789
633.895537	0.112099
634.102614	0.112126
634.309672	0.112305
634.516713	0.112392
634.723735	0.112615
634.930739	0.112658
635.137724	0.112960
635.344692	0.113029
635.551641	0.113101
635.758572	0.112813
635.965485	0.112654
636.172379	0.112482
636.379256	0.112395
636.586114	0.112394
636.792954	0.112447
636.999775	0.112344
637.206579	0.112219
637.413364	0.112314
637.620131	0.112464
637.826880	0.112650
638.033610	0.112632
638.240323	0.112920
638.447017	0.112800
638.653692	0.112672
638.860350	0.112633
639.066990	0.112758
639.273611	0.112883
639.480214	0.112959
639.686798	0.112880
639.893365	0.112982
640.099913	0.112811
640.306443	0.113061
640.512955	0.113013
640.719449	0.113142
640.925924	0.113033
641.132381	0.112842
641.338820	0.112843
641.545241	0.112880
641.751644	0.112784
641.958028	0.112644
642.164394	0.112630
642.370742	0.112959
642.577071	0.113135
642.783383	0.113175
642.989676	0.113541
643.195951	0.113676
643.402207	0.113831
643.608446	0.113919
643.814666	0.114082
644.020868	0.114170
644.227052	0.114318
644.433218	0.114153
644.639365	0.114270
644.845494	0.114173
645.051605	0.114223
645.257698	0.114432
645.463772	0.114529
645.669828	0.114684
645.875866	0.114741
646.081886	0.114499
646.287888	0.114620
646.493871	0.114883
646.699836	0.114872
646.905783	0.114674
647.111712	0.114595
647.317622	0.114572
647.523514	0.114732
647.729388	0.114813
647.935244	0.114851
648.141082	0.114987
648.346901	0.114780
648.552702	0.114914
648.758485	0.114945
648.964250	0.114895
649.169996	0.115110
649.375724	0.115031
649.581434	0.114966
649.787126	0.115157
649.992800	0.115262
650.198455	0.115359
650.404092	0.115406
650.609711	0.115497
650.815311	0.115620
651.020894	0.115305
651.226458	0.115275
651.432004	0.115345
651.637532	0.115235
651.843041	0.115049
652.048532	0.115079
652.254006	0.114940
652.459460	0.114992
652.664897	0.115117
652.870315	0.115516
653.075716	0.115395
653.281097	0.115286
653.486461	0.115616
653.691807	0.115798
653.897134	0.115813
654.102443	0.115842
654.307734	0.115924
654.513006	0.115850
654.718261	0.115822
654.923497	0.116064
655.128715	0.116223
655.333915	0.116023
655.539096	0.116172
655.744259	0.116338
655.949404	0.116474
656.154531	0.116483
656.359640	0.116693
656.564730	0.116880
656.769802	0.116651
656.974856	0.116703
657.179892	0.116989
657.384909	0.116813
657.589908	0.116623
657.794889	0.116905
657.999852	0.116874
658.204797	0.116882
658.409723	0.116669
658.614631	0.117110
658.819521	0.117384
659.024393	0.117179
659.229246	0.117407
659.434081	0.117754
659.638898	0.117813
659.843697	0.118115
660.048478	0.118028
660.253240	0.118342
660.457984	0.118236
660.662710	0.118222
660.867417	0.118293
661.072107	0.118224
661.276778	0.118008
661.481431	0.117839
661.686066	0.117723
661.890682	0.117722
662.095281	0.117650
662.299861	0.117812
662.504422	0.117716
662.708966	0.117864
662.913491	0.117905
663.117999	0.118216
663.322488	0.118341
663.526958	0.118341
663.731411	0.118324
663.935845	0.118168
664.140261	0.118223
664.344659	0.118282
664.549038	0.118354
664.753400	0.118490
664.957743	0.118474
665.162068	0.118634
665.366375	0.118823
665.570663	0.119079
665.774933	0.119404
665.979185	0.119770
666.183419	0.119866
666.387635	0.119936
666.591832	0.120023
666.796011	0.120223
667.000172	0.120236
667.204315	0.120248
667.408439	0.120524
667.612545	0.120503
667.816634	0.120267
668.020703	0.120545
668.224755	0.120597
668.428788	0.120711
668.632803	0.120777
668.836800	0.120935
669.040779	0.121213
669.244739	0.121134
669.448681	0.121523
669.652605	0.121654
669.856511	0.121725
670.060399	0.121870
670.264268	0.121902
670.468119	0.121761
670.671952	0.121869
670.875767	0.121779
671.079563	0.121907
671.283341	0.121629
671.487101	0.121551
671.690843	0.121484
671.894567	0.121340
672.098272	0.121394
672.301959	0.121574
672.505628	0.121392
672.709278	0.121388
672.912911	0.121295
673.116525	0.121487
673.320121	0.121581
673.523699	0.121331
673.727258	0.121471
673.930799	0.121558
674.134322	0.121567
674.337827	0.121600
674.541314	0.121937
674.744782	0.122103
674.948232	0.122237
675.151664	0.122384
675.355078	0.122645
675.558474	0.122776
675.761851	0.122909
675.965210	0.122863
676.168551	0.123140
676.371873	0.122848
676.575178	0.122776
676.778464	0.122775
676.981732	0.122601
677.184981	0.122948
677.388213	0.122955
677.591426	0.123027
677.794621	0.123356
677.997798	0.123367
678.200956	0.123618
678.404097	0.123731
678.607219	0.123779
678.810323	0.124239
679.013408	0.124225
679.216476	0.124541
679.419525	0.124606
679.622556	0.124776
679.825569	0.124749
680.028563	0.124945
680.231540	0.124976
680.434498	0.125171
680.637438	0.125249
680.840359	0.125239
681.043263	0.125019
681.246148	0.125109
681.449015	0.125066
681.651864	0.125173
681.854694	0.125075
682.057506	0.125356
682.260301	0.125261
682.463076	0.125205
682.665834	0.125353
682.868573	0.125654
683.071295	0.125480
683.273998	0.125584
683.476682	0.125727
683.679349	0.125845
683.881997	0.125835
684.084627	0.126026
684.287239	0.126268
684.489833	0.126419
684.692408	0.126252
684.894965	0.126674
685.097504	0.126650
685.300025	0.126658
685.502527	0.126715
685.705012	0.126691
685.907478	0.126780
686.109925	0.126605
686.312355	0.126556
686.514766	0.126640
686.717159	0.126507
686.919534	0.126448
687.121891	0.126622
687.324230	0.126841
687.526550	0.126950
687.728852	0.126897
687.931136	0.126970
688.133401	0.126944
688.335649	0.127115
688.537878	0.127168
688.740089	0.127333
688.942281	0.127295
689.144456	0.127215
689.346612	0.127179
689.548750	0.127273
689.750870	0.127422
689.952971	0.127401
690.155055	0.127480
690.357120	0.127652
690.559167	0.127714
690.761195	0.127892
690.963206	0.127978
691.165198	0.128212
691.367172	0.128347
691.569128	0.128239
691.771065	0.128483
691.972984	0.128533
692.174885	0.128500
692.376768	0.128536
692.578633	0.128650
692.780479	0.128859
692.982308	0.128888
693.184118	0.128889
693.385909	0.128966
693.587683	0.128834
693.789438	0.128878
693.991175	0.129001
694.192894	0.129209
694.394595	0.129206
694.596277	0.129071
694.797941	0.129028
694.999587	0.129191
695.201215	0.129313
695.402824	0.129494
695.604416	0.129711
695.805989	0.129841
696.007543	0.129887
696.209080	0.130034
696.410598	0.130096
696.612099	0.130219
696.813580	0.130231
697.015044	0.130433
697.216490	0.130614
697.417917	0.130570
697.619326	0.130275
697.820717	0.130192
698.022089	0.129966
698.223444	0.130039
698.424780	0.130114
698.626098	0.130121
698.827397	0.130080
699.028679	0.129930
699.229942	0.129885
699.431187	0.130149
699.632414	0.130190
699.833622	0.130350
700.034813	0.130527
700.235985	0.130654
700.437139	0.130532
700.638274	0.130571
700.839392	0.130696
701.040491	0.130702
701.241572	0.130781
701.442635	0.130866
701.643679	0.131153
701.844706	0.131164
702.045714	0.131107
702.246704	0.131254
702.447675	0.131261
702.648629	0.131259
702.849564	0.131499
703.050481	0.131572
703.251380	0.131794
703.452260	0.131593
703.653122	0.131571
703.853966	0.131508
704.054792	0.131494
704.255600	0.131481
704.456389	0.131509
704.657160	0.131332
704.857913	0.131089
705.058648	0.130727
705.259365	0.130703
705.460063	0.130360
705.660743	0.130224
705.861405	0.130217
706.062048	0.130143
706.262674	0.129917
706.463281	0.129848
706.663870	0.129907
706.864441	0.130031
707.064993	0.130028
707.265527	0.130280
707.466043	0.130514
707.666541	0.130623
707.867021	0.130859
708.067482	0.131210
708.267925	0.131515
708.468350	0.131884
708.668757	0.132237
708.869145	0.132506
709.069516	0.132604
709.269868	0.132575
709.470201	0.132559
709.670517	0.132658
709.870814	0.132531
710.071093	0.132412
710.271354	0.132146
710.471597	0.131832
710.671821	0.131652
710.872028	0.131501
711.072216	0.131454
711.272385	0.131435
711.472537	0.130971
711.672670	0.131040
711.872785	0.130903
712.072882	0.130993
712.272961	0.131033
712.473021	0.131154
712.673063	0.131165
712.873087	0.131191
713.073093	0.131138
713.273081	0.131140
713.473050	0.131095
713.673001	0.131002
713.872934	0.131082
714.072849	0.131175
714.272745	0.131154
714.472623	0.131318
714.672483	0.131263
714.872325	0.131355
715.072148	0.131512
715.271954	0.131552
715.471741	0.131718
715.671509	0.131561
715.871260	0.131419
716.070992	0.131315
716.270707	0.131169
716.470403	0.131317
716.670080	0.131279
716.869740	0.131520
717.069381	0.131621
717.269004	0.131700
717.468609	0.131702
717.668195	0.131772
717.867764	0.131656
718.067314	0.131680
718.266846	0.131655
718.466360	0.131629
718.665855	0.131457
718.865332	0.131199
719.064791	0.131032
719.264232	0.131167
719.463655	0.131092
719.663059	0.131196
719.862445	0.131216
720.061813	0.131325
720.261163	0.131351
720.460494	0.131303
720.659807	0.131303
720.859102	0.131369
721.058379	0.131233
721.257638	0.131143
721.456878	0.131169
721.656100	0.131152
721.855304	0.130809
722.054490	0.130620
722.253657	0.130466
722.452806	0.130653
722.651937	0.130643
722.851050	0.130538
723.050145	0.130416
723.249221	0.130101
723.448279	0.130101
723.647319	0.130153
723.846340	0.130176
724.045344	0.130315
724.244329	0.130075
724.443296	0.130082
724.642245	0.130110
724.841175	0.130250
725.040088	0.130289
725.238982	0.130257
725.437857	0.130237
725.636715	0.130248
725.835554	0.130405
726.034376	0.130372
726.233179	0.130432
726.431963	0.130341
726.630730	0.130243
726.829478	0.130372
727.028208	0.130292
727.226920	0.130268
727.425614	0.130225
727.624289	0.129957
727.822946	0.129949
728.021585	0.129926
728.220206	0.129827
728.418808	0.129667
728.617392	0.129456
728.815958	0.129610
729.014506	0.129581
729.213036	0.129501
729.411547	0.129454
729.610040	0.129381
729.808515	0.129250
730.006972	0.129379
730.205410	0.129418
730.403831	0.129315
730.602233	0.129184
730.800616	0.129081
730.998982	0.129128
731.197329	0.128988
731.395658	0.129106
731.593969	0.128942
731.792262	0.128767
731.990536	0.128810
732.188793	0.128884
732.387031	0.128985
732.585250	0.129050
732.783452	0.129135
732.981635	0.129249
733.179800	0.129106
733.377947	0.129091
733.576076	0.128980
733.774186	0.128916
733.972278	0.128931
734.170352	0.128626
734.368408	0.128589
734.566446	0.128412
734.764465	0.128313
734.962466	0.128336
735.160449	0.128373
735.358413	0.128420
735.556360	0.128335
735.754288	0.128087
735.952198	0.127915
736.150090	0.127936
736.347963	0.127701
736.545818	0.127593
736.743655	0.127321
736.941474	0.127164
737.139275	0.126898
737.337057	0.126698
737.534821	0.126622
737.732567	0.126629
737.930295	0.126249
738.128005	0.126167
738.325696	0.125972
738.523369	0.125616
738.721024	0.125505
738.918660	0.125526
739.116279	0.125490
739.313879	0.125519
739.511461	0.125302
739.709024	0.125254
739.906570	0.125140
740.104097	0.125118
740.301606	0.125433
740.499097	0.125250
740.696569	0.125253
740.894024	0.125301
741.091460	0.125120
741.288878	0.125190
741.486277	0.125148
741.683659	0.125271
741.881022	0.125105
742.078367	0.124958
742.275694	0.124822
742.473002	0.124651
742.670293	0.124610
742.867565	0.124614
743.064819	0.124476
743.262054	0.124425
743.459272	0.124241
743.656471	0.124401
743.853652	0.124469
744.050815	0.124367
744.247959	0.124522
744.445085	0.124324
744.642194	0.124353
744.839283	0.124412
745.036355	0.124465
745.233408	0.124684
745.430444	0.124659
745.627461	0.124432
745.824459	0.124447
746.021440	0.124031
746.218402	0.124203
746.415346	0.124127
746.612272	0.124108
746.809180	0.123985
747.006069	0.123837
747.202940	0.123780
747.399793	0.123668
747.596628	0.123793
747.793444	0.123889
747.990243	0.123858
748.187023	0.123551
748.383784	0.123372
748.580528	0.123119
748.777253	0.122937
748.973960	0.122727
749.170649	0.122903
749.367320	0.123014
749.563973	0.123107
749.760607	0.122959
749.957223	0.123116
750.153821	0.122997
750.350400	0.123010
750.546962	0.122813
750.743505	0.122758
750.940030	0.122689
751.136536	0.122473
751.333025	0.122470
751.529495	0.122355
751.725947	0.122301
751.922381	0.122390
752.118796	0.122577
752.315194	0.122812
752.511573	0.122866
752.707934	0.122784
752.904276	0.122597
753.100601	0.122501
753.296907	0.122640
753.493195	0.122602
753.689465	0.122617
753.885716	0.122551
754.081949	0.122375
754.278164	0.122211
754.474361	0.122254
754.670540	0.122357
754.866700	0.122336
755.062843	0.122018
755.258967	0.122017
755.455072	0.122051
755.651160	0.122029
755.847229	0.121929
756.043280	0.121959
756.239313	0.121925
756.435328	0.121965
756.631324	0.121673
756.827302	0.121475
757.023262	0.121348
757.219204	0.121162
757.415127	0.120837
757.611033	0.120740
757.806920	0.120851
758.002788	0.120426
758.198639	0.120248
758.394471	0.120457
758.590286	0.120376
758.786081	0.120103
758.981859	0.119964
759.177619	0.120038
759.373360	0.120154
759.569083	0.119807
759.764788	0.120077
759.960474	0.119985
760.156143	0.119691
760.351793	0.119809
760.547425	0.120091
760.743038	0.120235
760.938634	0.120269
761.134211	0.120321
761.329770	0.120432
761.525311	0.120314
761.720833	0.120444
761.916338	0.120485
762.111824	0.120420
762.307292	0.120333
762.502741	0.120106
762.698173	0.120147
762.893586	0.119835
763.088981	0.119753
763.284358	0.119834
763.479716	0.119579
763.675057	0.119579
763.870379	0.119610
764.065683	0.119623
764.260968	0.119532
764.456236	0.119465
764.651485	0.119424
764.846716	0.119358
765.041929	0.119298
765.237123	0.119095
765.432299	0.118949
765.627457	0.118654
765.822597	0.118621
766.017719	0.118611
766.212822	0.118222
766.407907	0.118209
766.602974	0.118211
766.798023	0.118150
766.993054	0.118255
767.188066	0.118434
767.383060	0.118823
767.578036	0.118685
767.772993	0.118530
767.967933	0.118580
768.162854	0.118780
768.357757	0.118868
768.552642	0.118882
768.747508	0.119115
768.942356	0.119195
769.137186	0.119081
769.331998	0.118982
769.526792	0.119074
769.721567	0.119212
769.916324	0.119032
770.111063	0.118958
770.305784	0.118757
770.500486	0.118680
770.695171	0.118495
770.889837	0.118331
771.084484	0.118381
771.279114	0.118362
771.473725	0.118558
771.668318	0.118411
771.862893	0.118305
772.057450	0.118601
772.251988	0.118636
772.446509	0.118435
772.641011	0.118494
772.835494	0.118703
773.029960	0.118893
773.224407	0.118791
773.418836	0.118997
773.613247	0.119158
773.807640	0.118988
774.002014	0.118514
774.196370	0.118551
774.390708	0.118566
774.585028	0.118418
774.779330	0.118295
774.973613	0.118163
775.167878	0.117932
775.362125	0.117822
775.556354	0.117551
775.750564	0.117913
775.944756	0.117919
776.138930	0.118076
776.333086	0.118023
776.527223	0.117958
776.721343	0.117876
776.915444	0.117958
777.109526	0.117744
777.303591	0.117901
777.497637	0.117761
777.691666	0.117763
777.885676	0.117643
778.079667	0.117591
778.273641	0.117569
778.467596	0.117622
778.661533	0.117471
778.855452	0.117561
779.049352	0.117669
779.243235	0.117570
779.437099	0.117415
779.630945	0.117316
779.824773	0.117255
780.018582	0.117105
780.212373	0.116952
780.406146	0.117250
780.599901	0.117335
780.793638	0.117032
780.987356	0.117108
781.181056	0.117110
781.374738	0.117282
781.568402	0.117454
781.762047	0.117811
781.955674	0.118100
782.149283	0.118088
782.342874	0.118061
782.536447	0.118556
782.730001	0.118626
782.923537	0.118870
783.117055	0.118784
783.310555	0.118659
783.504036	0.118590
783.697499	0.118327
783.890944	0.118199
784.084371	0.118350
784.277780	0.118167
784.471170	0.118087
784.664542	0.117828
784.857896	0.117915
785.051231	0.118025
785.244549	0.118050
785.437848	0.118136
785.631129	0.118285
785.824392	0.118438
786.017636	0.118357
786.210863	0.118431
786.404071	0.118854
786.597260	0.118762
786.790432	0.118883
786.983585	0.119012
787.176721	0.119132
787.369838	0.119197
787.562936	0.118959
787.756017	0.119288
787.949079	0.119487
788.142123	0.119326
788.335149	0.119367
788.528156	0.119318
788.721146	0.119247
788.914117	0.119187
789.107070	0.119030
789.300005	0.119049
789.492921	0.118872
789.685819	0.118787
789.878699	0.119033
790.071561	0.119067
790.264405	0.118952
790.457230	0.118980
790.650037	0.119012
790.842826	0.119237
791.035597	0.119561
791.228349	0.119646
791.421084	0.119660
791.613800	0.119520
791.806497	0.119701
791.999177	0.119826
792.191838	0.119826
792.384481	0.120022
792.577106	0.120054
792.769713	0.119770
792.962301	0.119844
793.154871	0.120091
793.347423	0.120099
793.539957	0.119905
793.732473	0.119838
793.924970	0.120025
794.117449	0.120132
794.309910	0.120211
794.502353	0.120401
794.694777	0.120447
794.887183	0.120270
795.079571	0.120325
795.271941	0.120429
795.464293	0.120813
795.656626	0.120790
795.848941	0.120883
796.041238	0.120877
796.233516	0.120927
796.425777	0.120995
796.618019	0.121154
796.810243	0.121400
797.002449	0.121585
797.194636	0.121651
797.386805	0.121715
797.578956	0.121677
797.771089	0.121853
797.963204	0.121943
798.155300	0.121993
798.347378	0.122089
798.539438	0.122126
798.731480	0.122272
798.923503	0.122346
799.115509	0.122304
799.307496	0.122407
799.499465	0.122275
799.691415	0.122158
799.883348	0.122234
800.075262	0.122075
800.267158	0.122092
800.459035	0.122078
800.650895	0.122078
800.842736	0.122157
801.034559	0.122185
801.226364	0.122322
801.418150	0.122635
801.609919	0.122672
801.801669	0.123121
801.993401	0.123209
802.185114	0.123299
802.376810	0.123532
802.568487	0.123780
802.760146	0.124081
802.951787	0.124360
803.143409	0.124442
803.335014	0.124495
803.526600	0.124517
803.718168	0.124546
803.909717	0.124550
804.101249	0.124516
804.292762	0.124420
804.484257	0.124368
804.675734	0.124320
804.867192	0.124445
805.058632	0.124634
805.250054	0.124657
805.441458	0.125038
805.632844	0.125199
805.824211	0.125225
806.015561	0.125300
806.206891	0.125335
806.398204	0.125429
806.589499	0.125478
806.780775	0.125549
806.972033	0.125617
807.163273	0.125680
807.354495	0.125928
807.545698	0.126111
807.736883	0.126418
807.928050	0.126486
808.119199	0.126615
808.310329	0.126644
808.501441	0.126664
808.692535	0.127019
808.883611	0.127102
809.074669	0.127139
809.265708	0.127335
809.456729	0.127330
809.647732	0.127583
809.838717	0.127678
810.029683	0.128038
810.220632	0.128248
810.411562	0.128004
810.602474	0.127876
810.793367	0.127838
810.984242	0.127748
811.175100	0.127936
811.365938	0.127938
811.556759	0.127921
811.747562	0.127782
811.938346	0.127570
812.129112	0.127803
812.319860	0.127902
812.510589	0.128133
812.701300	0.128255
812.891994	0.128380
813.082668	0.128476
813.273325	0.128762
813.463964	0.128803
813.654584	0.129112
813.845186	0.129030
814.035769	0.129183
814.226335	0.129252
814.416882	0.129390
814.607411	0.129453
814.797922	0.129620
814.988415	0.129809
815.178889	0.129793
815.369345	0.129982
815.559783	0.130299
815.750203	0.130478
815.940605	0.130691
816.130988	0.131010
816.321353	0.131240
816.511700	0.131614
816.702028	0.131783
816.892339	0.132234
817.082631	0.132336
817.272905	0.132344
817.463161	0.132490
817.653398	0.132645
817.843617	0.132594
818.033819	0.132661
818.224001	0.132400
818.414166	0.132420
818.604312	0.132566
818.794440	0.132824
818.984550	0.133179
819.174642	0.133401
819.364716	0.133473
819.554771	0.133602
819.744808	0.133359
819.934827	0.133508
820.124827	0.133683
820.314810	0.133788
820.504774	0.133895
820.694720	0.133964
820.884647	0.134034
821.074557	0.134077
821.264448	0.134211
821.454321	0.134823
821.644176	0.134948
821.834012	0.134911
822.023831	0.135090
822.213631	0.134952
822.403413	0.135009
822.593176	0.134891
822.782922	0.135236
822.972649	0.135362
823.162358	0.135133
823.352049	0.135429
823.541721	0.135515
823.731376	0.135386
823.921012	0.135955
824.110629	0.136426
824.300229	0.136677
824.489811	0.136626
824.679374	0.136808
824.868919	0.137333
825.058445	0.137420
825.247954	0.137747
825.437444	0.138258
825.626916	0.138194
825.816370	0.137993
826.005806	0.138221
826.195223	0.138372
826.384622	0.138438
826.574003	0.138682
826.763366	0.139045
826.952711	0.139091
827.142037	0.138972
827.331345	0.139200
827.520635	0.139215
827.709906	0.139650
827.899160	0.139885
828.088395	0.140035
828.277612	0.139927
828.466810	0.139823
828.655991	0.139955
828.845153	0.140235
829.034297	0.140634
829.223423	0.140774
829.412531	0.140681
829.601620	0.140883
829.790691	0.141197
829.979744	0.141586
830.168779	0.142039
830.357795	0.142291
830.546793	0.142513
830.735773	0.142508
830.924735	0.142928
831.113679	0.143011
831.302604	0.143455
831.491511	0.143654
831.680400	0.143693
831.869271	0.143683
832.058123	0.143711
832.246957	0.143858
832.435773	0.143768
832.624571	0.143907
832.813351	0.144095
833.002112	0.143916
833.190855	0.143989
833.379580	0.143995
833.568287	0.144016
833.756975	0.144357
833.945645	0.144279
834.134297	0.144286
834.322931	0.144350
834.511547	0.144467
834.700144	0.144461
834.888723	0.144545
835.077284	0.145039
835.265826	0.145280
835.454351	0.145424
835.642857	0.145602
835.831345	0.146184
836.019815	0.146576
836.208266	0.146930
836.396699	0.147356
836.585114	0.147786
836.773511	0.147892
836.961890	0.148412
837.150250	0.148536
837.338592	0.148963
837.526916	0.149233
837.715222	0.149397
837.903510	0.149759
838.091779	0.149660
838.280030	0.149910
838.468263	0.149849
838.656477	0.149629
838.844674	0.150001
839.032852	0.150143
839.221012	0.150093
839.409153	0.150170
839.597277	0.149892
839.785382	0.150563
839.973469	0.150361
840.161538	0.150436
840.349589	0.150791
840.537621	0.150540
840.725635	0.150485
840.913631	0.150562
841.101609	0.150791
841.289568	0.150988
841.477509	0.150568
841.665432	0.150847
841.853337	0.151085
842.041224	0.150928
842.229092	0.151077
842.416942	0.151436
842.604774	0.151644
842.792588	0.151538
842.980383	0.151912
843.168160	0.152337
843.355919	0.152543
843.543660	0.152724
843.731382	0.153251
843.919087	0.153920
844.106773	0.154275
844.294441	0.154410
844.482090	0.154768
844.669722	0.155134
844.857335	0.155597
845.044930	0.155975
845.232507	0.156528
845.420065	0.156936
845.607605	0.156862
845.795127	0.156903
845.982631	0.157128
846.170117	0.157367
846.357584	0.157504
846.545033	0.157749
846.732464	0.157901
846.919877	0.157844
847.107272	0.157871
847.294648	0.158161
847.482006	0.158257
847.669346	0.158594
847.856667	0.158708
848.043971	0.158970
848.231256	0.159046
848.418523	0.159072
848.605771	0.159525
848.793002	0.159637
848.980214	0.159794
849.167408	0.159995
849.354584	0.160212
849.541742	0.160572
849.728881	0.160894
849.916002	0.160762
850.103105	0.160720
850.290190	0.160465
850.477256	0.160729
850.664304	0.160947
850.851334	0.161105
851.038346	0.161083
851.225340	0.161310
851.412315	0.161272
851.599272	0.161337
851.786211	0.161606
851.973132	0.161896
852.160034	0.161993
852.346918	0.162021
852.533784	0.162275
852.720632	0.162532
852.907462	0.162400
853.094273	0.162220
853.281066	0.162582
853.467841	0.162880
853.654598	0.163020
853.841336	0.163066
854.028056	0.163532
854.214758	0.163875
854.401442	0.163982
854.588107	0.164377
854.774755	0.165019
854.961384	0.165326
855.147995	0.165523
855.334587	0.165706
855.521162	0.166033
855.707718	0.166181
855.894256	0.166294
856.080775	0.166806
856.267277	0.166962
856.453760	0.167087
856.640225	0.167346
856.826672	0.167473
857.013101	0.167851
857.199511	0.167882
857.385903	0.167852
857.572277	0.168228
857.758633	0.168472
857.944970	0.168766
858.131290	0.168858
858.317591	0.168977
858.503873	0.169165
858.690138	0.169398
858.876384	0.169494
859.062612	0.169538
859.248822	0.169229
859.435014	0.169259
859.621188	0.169363
859.807343	0.169380
859.993480	0.169476
860.179599	0.169671
860.365699	0.169815
860.551781	0.170312
860.737846	0.170573
860.923891	0.170980
861.109919	0.171193
861.295929	0.171589
861.481920	0.171752
861.667893	0.172056
861.853848	0.172587
862.039784	0.172769
862.225702	0.172921
862.411603	0.173188
862.597484	0.173406
862.783348	0.173263
862.969193	0.173269
863.155021	0.173713
863.340830	0.173590
863.526620	0.173429
863.712393	0.173376
863.898147	0.173616
864.083883	0.174132
864.269601	0.174177
864.455301	0.174203
864.640982	0.174307
864.826645	0.174425
865.012290	0.174630
865.197917	0.174872
865.383526	0.175105
865.569116	0.175078
865.754688	0.174801
865.940242	0.175172
866.125777	0.175543
866.311295	0.175798
866.496794	0.175777
866.682275	0.176121
866.867737	0.176414
867.053182	0.176506
867.238608	0.176759
867.424016	0.177147
867.609406	0.177136
867.794778	0.177271
867.980131	0.177201
868.165466	0.177417
868.350783	0.177405
868.536082	0.177257
868.721362	0.177253
868.906625	0.177249
869.091869	0.177183
869.277094	0.177270
869.462302	0.177335
869.647491	0.177978
869.832662	0.178149
870.017815	0.178204
870.202950	0.178331
870.388066	0.178871
870.573165	0.178820
870.758245	0.179296
870.943306	0.179456
871.128350	0.179857
871.313375	0.179444
871.498382	0.179586
871.683371	0.180035
871.868342	0.180139
872.053294	0.180103
872.238229	0.180317
872.423144	0.180375
872.608042	0.180573
872.792922	0.180463
872.977783	0.180742
873.162626	0.180959
873.347451	0.180849
873.532258	0.180837
873.717046	0.181005
873.901816	0.181137
874.086568	0.181065
874.271302	0.181409
874.456017	0.181714
874.640715	0.181822
874.825394	0.181731
875.010055	0.181862
875.194697	0.182358
875.379322	0.182425
875.563928	0.182739
875.748516	0.183048
875.933085	0.182848
876.117637	0.182905
876.302170	0.183025
876.486685	0.183281
876.671182	0.183452
876.855661	0.183422
877.040121	0.183314
877.224563	0.183571
877.408987	0.183519
877.593393	0.183880
877.777780	0.183938
877.962150	0.184070
878.146501	0.183984
878.330833	0.184117
878.515148	0.184525
878.699444	0.184864
878.883722	0.184667
879.067982	0.184858
879.252224	0.184931
879.436447	0.185060
879.620653	0.184879
879.804840	0.184948
879.989008	0.185016
880.173159	0.184936
880.357291	0.185416
880.541405	0.185763
880.725501	0.185757
880.909579	0.185575
881.093638	0.185571
881.277680	0.186086
881.461703	0.186183
881.645707	0.186090
881.829694	0.185921
882.013662	0.185197
882.197612	0.184755
882.381544	0.184853
882.565458	0.184965
882.749353	0.185109
882.933230	0.185173
883.117089	0.185363
883.300930	0.185729
883.484753	0.185999
883.668557	0.186415
883.852343	0.186658
884.036111	0.186553
884.219861	0.186386
884.403592	0.186121
884.587305	0.185692
884.771000	0.185649
884.954677	0.185863
885.138335	0.185490
885.321976	0.185653
885.505598	0.185850
885.689201	0.186241
885.872787	0.186316
886.056354	0.186425
886.239904	0.186728
886.423434	0.186889
886.606947	0.186419
886.790442	0.186272
886.973918	0.185703
887.157376	0.185588
887.340816	0.185079
887.524237	0.185113
887.707641	0.185318
887.891026	0.185250
888.074393	0.184837
888.257741	0.184807
888.441072	0.185473
888.624384	0.186028
888.807678	0.186022
888.990954	0.186094
889.174211	0.186319
889.357451	0.186114
889.540672	0.186177
889.723875	0.186529
889.907059	0.186629
890.090226	0.186236
890.273374	0.186033
890.456504	0.186071
890.639616	0.186214
890.822709	0.186230
891.005785	0.186321
891.188842	0.186128
891.371881	0.186192
891.554901	0.186427
891.737904	0.186834
891.920888	0.186665
892.103854	0.186530
892.286802	0.186149
892.469731	0.185598
892.652643	0.186288
892.835536	0.186528
893.018410	0.186357
893.201267	0.186204
893.384106	0.185911
893.566926	0.186236
893.749728	0.186238
893.932511	0.186748
894.115277	0.187189
894.298024	0.186367
894.480753	0.186249
894.663464	0.186448
894.846157	0.186056
895.028831	0.186033
895.211487	0.185669
895.394125	0.185632
895.576745	0.185082
895.759346	0.184595
895.941930	0.184588
896.124495	0.184333
896.307041	0.184202
896.489570	0.184522
896.672080	0.184681
896.854573	0.184969
897.037046	0.185015
897.219502	0.185587
897.401940	0.186542
897.584359	0.186349
897.766760	0.186393
897.949143	0.186044
898.131507	0.185865
898.313854	0.185820
898.496182	0.185828
898.678492	0.185343
898.860783	0.185081
899.043057	0.184734
899.225312	0.184938
899.407549	0.185210
899.589768	0.185131
899.771968	0.184940
899.954151	0.184570
900.136315	0.184355
900.318461	0.184564
900.500588	0.184345
900.682698	0.183960
900.864789	0.183541
901.046862	0.183125
901.228917	0.183208
901.410953	0.183602
901.592971	0.183869
901.774972	0.183583
901.956953	0.183794
902.138917	0.183561
902.320862	0.183445
902.502790	0.183870
902.684699	0.183610
902.866589	0.183706
903.048462	0.183396
903.230316	0.182900
903.412152	0.182771
903.593970	0.182734
903.775770	0.182747
903.957551	0.182901
904.139314	0.182412
904.321059	0.182226
904.502786	0.181949
904.684494	0.181735
904.866185	0.181517
905.047857	0.181453
905.229510	0.181055
905.411146	0.180402
905.592763	0.179649
905.774363	0.179139
905.955943	0.179029
906.137506	0.178230
906.319051	0.177685
906.500577	0.177228
906.682085	0.176887
906.863575	0.176652
907.045046	0.176897
907.226500	0.176819
907.407935	0.177009
907.589352	0.176656
907.770750	0.176877
907.952131	0.177213
908.133493	0.177090
908.314837	0.177580
908.496163	0.177156
908.677470	0.176612
908.858760	0.175980
909.040031	0.175697
909.221284	0.175765
909.402518	0.175075
909.583735	0.174641
909.764933	0.174504
909.946113	0.173809
910.127275	0.173905
910.308418	0.174044
910.489544	0.174304
910.670651	0.174387
910.851740	0.174001
911.032810	0.174201
911.213863	0.173736
911.394897	0.173582
911.575913	0.173037
911.756911	0.172203
911.937890	0.171946
912.118851	0.171676
912.299794	0.171183
912.480719	0.170721
912.661626	0.170049
912.842514	0.170533
913.023384	0.170859
913.204236	0.170781
913.385070	0.170846
913.565886	0.170688
913.746683	0.170035
913.927462	0.169288
914.108223	0.169139
914.288965	0.169171
914.469690	0.168237
914.650396	0.167272
914.831084	0.167270
915.011754	0.167033
915.192405	0.166723
915.373038	0.167387
915.553653	0.167217
915.734250	0.166697
915.914829	0.166695
916.095389	0.166497
916.275931	0.166218
916.456455	0.165675
916.636961	0.165183
916.817448	0.164732
916.997917	0.164061
917.178368	0.164335
917.358801	0.164712
917.539216	0.164536
917.719612	0.164478
917.899990	0.164256
918.080350	0.164099
918.260692	0.164039
918.441015	0.164018
918.621320	0.163666
918.801607	0.163437
918.981876	0.162715
919.162127	0.162282
919.342359	0.162118
919.522573	0.161756
919.702769	0.161204
919.882947	0.160730
920.063106	0.160309
920.243247	0.160361
920.423370	0.159962
920.603475	0.159697
920.783562	0.159505
920.963630	0.159266
921.143680	0.159159
921.323712	0.159143
921.503725	0.159493
921.683721	0.159103
921.863698	0.158657
922.043657	0.158406
922.223598	0.158413
922.403520	0.157895
922.583424	0.157077
922.763311	0.156840
922.943178	0.156185
923.123028	0.155855
923.302859	0.155252
923.482673	0.154246
923.662467	0.153642
923.842244	0.153416
924.022003	0.153297
924.201743	0.152812
924.381465	0.152734
924.561169	0.152758
924.740854	0.152110
924.920522	0.152621
925.100171	0.152784
925.279802	0.152645
925.459414	0.152153
925.639009	0.151716
925.818585	0.151557
925.998143	0.150847
926.177683	0.150258
926.357205	0.149654
926.536708	0.148428
926.716193	0.148204
926.895660	0.147524
927.075109	0.147315
927.254539	0.146992
927.433951	0.146594
927.613345	0.146840
927.792721	0.147046
927.972079	0.147258
928.151418	0.147143
928.330739	0.146761
928.510042	0.146489
928.689327	0.145985
928.868593	0.145534
929.047841	0.145167
929.227071	0.144558
929.406283	0.143714
929.585476	0.142448
929.764652	0.141813
929.943809	0.140626
930.122948	0.139974
930.302068	0.138912
930.481171	0.138374
930.660255	0.138060
930.839321	0.137166
931.018369	0.136988
931.197398	0.136678
931.376409	0.137358
931.555402	0.137727
931.734377	0.137330
931.913334	0.137531
932.092272	0.136972
932.271192	0.136522
932.450094	0.136888
932.628978	0.135965
932.807844	0.135843
932.986691	0.134341
933.165520	0.133623
933.344331	0.133333
933.523123	0.132236
933.701898	0.132096
933.880654	0.131300
934.059392	0.129804
934.238111	0.129744
934.416813	0.129318
934.595496	0.128567
934.774161	0.128261
934.952808	0.128336
935.131437	0.128197
935.310047	0.128150
935.488639	0.127489
935.667213	0.127367
935.845769	0.126968
936.024306	0.126138
936.202825	0.126311
936.381326	0.125271
936.559809	0.124643
936.738274	0.125073
936.916720	0.124462
937.095148	0.125082
937.273558	0.124409
937.451950	0.123660
937.630323	0.123827
937.808678	0.123644
937.987015	0.124272
938.165334	0.123255
938.343635	0.122283
938.521917	0.121640
938.700181	0.120342
938.878427	0.119365
939.056655	0.118561
939.234864	0.117672
939.413055	0.116850
939.591228	0.115518
939.769383	0.115794
939.947519	0.115376
940.125638	0.114210
940.303738	0.113917
940.481820	0.113055
940.659883	0.112317
940.837929	0.111157
941.015956	0.110742
941.193965	0.110695
941.371955	0.109930
941.549928	0.109801
941.727882	0.109574
941.905818	0.109010
942.083736	0.109806
942.261636	0.108934
942.439517	0.109239
942.617380	0.108885
942.795225	0.107299
942.973052	0.107392
943.150860	0.106934
943.328651	0.105878
943.506423	0.105472
943.684176	0.104978
943.861912	0.106626
944.039629	0.106064
944.217328	0.105566
944.395009	0.105745
944.572672	0.104718
944.750317	0.103897
944.927943	0.103963
945.105551	0.103779
945.283141	0.103524
945.460712	0.101657
945.638265	0.101769
945.815801	0.101235
945.993317	0.102067
946.170816	0.100179
946.348297	0.099635
946.525759	0.099569
946.703203	0.099146
946.880629	0.098596
947.058036	0.097667
947.235425	0.096781
947.412797	0.096035
947.590149	0.094572
947.767484	0.096494
947.944800	0.097156
948.122099	0.096862
948.299379	0.095766
948.476640	0.095040
948.653884	0.094567
948.831109	0.093460
949.008316	0.092991
949.185505	0.092178
949.362676	0.091105
949.539828	0.089624
949.716962	0.088692
949.894078	0.089247
950.071176	0.089143
950.248256	0.089793
950.425317	0.091052
950.602360	0.092636
950.779385	0.093009
950.956391	0.092022
951.133380	0.091375
951.310350	0.092080
951.487302	0.091688
951.664235	0.090871
951.841151	0.090663
952.018048	0.088841
952.194927	0.087083
952.371788	0.086277
952.548631	0.087046
952.725455	0.085588
952.902261	0.084122
953.079049	0.084966
953.255819	0.085953
953.432570	0.084759
953.609303	0.084501
953.786018	0.083655
953.962715	0.083927
954.139394	0.081716
954.316054	0.082570
954.492696	0.082013
954.669320	0.081975
954.845926	0.079467
955.022513	0.080504
955.199083	0.079961
955.375634	0.080018
955.552166	0.078460
955.728681	0.077866
955.905177	0.076910
956.081655	0.077987
956.258115	0.075823
956.434557	0.077066
956.610980	0.076662
956.787385	0.077344
956.963772	0.076206
957.140141	0.076133
957.316492	0.078229
957.492824	0.078413
957.669138	0.076958
957.845434	0.077477
958.021712	0.076133
958.197971	0.075986
958.374212	0.075755
958.550435	0.074826
958.726640	0.076032
958.902826	0.074860
959.078995	0.073541
959.255145	0.074269
959.431277	0.072527
959.607390	0.074112
959.783486	0.073603
959.959563	0.075412
960.135622	0.076108
960.311662	0.074230
960.487685	0.074160
960.663689	0.075532
960.839675	0.074570
961.015643	0.075067
961.191593	0.073981
961.367524	0.073224
961.543437	0.069196
961.719332	0.068910
961.895209	0.069709
962.071067	0.070921
962.246907	0.070939
962.422730	0.072187
962.598533	0.071715
962.774319	0.071139
962.950086	0.071230
963.125835	0.071968
963.301566	0.071898
963.477279	0.071340
963.652973	0.068582
963.828650	0.068880
964.004308	0.068464
964.179947	0.069063
964.355569	0.070117
964.531172	0.070410
964.706757	0.071471
964.882324	0.072036
965.057873	0.073112
965.233403	0.072785
965.408916	0.072329
965.584410	0.071704
965.759885	0.071853
965.935343	0.073310
966.110782	0.072564
966.286203	0.070379
966.461606	0.070208
966.636991	0.069291
966.812357	0.072409
966.987705	0.073519
967.163035	0.074193
967.338347	0.072532
967.513641	0.070320
967.688916	0.072320
967.864173	0.074073
968.039412	0.074187
968.214632	0.073207
968.389835	0.073364
968.565019	0.072764
968.740185	0.071990
968.915333	0.072849
969.090462	0.072520
969.265573	0.073088
969.440667	0.074025
969.615741	0.074687
969.790798	0.076553
969.965836	0.077512
970.140856	0.077229
970.315858	0.078335
970.490842	0.076122
970.665808	0.076695
970.840755	0.074649
971.015684	0.072830
971.190595	0.071563
971.365487	0.072480
971.540362	0.068892
971.715218	0.069741
971.890056	0.068603
972.064875	0.072072
972.239677	0.072655
972.414460	0.072808
972.589225	0.074014
972.763972	0.074210
972.938700	0.071540
973.113411	0.072669
973.288103	0.071416
973.462777	0.070979
973.637432	0.070171
973.812070	0.069123
973.986689	0.069344
974.161290	0.068959
974.335873	0.069848
974.510437	0.071972
974.684984	0.071890
974.859512	0.072402
975.034022	0.074691
975.208513	0.074941
975.382987	0.075300
975.557442	0.075184
975.731879	0.075411
975.906298	0.075111
976.080698	0.073549
976.255080	0.073497
976.429445	0.071789
976.603790	0.069521
976.778118	0.068042
976.952427	0.067930
977.126719	0.065187
977.300992	0.066685
977.475246	0.067678
977.649483	0.068867
977.823701	0.068863
977.997901	0.069924
978.172083	0.070584
978.346247	0.072065
978.520392	0.072237
978.694519	0.075992
978.868628	0.076110
979.042719	0.074103
979.216791	0.074192
979.390845	0.075291
979.564882	0.074750
979.738899	0.074238
979.912899	0.075426
980.086880	0.075621
980.260843	0.074127
980.434788	0.072623
980.608715	0.073824
980.782623	0.074407
980.956514	0.073850
981.130386	0.075233
981.304240	0.076602
981.478075	0.074986
981.651892	0.074377
981.825692	0.072897
981.999472	0.072048
982.173235	0.070655
982.346980	0.069375
982.520706	0.069478
982.694414	0.069604
982.868104	0.068707
983.041775	0.070413
983.215428	0.071480
983.389064	0.072819
983.562680	0.075771
983.736279	0.077290
983.909860	0.076847
984.083422	0.076626
984.256966	0.076222
984.430491	0.076665
984.603999	0.075064
984.777488	0.074637
984.950959	0.075193
985.124412	0.073302
985.297847	0.073618
985.471263	0.073129
985.644661	0.072908
985.818041	0.073742
985.991403	0.072988
986.164747	0.071604
986.338072	0.072414
986.511379	0.072668
986.684668	0.073229
986.857938	0.071926
987.031191	0.075611
987.204425	0.075739
987.377641	0.074180
987.550839	0.073970
987.724018	0.075983
987.897179	0.075770
988.070322	0.076656
988.243447	0.076190
988.416554	0.076272
988.589642	0.074778
988.762712	0.074643
988.935764	0.074188
989.108798	0.075142
989.281813	0.074381
989.454811	0.073423
989.627790	0.070948
989.800751	0.071947
989.973693	0.073954
990.146617	0.072314
990.319524	0.072737
990.492412	0.074727
990.665281	0.076426
990.838133	0.078157
991.010966	0.078254
991.183781	0.079647
991.356578	0.079477
991.529356	0.079363
991.702117	0.079699
991.874859	0.079626
992.047583	0.078532
992.220288	0.076303
992.392976	0.074429
992.565645	0.074361
992.738296	0.074198
992.910929	0.072902
993.083543	0.070349
993.256139	0.071663
993.428718	0.073764
993.601277	0.072034
993.773819	0.073218
993.946342	0.074117
994.118848	0.074557
994.291335	0.074434
994.463803	0.073904
994.636254	0.075818
994.808686	0.074678
994.981100	0.072779
995.153496	0.073985
995.325874	0.073355
995.498233	0.072772
995.670574	0.073518
995.842897	0.075038
996.015202	0.074616
996.187488	0.075004
996.359757	0.075282
996.532007	0.073779
996.704239	0.073951
996.876452	0.072490
997.048648	0.071739
997.220825	0.070788
997.392984	0.069329
997.565124	0.071242
997.737247	0.071876
997.909351	0.072173
998.081437	0.072527
998.253505	0.072379
998.425554	0.073252
998.597586	0.074478
998.769599	0.074939
998.941594	0.074538
999.113571	0.074975
999.285529	0.072686
999.457469	0.072411
999.629391	0.073033
999.801295	0.072704
999.973181	0.073509
1000.145048	0.072392
1000.316897	0.071436
1000.488728	0.072023
1000.660541	0.070016
1000.832335	0.069191
1001.004111	0.068557
1001.175869	0.070744
1001.347609	0.072145
1001.519331	0.070505
1001.691034	0.072181
1001.862719	0.072628
1002.034386	0.072411
1002.206035	0.075279
1002.377665	0.075928
1002.549277	0.076099
1002.720871	0.073986
1002.892447	0.073678
1003.064004	0.075847
1003.235544	0.075112
1003.407065	0.074554
1003.578568	0.074450
1003.750052	0.073565
1003.921519	0.074969
1004.092967	0.076071
1004.264397	0.076082
1004.435809	0.076511
1004.607202	0.074254
1004.778577	0.074512
1004.949934	0.075489
1005.121273	0.076902
1005.292594	0.074775
1005.463896	0.075575
1005.635180	0.074375
1005.806446	0.076848
1005.977694	0.077324
1006.148923	0.079058
1006.320135	0.079217
1006.491328	0.079731
1006.662503	0.079502
1006.833659	0.080042
1007.004798	0.079253
1007.175918	0.079734
1007.347020	0.078027
1007.518103	0.075562
1007.689169	0.075206
1007.860216	0.075137
1008.031245	0.073690
1008.202256	0.071932
1008.373248	0.072551
1008.544223	0.071102
1008.715179	0.071462
1008.886117	0.070033
1009.057036	0.071664
1009.227938	0.072393
1009.398821	0.071886
1009.569686	0.072623
1009.740533	0.075190
1009.911361	0.075466
1010.082172	0.077372
1010.252964	0.077251
1010.423738	0.078010
1010.594493	0.076268
1010.765231	0.076178
1010.935950	0.075957
1011.106651	0.075855
1011.277334	0.074325
1011.447998	0.073753
1011.618645	0.073146
1011.789273	0.075165
1011.959882	0.075859
1012.130474	0.077292
1012.301048	0.076966
1012.471603	0.077147
1012.642140	0.078117
1012.812658	0.078228
1012.983159	0.079365
1013.153641	0.079573
1013.324105	0.075936
1013.494551	0.076872
1013.664979	0.077418
1013.835388	0.078777
1014.005779	0.079234
1014.176152	0.077453
1014.346507	0.076215
1014.516843	0.074393
1014.687162	0.074080
1014.857462	0.075923
1015.027744	0.073010
1015.198007	0.072936
1015.368252	0.070943
1015.538480	0.070256
1015.708689	0.071908
1015.878879	0.073308
1016.049052	0.074316
1016.219206	0.074064
1016.389342	0.073373
1016.559460	0.074672
1016.729559	0.074987
1016.899641	0.073607
1017.069704	0.073445
1017.239749	0.072839
1017.409775	0.072919
1017.579784	0.074561
1017.749774	0.072347
1017.919746	0.070976
1018.089700	0.071481
1018.259635	0.069826
1018.429553	0.070917
1018.599452	0.070964
1018.769333	0.069965
1018.939195	0.069264
1019.109040	0.068210
1019.278866	0.069914
1019.448674	0.071008
1019.618464	0.070543
1019.788235	0.071780
1019.957989	0.072159
1020.127724	0.073363
1020.297441	0.072782
1020.467139	0.071628
1020.636820	0.072153
1020.806482	0.073056
1020.976126	0.073122
1021.145752	0.073044
1021.315359	0.073578
1021.484948	0.072568
1021.654519	0.071118
1021.824072	0.071692
1021.993607	0.072671
1022.163123	0.071332
1022.332621	0.071828
1022.502101	0.071339
1022.671563	0.071505
1022.841007	0.069748
1023.010432	0.070258
1023.179839	0.069056
1023.349228	0.069418
1023.518598	0.068601
1023.687951	0.068752
1023.857285	0.066850
1024.026601	0.066350
1024.195899	0.065133
1024.365178	0.066050
1024.534439	0.066541
1024.703682	0.068910
1024.872907	0.069634
1025.042114	0.069745
1025.211302	0.070616
1025.380472	0.070640
1025.549624	0.071848
1025.718758	0.072472
1025.887873	0.072150
1026.056970	0.072460
1026.226049	0.072452
1026.395110	0.071578
1026.564153	0.073176
1026.733177	0.071479
1026.902183	0.071810
1027.071171	0.071434
1027.240141	0.072031
1027.409092	0.071651
1027.578026	0.071135
1027.746940	0.069989
1027.915837	0.069543
1028.084716	0.069148
1028.253576	0.070817
1028.422418	0.069926
1028.591242	0.071657
1028.760048	0.070877
1028.928835	0.070514
1029.097604	0.071306
1029.266355	0.071997
1029.435088	0.072535
1029.603803	0.073649
1029.772499	0.073026
1029.941177	0.075083
1030.109837	0.071865
1030.278478	0.072271
1030.447102	0.073491
1030.615707	0.073158
1030.784294	0.072268
1030.952863	0.071632
1031.121413	0.071168
1031.289945	0.071206
1031.458460	0.070298
1031.626955	0.069874
1031.795433	0.068410
1031.963892	0.066791
1032.132334	0.065907
1032.300756	0.066300
1032.469161	0.066649
1032.637548	0.064876
1032.805916	0.064685
1032.974266	0.063554
1033.142598	0.064815
1033.310911	0.067288
1033.479207	0.069383
1033.647484	0.070523
1033.815743	0.070568
1033.983983	0.071241
1034.152206	0.073143
1034.320410	0.072660
1034.488596	0.071868
1034.656764	0.073070
1034.824914	0.072053
1034.993045	0.070774
1035.161158	0.069919
1035.329253	0.070745
1035.497330	0.071933
1035.665388	0.071061
1035.833428	0.071023
1036.001450	0.071815
1036.169454	0.070384
1036.337440	0.070301
1036.505407	0.070326
1036.673356	0.070969
1036.841287	0.068801
1037.009200	0.066118
1037.177094	0.066170
1037.344970	0.066210
1037.512828	0.067229
1037.680668	0.067207
1037.848489	0.068406
1038.016293	0.067904
1038.184078	0.066200
1038.351845	0.066812
1038.519593	0.067101
1038.687324	0.068124
1038.855036	0.067463
1039.022730	0.068726
1039.190406	0.069738
1039.358063	0.068242
1039.525702	0.069575
1039.693323	0.070583
1039.860926	0.071075
1040.028511	0.072534
1040.196077	0.072359
1040.363625	0.073648
1040.531155	0.071255
1040.698667	0.070175
1040.866161	0.069544
1041.033636	0.068128
1041.201093	0.067161
1041.368532	0.067621
1041.535952	0.067611
1041.703355	0.066101
1041.870739	0.065319
1042.038105	0.066609
1042.205452	0.067189
1042.372782	0.067850
1042.540093	0.068051
1042.707386	0.069820
1042.874661	0.068865
1043.041918	0.067721
1043.209156	0.068085
1043.376376	0.068621
1043.543578	0.067112
1043.710762	0.067450
1043.877927	0.067143
1044.045074	0.067768
1044.212203	0.066210
1044.379314	0.066038
1044.546407	0.065396
1044.713481	0.064495
1044.880537	0.063781
1045.047575	0.064559
1045.214595	0.063654
1045.381596	0.062413
1045.548579	0.063278
1045.715544	0.064325
1045.882491	0.066055
1046.049420	0.066657
1046.216330	0.067792
1046.383222	0.068312
1046.550096	0.069302
1046.716951	0.069494
1046.883789	0.071746
1047.050608	0.070567
1047.217409	0.070825
1047.384192	0.069661
1047.550956	0.070952
1047.717703	0.070401
1047.884431	0.069511
1048.051140	0.068911
1048.217832	0.069423
1048.384505	0.068727
1048.551161	0.068892
1048.717798	0.067089
1048.884416	0.067826
1049.051017	0.066790
1049.217599	0.067074
1049.384163	0.068422
1049.550709	0.068393
1049.717237	0.069141
1049.883746	0.069829
1050.050237	0.068137
1050.216710	0.069225
1050.383165	0.069157
1050.549601	0.067927
1050.716019	0.067458
1050.882420	0.067370
1051.048801	0.069165
1051.215165	0.067789
1051.381510	0.067642
1051.547837	0.069444
1051.714146	0.069843
1051.880437	0.068825
1052.046709	0.070994
1052.212964	0.072295
1052.379200	0.071583
1052.545417	0.071194
1052.711617	0.071396
1052.877798	0.070247
1053.043961	0.070522
1053.210106	0.070503
1053.376233	0.070305
1053.542341	0.067969
1053.708432	0.067749
1053.874504	0.067524
1054.040557	0.064848
1054.206593	0.064429
1054.372610	0.064807
1054.538609	0.064825
1054.704590	0.063767
1054.870553	0.064959
1055.036497	0.066741
1055.202424	0.067996
1055.368331	0.068573
1055.534221	0.069087
1055.700093	0.070403
1055.865946	0.072660
1056.031781	0.070555
1056.197598	0.072288
1056.363397	0.071668
1056.529177	0.069933
1056.694939	0.067581
1056.860683	0.067095
1057.026409	0.068467
1057.192116	0.068356
1057.357806	0.066480
1057.523477	0.067594
1057.689130	0.066286
1057.854764	0.067525
1058.020381	0.068686
1058.185979	0.068928
1058.351559	0.069485
1058.517120	0.069125
1058.682664	0.067819
1058.848189	0.069207
1059.013696	0.069621
1059.179185	0.071223
1059.344656	0.069832
1059.510108	0.069377
1059.675542	0.068834
1059.840958	0.068419
1060.006356	0.069088
1060.171735	0.069320
1060.337096	0.064772
1060.502439	0.064251
1060.667764	0.062057
1060.833071	0.063091
1060.998359	0.064857
1061.163629	0.066529
1061.328881	0.067215
1061.494115	0.066411
1061.659330	0.065890
1061.824527	0.070059
1061.989706	0.071997
1062.154867	0.073626
1062.320010	0.072142
1062.485134	0.072606
1062.650240	0.071668
1062.815328	0.070835
1062.980398	0.069875
1063.145449	0.070294
1063.310482	0.069826
1063.475497	0.068257
1063.640494	0.067299
1063.805473	0.069256
1063.970433	0.066538
1064.135375	0.066701
1064.300299	0.069704
1064.465204	0.070908
1064.630092	0.071197
1064.794961	0.070797
1064.959812	0.070423
1065.124645	0.071639
1065.289459	0.067769
1065.454256	0.069264
1065.619034	0.069495
1065.783793	0.068336
1065.948535	0.068995
1066.113258	0.069478
1066.277964	0.069873
1066.442651	0.069527
1066.607319	0.068525
1066.771970	0.071624
1066.936602	0.071192
1067.101216	0.072562
1067.265812	0.071512
1067.430389	0.069810
1067.594949	0.070684
1067.759490	0.069671
1067.924013	0.070077
1068.088518	0.070822
1068.253004	0.070608
1068.417472	0.069834
1068.581922	0.070093
1068.746354	0.069141
1068.910768	0.070678
1069.075163	0.071203
1069.239540	0.072665
1069.403899	0.074509
1069.568240	0.073210
1069.732562	0.072227
1069.896866	0.074846
1070.061152	0.075888
1070.225420	0.079209
1070.389670	0.077026
1070.553901	0.074887
1070.718114	0.075075
1070.882309	0.074621
1071.046486	0.077912
1071.210644	0.079954
1071.374784	0.077731
1071.538906	0.074307
1071.703010	0.073719
1071.867096	0.075132
1072.031163	0.075785
1072.195212	0.075167
1072.359243	0.074877
1072.523256	0.073071
1072.687250	0.071734
1072.851226	0.072965
1073.015184	0.073708
1073.179124	0.072604
1073.343045	0.073404
1073.506949	0.072787
1073.670834	0.071667
1073.834701	0.072060
1073.998549	0.072377
1074.162380	0.072745
1074.326192	0.075112
1074.489986	0.075212
1074.653761	0.074210
1074.817519	0.073902
1074.981258	0.075740
1075.144979	0.076785
1075.308682	0.074335
1075.472367	0.074926
1075.636033	0.071952
1075.799681	0.067162
1075.963311	0.066645
1076.126923	0.068311
1076.290516	0.067997
1076.454092	0.068483
1076.617649	0.066037
1076.781187	0.068546
1076.944708	0.065311
1077.108210	0.067313
1077.271695	0.069297
1077.435160	0.069315
1077.598608	0.068202
1077.762038	0.068231
1077.925449	0.068162
1078.088842	0.073426
1078.252217	0.073885
1078.415573	0.074897
1078.578912	0.076213
1078.742232	0.077904
1078.905534	0.076293
1079.068817	0.075056
1079.232083	0.075517
1079.395330	0.076261
1079.558559	0.072687
1079.721770	0.072542
1079.884962	0.074982
1080.048136	0.074299
1080.211293	0.071081
1080.374430	0.071380
1080.537550	0.071778
1080.700651	0.070867
1080.863735	0.070105
1081.026800	0.073182
1081.189846	0.070598
1081.352875	0.069864
1081.515885	0.070021
1081.678877	0.073677
1081.841851	0.076792
1082.004807	0.078282
1082.167744	0.078838
1082.330663	0.077124
1082.493564	0.075223
1082.656447	0.075277
1082.819312	0.075346
1082.982158	0.075509
1083.144986	0.073814
1083.307796	0.073902
1083.470587	0.072520
1083.633361	0.072929
1083.796116	0.072832
1083.958853	0.072927
1084.121571	0.075062
1084.284272	0.072732
1084.446954	0.074016
1084.609618	0.074293
1084.772264	0.070800
1084.934892	0.070437
1085.097501	0.069639
1085.260092	0.071861
1085.422665	0.071044
1085.585220	0.070274
1085.747756	0.074064
1085.910274	0.072618
1086.072774	0.071811
1086.235256	0.074150
1086.397720	0.074721
1086.560165	0.074543
1086.722592	0.071314
1086.885001	0.071241
1087.047392	0.071925
1087.209764	0.072315
1087.372119	0.074898
1087.534455	0.076485
1087.696772	0.077577
1087.859072	0.080408
1088.021353	0.080804
1088.183616	0.081632
1088.345861	0.082382
1088.508088	0.081458
1088.670296	0.080799
1088.832486	0.076515
1088.994658	0.076708
1089.156812	0.076226
1089.318948	0.071559
1089.481065	0.073233
1089.643164	0.078181
1089.805245	0.077344
1089.967308	0.076282
1090.129352	0.075339
1090.291378	0.079102
1090.453386	0.075934
1090.615376	0.075482
1090.777347	0.076907
1090.939301	0.075627
1091.101236	0.069884
1091.263153	0.069702
1091.425051	0.070589
1091.586932	0.069624
1091.748794	0.067183
1091.910638	0.066828
1092.072463	0.067420
1092.234271	0.068286
1092.396060	0.067596
1092.557831	0.068231
1092.719584	0.069105
1092.881319	0.070173
1093.043035	0.069374
1093.204733	0.069032
1093.366413	0.071173
1093.528075	0.070801
1093.689718	0.072138
1093.851343	0.073022
1094.012950	0.073511
1094.174539	0.074473
1094.336110	0.076058
1094.497662	0.078646
1094.659196	0.080060
1094.820712	0.079695
1094.982210	0.081516
1095.143689	0.080440
1095.305151	0.082608
1095.466594	0.084202
1095.628018	0.084141
1095.789425	0.083304
1095.950813	0.081987
1096.112183	0.081385
1096.273535	0.081667
1096.434869	0.080731
1096.596184	0.083097
1096.757482	0.082224
1096.918761	0.080908
1097.080021	0.078018
1097.241264	0.078920
1097.402488	0.079869
1097.563694	0.079762
1097.724882	0.084147
1097.886052	0.085653
1098.047203	0.084637
1098.208336	0.083239
1098.369451	0.088678
1098.530548	0.091095
1098.691627	0.088744
1098.852687	0.089692
1099.013729	0.088004
1099.174753	0.081713
1099.335758	0.080730
1099.496746	0.075788
1099.657715	0.077552
1099.818666	0.075287
1099.979599	0.073336
1100.140513	0.076389
1100.301409	0.074683
1100.462287	0.076091
1100.623147	0.080868
1100.783989	0.080313
1100.944812	0.080368
1101.105617	0.079776
1101.266404	0.078603
1101.427173	0.079828
1101.587923	0.076651
1101.748656	0.079722
1101.909370	0.082835
1102.070066	0.077334
1102.230743	0.079638
1102.391403	0.082644
1102.552044	0.079687
1102.712667	0.081468
1102.873271	0.081641
1103.033858	0.082468
1103.194426	0.077288
1103.354976	0.074911
1103.515508	0.078378
1103.676021	0.073394
1103.836517	0.077120
1103.996994	0.082292
1104.157453	0.084286
1104.317893	0.081474
1104.478316	0.084075
1104.638720	0.084013
1104.799106	0.086041
1104.959474	0.085187
1105.119823	0.086374
1105.280155	0.084096
1105.440468	0.082355
1105.600763	0.079301
1105.761039	0.082914
1105.921298	0.081811
1106.081538	0.082861
1106.241760	0.081370
1106.401964	0.082784
1106.562149	0.082803
1106.722316	0.082213
1106.882465	0.086155
1107.042596	0.085536
1107.202709	0.084115
1107.362803	0.082632
1107.522879	0.083908
1107.682937	0.083340
1107.842977	0.080225
1108.002999	0.078145
1108.163002	0.074575
1108.322987	0.070715
1108.482954	0.074406
1108.642902	0.074783
1108.802833	0.073790
1108.962745	0.075986
1109.122639	0.076833
1109.282515	0.078157
1109.442372	0.083413
1109.602211	0.090523
1109.762032	0.088750
1109.921835	0.086682
1110.081620	0.087065
1110.241386	0.092570
1110.401134	0.090763
1110.560864	0.087549
1110.720576	0.089963
1110.880269	0.085769
1111.039945	0.081667
1111.199602	0.080035
1111.359240	0.077594
1111.518861	0.079330
1111.678463	0.076335
1111.838047	0.072077
1111.997613	0.076558
1112.157161	0.075487
1112.316690	0.077845
1112.476202	0.081179
1112.635695	0.079130
1112.795169	0.080691
1112.954626	0.080256
1113.114064	0.081784
1113.273484	0.084353
1113.432886	0.084130
1113.592270	0.084072
1113.751635	0.084353
1113.910983	0.080010
1114.070312	0.089354
1114.229622	0.087318
1114.388915	0.085291
1114.548189	0.083003
1114.707445	0.080814
1114.866683	0.078240
1115.025903	0.075940
1115.185104	0.075601
1115.344287	0.078456
1115.503452	0.069121
1115.662599	0.070027
1115.821727	0.073339
1115.980838	0.071939
1116.139930	0.073551
1116.299004	0.074567
1116.458059	0.080678
1116.617097	0.080186
1116.776116	0.077696
1116.935117	0.080181
1117.094099	0.079547
1117.253064	0.079358
1117.412010	0.079714
1117.570938	0.081238
1117.729848	0.085696
1117.888740	0.080483
1118.047613	0.083739
1118.206468	0.088419
1118.365305	0.091951
1118.524124	0.094326
1118.682924	0.092824
1118.841707	0.094710
1119.000471	0.093896
1119.159216	0.087298
1119.317944	0.090939
1119.476653	0.092083
1119.635344	0.090856
1119.794017	0.090129
1119.952672	0.086808
1120.111308	0.088638
1120.269927	0.089537
1120.428527	0.091920
1120.587108	0.098092
1120.745672	0.097107
1120.904217	0.090616
1121.062744	0.086659
1121.221253	0.084416
1121.379744	0.084110
1121.538216	0.086501
1121.696671	0.082153
1121.855107	0.079337
1122.013524	0.071378
1122.171924	0.071246
1122.330305	0.074010
1122.488668	0.074736
1122.647013	0.077678
1122.805340	0.082248
1122.963648	0.076558
1123.121938	0.077646
1123.280210	0.081278
1123.438464	0.083422
1123.596700	0.084505
1123.754917	0.081600
1123.913116	0.083961
1124.071297	0.079946
1124.229459	0.075283
1124.387604	0.078717
1124.545730	0.078527
1124.703838	0.081199
1124.861928	0.085095
1125.019999	0.083783
1125.178052	0.085290
1125.336088	0.083474
1125.494104	0.087357
1125.652103	0.089954
1125.810083	0.087712
1125.968045	0.090366
1126.125989	0.087852
1126.283915	0.084129
1126.441823	0.085716
1126.599712	0.088276
1126.757583	0.088513
1126.915436	0.088737
1127.073270	0.086219
1127.231087	0.088288
1127.388885	0.086830
1127.546665	0.084326
1127.704426	0.082838
1127.862170	0.078439
1128.019895	0.078794
1128.177602	0.076790
1128.335291	0.078935
1128.492961	0.085728
1128.650614	0.082433
1128.808248	0.084977
1128.965864	0.085883
1129.123461	0.089753
1129.281041	0.093656
1129.438602	0.089555
1129.596145	0.092383
1129.753670	0.091803
1129.911176	0.094957
1130.068665	0.095239
1130.226135	0.095200
1130.383587	0.096740
1130.541020	0.098968
1130.698436	0.096590
1130.855833	0.097606
1131.013212	0.097918
1131.170573	0.097067
1131.327915	0.088560
1131.485239	0.086602
1131.642545	0.081167
1131.799833	0.078720
1131.957103	0.080396
1132.114354	0.083600
1132.271588	0.083342
1132.428803	0.083335
1132.585999	0.083990
1132.743178	0.084620
1132.900338	0.086246
1133.057480	0.092720
1133.214604	0.091409
1133.371710	0.088713
1133.528797	0.093297
1133.685866	0.096004
1133.842917	0.096784
1133.999950	0.091921
1134.156964	0.090506
1134.313960	0.092946
1134.470938	0.088372
1134.627898	0.088821
1134.784840	0.084357
1134.941763	0.078712
1135.098668	0.075658
1135.255555	0.073273
1135.412424	0.077097
1135.569274	0.074482
1135.726107	0.075766
1135.882921	0.080805
1136.039716	0.086049
1136.196494	0.094069
1136.353253	0.092106
1136.509995	0.093758
1136.666717	0.098980
1136.823422	0.104995
1136.980109	0.106001
1137.136777	0.109686
1137.293427	0.109649
1137.450059	0.107087
1137.606672	0.102274
1137.763267	0.102335
1137.919844	0.108642
1138.076403	0.109319
1138.232944	0.103272
1138.389466	0.106092
1138.545971	0.101738
1138.702457	0.103878
1138.858924	0.096524
1139.015374	0.094373
1139.171805	0.097454
1139.328218	0.082860
1139.484613	0.076451
1139.640990	0.074417
1139.797348	0.075880
1139.953688	0.072462
1140.110010	0.068249
1140.266314	0.073040
1140.422600	0.077087
1140.578867	0.077220
1140.735116	0.090618
1140.891347	0.096906
1141.047559	0.092808
1141.203754	0.094523
1141.359930	0.102049
1141.516088	0.105292
1141.672228	0.105975
1141.828349	0.105237
1141.984452	0.105867
1142.140537	0.093108
1142.296604	0.088591
1142.452653	0.085671
1142.608683	0.087512
1142.764695	0.083540
1142.920689	0.078638
1143.076665	0.088003
1143.232622	0.079446
1143.388562	0.077291
1143.544483	0.081031
1143.700385	0.079322
1143.856270	0.085571
1144.012136	0.082120
1144.167985	0.084965
1144.323814	0.084694
1144.479626	0.080224
1144.635420	0.090477
1144.791195	0.087963
1144.946952	0.094826
1145.102691	0.102619
1145.258411	0.099655
1145.414113	0.101507
1145.569798	0.100324
1145.725463	0.094080
1145.881111	0.089608
1146.036741	0.088979
1146.192352	0.094590
1146.347945	0.093005
1146.503519	0.088900
1146.659076	0.097236
1146.814614	0.094240
1146.970134	0.089269
1147.125636	0.094029
1147.281120	0.089743
1147.436585	0.084214
1147.592032	0.086104
1147.747461	0.085609
1147.902872	0.082392
1148.058265	0.075538
1148.213639	0.067672
1148.368995	0.068472
1148.524333	0.070891
1148.679653	0.071055
1148.834954	0.078807
1148.990237	0.075579
1149.145502	0.074481
1149.300749	0.081563
1149.455977	0.088351
1149.611188	0.101022
1149.766380	0.092139
1149.921553	0.093371
1150.076709	0.093807
1150.231846	0.090310
1150.386966	0.081605
1150.542066	0.076760
1150.697149	0.078877
1150.852214	0.067104
1151.007260	0.065278
1151.162288	0.071156
1151.317298	0.068286
1151.472289	0.067486
1151.627263	0.073447
1151.782218	0.078936
1151.937155	0.081477
1152.092073	0.074731
1152.246974	0.086566
1152.401856	0.081932
1152.556720	0.087745
1152.711566	0.097960
1152.866393	0.098032
1153.021203	0.090924
1153.175994	0.090305
1153.330767	0.102042
1153.485521	0.104852
1153.640258	0.104484
1153.794976	0.103092
1153.949676	0.099390
1154.104358	0.097790
1154.259021	0.103841
1154.413667	0.103145
1154.568294	0.101132
1154.722903	0.096498
1154.877493	0.088212
1155.032066	0.074659
1155.186620	0.079443
1155.341156	0.078070
1155.495674	0.063757
1155.650173	0.057171
1155.804654	0.056543
1155.959118	0.056364
1156.113562	0.044894
1156.267989	0.053588
1156.422397	0.056961
1156.576788	0.062786
1156.731160	0.057655
1156.885513	0.066499
1157.039849	0.071135
1157.194166	0.073426
1157.348465	0.079075
1157.502746	0.086165
1157.657009	0.077406
1157.811253	0.084106
1157.965479	0.079073
1158.119687	0.085783
1158.273877	0.082795
1158.428048	0.081622
1158.582201	0.083206
1158.736337	0.079056
1158.890453	0.087662
1159.044552	0.088550
1159.198632	0.090592
1159.352694	0.087781
1159.506738	0.090086
1159.660764	0.096134
1159.814771	0.091094
1159.968761	0.093137
1160.122732	0.099885
1160.276685	0.093065
1160.430619	0.102115
1160.584535	0.102085
1160.738434	0.106751
1160.892313	0.105041
1161.046175	0.099090
1161.200019	0.100754
1161.353844	0.092226
1161.507651	0.084604
1161.661440	0.075477
1161.815210	0.070495
1161.968962	0.063265
1162.122697	0.059261
1162.276412	0.056655
1162.430110	0.059359
1162.583789	0.057454
1162.737451	0.061431
1162.891094	0.067313
1163.044718	0.073036
1163.198325	0.071533
1163.351913	0.082565
1163.505483	0.071712
1163.659035	0.080190
1163.812569	0.079808
1163.966084	0.090131
1164.119581	0.091180
1164.273060	0.092514
1164.426521	0.093133
1164.579964	0.091104
1164.733388	0.080487
1164.886794	0.099736
1165.040182	0.086722
1165.193551	0.085186
1165.346903	0.079379
1165.500236	0.077859
1165.653551	0.071518
1165.806848	0.072474
1165.960126	0.074183
1166.113386	0.074794
1166.266628	0.063970
1166.419852	0.078917
1166.573058	0.077202
1166.726245	0.078061
1166.879414	0.067543
1167.032565	0.064042
1167.185698	0.052332
1167.338812	0.046832
1167.491909	0.048772
1167.644987	0.041655
1167.798046	0.034547
1167.951088	0.031312
1168.104111	0.031185
1168.257117	0.055976
1168.410103	0.056356
1168.563072	0.065120
1168.716023	0.069496
1168.868955	0.074054
1169.021869	0.078659
1169.174765	0.072073
1169.327642	0.080608
1169.480501	0.075788
1169.633343	0.058795
1169.786165	0.064978
1169.938970	0.073640
1170.091757	0.073652
1170.244525	0.071566
1170.397275	0.072989
1170.550007	0.069005
1170.702720	0.066236
1170.855415	0.065272
1171.008092	0.068293
1171.160751	0.068361
1171.313392	0.064192
1171.466014	0.011547
1171.618619	0.106950
1171.771205	0.106950
1171.923772	0.106950
