sample name	sample
index	1462
start time	 05-10-2021  01:57:44 PM
880	0.376124
Peak Time (s)	90.537
Peak Height 	0.3761
calc peak height	90,93
Baseline Time (s)	11.539
Baseline Value 	-0.005117
subtract baseline	10,4
Abs	0.282262
Peak Time (s)	91.535
Peak Height 	0.2823
calc peak height	90,93
Baseline Time (s)	10.035
Baseline Value 	0.001455
subtract baseline	10,3
PK_550	0.146337
Peak Time (s)	90.037
Peak Height 	0.1463
calc peak height	90,93
Baseline Time (s)	9.537
Baseline Value 	6.534E-4
subtract baseline	10,2
PK_880	0.263802
Peak Time (s)	90.037
Peak Height 	0.2638
calc peak height	90,93
Baseline Time (s)	10.536
Baseline Value 	0.001658
subtract baseline	10,1


Time (s)	A880-A510	A880-A775	A880-A975	A880	I510	I775	I975	I880	
0.037500	0.001040	-0.000373	-0.003847	0.002411	6488.379582	43813.994092	3935.122677	22554.242613
0.535000	-0.004193	-0.000817	-0.000297	0.004075	6431.068248	43616.096692	3939.996600	22478.919667
1.035500	-0.003159	-0.000665	0.000467	0.006808	6417.087731	43375.064388	3934.909518	22355.842191
1.536000	-0.000734	-0.000031	0.002675	0.001918	6477.670151	43892.729588	3953.359684	22576.624946
2.036000	0.000727	-0.000013	0.000764	0.001635	6492.267434	43921.069391	3949.100189	22589.475452
2.536500	-0.001277	-0.000788	-0.001181	0.001013	6480.688514	43906.648578	3945.651754	22617.740655
3.036500	-0.003874	-0.001048	-0.000928	0.005594	6421.180628	43452.498160	3934.441528	22410.393954
3.537000	0.001008	-0.000393	-0.000612	0.000145	6507.137303	44025.888961	3949.397195	22657.253754
4.037000	-0.001153	-0.000534	-0.000672	-0.000124	6491.247149	44038.039305	3949.941976	22669.533057
4.537000	0.000789	0.000068	0.000180	0.000492	6502.376650	44036.714417	3950.558883	22641.449630
5.034500	-0.000553	-0.000785	-0.000434	0.003045	6469.778337	43715.642366	3942.310458	22525.507642
5.535000	-0.000171	-0.000072	-0.001848	0.000565	6493.708728	44016.611636	3945.081428	22638.153067
6.035500	-0.000882	-0.000844	-0.000976	0.000437	6488.816501	43955.740258	3947.686645	22643.964373
6.535500	0.001179	0.000064	-0.001863	0.000242	6507.766421	44060.007798	3945.881661	22652.854493
7.036000	0.000646	0.000081	-0.000430	0.000454	6501.502565	44041.548290	3949.067586	22643.206132
7.536000	-0.000679	-0.000442	-0.002244	-0.000386	6497.425429	44071.521863	3946.525250	22681.491848
8.039500	-0.001095	0.000469	0.001195	0.000449	6486.937102	44078.780546	3953.330232	22643.432756
8.537000	-0.000320	-0.000031	0.001365	-0.000186	6498.757333	44091.563688	3955.441672	22672.367253
9.037000	0.000329	0.000045	0.000938	-0.000508	6506.927811	44129.355409	3955.165942	22687.077133
9.537500	0.000070	0.000000	-0.002445	-0.000230	6502.408963	44098.635565	3945.595482	22674.362744
10.035000	-0.002353	-0.000087	0.000000	0.000161	6478.817317	44053.412456	3950.955058	22656.544302
10.535500	0.000000	0.000201	0.003559	0.000205	6498.161665	44076.470873	3960.183067	22654.529289
11.035500	-0.000098	0.000059	-0.002834	0.000117	6498.079745	44071.340276	3943.681105	22658.532453
11.538500	0.000448	-0.000137	-0.001979	0.000000	6503.650153	44063.936280	3946.209842	22663.880667
12.036000	-0.001618	-0.000878	-0.004226	-0.000966	6494.404992	44085.184761	3942.878995	22707.963437
12.536500	0.000916	0.000693	0.000297	0.000171	6506.147454	44126.320816	3951.706611	22656.081057
13.036500	-0.000904	-0.000481	0.001672	0.000221	6490.439222	44010.375916	3955.177957	22653.791745
13.537000	-0.002206	-0.000121	-0.001723	-0.000253	6483.508106	44089.297943	3947.537058	22675.407382
14.037000	-0.000071	0.000734	0.000800	0.002152	6481.251918	43942.801328	3947.844943	22565.998364
14.535000	-0.002688	-0.000853	0.004086	0.001198	6467.376889	43883.059114	3958.956001	22609.312002
15.038000	0.000078	0.000233	0.001403	0.000462	6496.656041	44055.203222	3953.839931	22642.820104
15.535000	-0.001149	-0.000161	-0.004781	-0.000744	6496.487311	44132.178622	3940.863778	22697.853397
16.038000	-0.000792	-0.000454	-0.000902	-0.000644	6498.644138	44094.865397	3950.700742	22693.271726
16.536000	0.000613	-0.000573	0.003152	-0.000882	6512.468870	44106.163872	3961.977018	22704.146263
17.036500	0.001078	0.000100	0.000611	-0.002532	6530.346182	44326.916789	3959.626787	22779.669155
17.537000	-0.003093	0.000030	-0.000685	-0.000059	6474.473177	44085.278200	3949.738441	22666.562988
18.036500	-0.002808	-0.000743	-0.003318	-0.000035	6476.657822	44009.806912	3942.819934	22665.467118
18.537500	0.000906	0.000310	0.005541	0.000815	6500.648145	44029.076997	3963.807685	22626.754765
19.037500	-0.000390	-0.000066	-0.000348	0.000525	6492.201424	44020.949472	3949.093579	22639.948820
19.535000	-0.003228	-0.000572	0.001347	0.000280	6470.523169	43996.191403	3954.169988	22651.104222
20.035500	-0.001172	-0.000370	0.007929	0.000523	6485.668194	43992.345831	3970.917333	22640.055846
20.538500	-0.000440	-0.000879	-0.001609	0.000192	6494.577921	43975.523700	3946.674235	22655.131294
21.036000	-0.002512	0.000458	0.003262	0.000974	6470.703708	44028.018951	3957.376948	22619.495195
21.536000	-0.000420	0.000136	0.001136	0.000666	6490.762304	44026.669966	3952.604224	22633.509189
22.036500	-0.000084	0.000258	-0.000991	0.000891	6491.697261	44016.936046	3946.461163	22623.267697
22.536500	-0.002407	-0.000312	0.000544	0.000083	6479.014803	44039.380012	3952.579952	22660.073873
23.037000	-0.000692	-0.000486	0.001471	0.000421	6490.546290	43991.020852	3954.127315	22644.698518
23.537500	-0.000035	0.000430	0.001981	0.001032	6490.927180	44019.862844	3953.859830	22616.871654
24.035000	-0.001424	0.000101	-0.001255	0.000722	6481.900602	44018.078047	3946.217278	22630.999562
24.535000	-0.000071	0.000001	-0.001109	0.000635	6493.962638	44016.903929	3946.824425	22634.952457
25.035500	-0.003479	-0.000692	0.003007	-0.000313	6473.381201	44040.975605	3960.094193	22678.164032
25.535500	-0.000201	-0.000153	0.003177	0.000326	6495.459121	44031.535517	3958.858933	22649.038312
26.036000	-0.000470	0.000009	0.002081	0.000450	6492.159822	44035.129848	3955.650786	22643.360596
26.536500	-0.000895	0.000004	-0.003157	0.000233	6490.413777	44055.182055	3942.540968	22653.253330
27.036500	0.001165	0.000056	-0.001176	-0.001996	6526.543955	44271.619144	3953.521442	22755.098579
27.537500	-0.001963	-0.000517	-0.004054	-0.001837	6498.829716	44202.056090	3945.590972	22747.837925
28.037000	-0.000227	-0.000034	-0.000283	-0.001026	6506.610362	44170.970161	3953.323174	22710.738793
28.538000	0.000499	-0.000192	-0.000719	-0.000806	6510.867740	44135.040984	3951.603157	22700.668911
29.034500	-0.000553	-0.000458	0.000927	-0.000456	6499.064999	44076.698713	3954.999674	22684.676275
29.535000	-0.001145	0.000035	0.001613	-0.000918	6497.979990	44167.306743	3958.018126	22705.807677
30.035500	-0.002538	-0.000529	-0.000620	-0.001246	6489.043582	44144.752492	3953.014221	22720.767828
30.535500	-0.002709	-0.000388	-0.002709	0.001526	6464.466780	43895.986435	3940.350481	22594.398960
31.036000	-0.001720	0.000104	0.002210	0.001152	6475.826574	43977.686484	3954.145872	22611.410182
31.536500	0.000333	-0.000530	-0.002375	-0.001237	6513.097889	44143.848768	3948.401155	22720.358367
32.036500	0.000011	0.000145	-0.001624	-0.000595	6504.980624	44146.974602	3948.687489	22691.020642
32.537000	0.000958	-0.000070	-0.006469	-0.001264	6518.599075	44190.114891	3937.838872	22721.589057
33.037000	0.001439	0.000466	0.003899	0.000267	6509.743648	44095.687345	3960.915393	22651.688777
33.538000	0.002237	0.000137	0.006915	-0.002824	6542.660547	44358.251908	3977.141092	22793.069922
34.035000	-0.001848	0.000022	0.003045	0.000855	6477.233924	43997.956863	3957.119017	22624.905800
34.535500	-0.000238	0.000382	0.000320	0.001544	6484.945101	43966.934436	3948.180336	22593.606243
35.036000	-0.000260	-0.000255	0.000388	0.000592	6492.731824	43996.711060	3950.842067	22636.883937
35.535500	-0.001997	-0.000667	0.004127	0.000554	6478.513208	43961.361654	3960.763017	22638.648856
36.035500	-0.000912	-0.000226	0.005037	0.000703	6486.338519	43988.919225	3962.768231	22631.832675
36.536500	-0.000648	0.000065	0.000694	0.001862	6478.855411	43906.969802	3948.322866	22579.141431
37.036500	-0.000302	0.000504	0.000456	0.001355	6485.986286	43996.369584	3949.027237	22602.185626
37.537000	-0.002565	-0.000046	0.003356	0.000780	6471.886843	43998.722652	3958.136385	22628.348342
38.037500	-0.000489	0.000368	0.000477	0.001331	6484.618956	43985.719800	3949.143843	22603.258155
38.535000	-0.002572	-0.000591	-0.000061	0.000559	6473.670191	43968.059664	3949.755345	22638.401711
39.035500	-0.002369	0.000192	0.000129	0.001378	6468.538037	43964.697805	3948.115199	22601.154224
39.535500	0.000492	0.000304	0.003038	0.001281	6493.256146	43984.385153	3955.979861	22605.526142
40.036000	-0.001164	-0.000191	-0.002240	0.001318	6479.086296	43934.176431	3942.104978	22603.866233
40.536000	-0.001567	-0.001006	0.001598	0.000203	6485.043819	43962.489757	3955.030401	22654.620825
41.036500	-0.001417	0.000293	0.000824	0.001409	6476.209390	43971.292158	3949.845356	22599.715409
41.536500	0.000536	0.000450	-0.001333	0.001862	6488.758199	43943.321681	3943.049462	22579.151085
42.037000	-0.000111	-0.000306	-0.001671	0.001009	6490.484530	43952.442450	3944.384941	22617.897311
42.540000	-0.001728	-0.001360	0.004462	0.000643	6480.016411	43887.584250	3961.410960	22634.566642
43.037500	-0.000558	-0.000798	-0.003128	0.000641	6489.829127	43940.837782	3941.558457	22634.684620
43.537000	-0.000527	-0.000437	0.000042	0.000677	6489.780756	43971.505514	3949.717629	22633.042880
44.035500	0.001387	-0.000104	-0.000898	-0.003916	6544.720682	44439.590267	3959.299812	22843.290827
44.535500	0.000283	0.000641	0.002045	0.000262	6500.061420	44112.713273	3956.048750	22651.918952
45.035500	-0.000817	-0.000018	0.004228	-0.000076	6493.663667	44082.368743	3962.690838	22667.333832
45.536000	-0.000223	0.000672	0.005385	-0.000325	6500.738760	44171.366880	3966.411784	22678.696246
46.036500	0.001578	-0.000292	0.000529	-0.000779	6519.748020	44123.072484	3954.803885	22699.453687
46.537000	-0.000644	-0.000724	0.000331	-0.001256	6505.028204	44127.280296	3955.534317	22721.235519
47.039500	-0.001364	0.000276	0.006073	0.001553	6475.454281	43956.104421	3963.263730	22593.201387
47.537000	0.002001	0.000248	-0.000472	0.001817	6501.429194	43928.447606	3945.402241	22581.173950
48.034500	-0.002850	0.000016	0.001556	-0.000433	6479.634928	44119.457682	3956.592034	22683.650258
48.535500	-0.000420	0.000277	-0.000862	-0.000646	6501.784589	44164.404080	3950.811633	22693.353365
49.035000	-0.001666	-0.000669	0.000935	0.000786	6479.337094	43939.269619	3951.766567	22628.064053
49.536000	0.001632	-0.000005	0.000951	-0.002787	6537.212475	44341.211240	3961.196304	22791.386855
50.036000	0.003011	0.000423	0.004146	-0.002342	6545.144063	44339.606089	3968.476594	22770.986473
50.536500	0.000038	-0.000615	0.005040	0.004610	6461.668582	43584.970626	3952.501974	22454.774401
51.036500	0.008856	-0.001394	0.033488	0.152394	5472.763454	31809.816930	3679.267773	16802.520354
51.537000	-0.007607	-0.022757	0.006726	0.109484	5637.419542	33278.277253	3711.997777	18250.617988
52.037000	-0.014081	-0.051379	-0.032681	-0.199415	8442.388946	60785.144155	4483.105803	34205.768771
52.535000	-0.003476	-0.119742	-0.033134	-0.302051	10108.239077	65535.000000	4925.531202	42562.661615
53.035000	-0.007630	-0.110761	-0.030482	-0.293069	9892.002245	65535.000000	4894.999655	41749.965022
53.535500	-0.006438	-0.080543	-0.022865	-0.257637	9358.154544	64787.906962	4765.974550	38702.956669
54.035000	-0.000939	-0.053004	-0.013790	-0.217612	8860.821319	63035.022385	4631.791529	35547.084931
54.535500	-0.000451	-0.032253	-0.010015	-0.174971	8304.864966	60081.081358	4476.292558	32490.113126
55.036000	0.002163	-0.026909	-0.004541	-0.166562	8232.563305	59679.276225	4465.102094	31921.862512
55.536500	0.009716	-0.022128	0.002091	-0.154445	8176.295577	58728.881263	4444.399919	31122.221451
56.037000	0.024329	-0.010548	0.022048	-0.115508	7886.205808	55323.105587	4374.733607	28698.453989
56.537000	0.041146	0.003041	0.043525	-0.054459	7398.564446	49900.254416	4238.918169	25309.848886
57.037500	0.060714	0.014765	0.064538	0.008311	6967.906791	44692.754091	4108.410632	22288.467271
57.537000	0.080103	0.028588	0.089784	0.069879	6586.819549	40345.960407	4004.660281	19720.295468
58.035000	0.096271	0.039505	0.105599	0.111554	6373.686902	37788.345866	3935.901875	18177.406435
58.535500	0.115433	0.054251	0.125863	0.158134	6158.136008	35325.344230	3870.016240	16619.432987
59.036000	0.134620	0.066439	0.145828	0.194056	6033.096655	33602.961746	3831.964445	15526.990525
59.536000	0.149415	0.068588	0.165857	0.247105	5764.744530	30211.852759	3757.529024	14070.297920
60.036500	0.159648	0.076005	0.178479	0.264677	5715.909710	29581.553541	3746.850204	13625.703502
60.536500	0.168404	0.082994	0.189444	0.280614	5668.918714	29038.269761	3736.246745	13237.753826
61.036500	0.181670	0.088135	0.194876	0.255831	5926.993833	30899.870952	3802.603538	13847.275362
61.537000	0.196284	0.100669	0.207894	0.283172	5838.142860	29962.672898	3770.572121	13176.797419
62.037500	0.202396	0.111060	0.221654	0.325375	5599.891302	28054.020039	3710.010223	12221.266185
62.535000	0.208045	0.117756	0.225134	0.325599	5634.455726	28431.132105	3716.744285	12216.449765
63.040500	0.213066	0.122607	0.227948	0.324476	5674.115495	28784.131864	3724.952739	12240.667917
63.538000	0.216913	0.125747	0.230501	0.323144	5707.990968	29051.670065	3733.127834	12269.486422
64.043500	0.222129	0.130337	0.234235	0.325511	5726.796071	29185.631629	3736.020143	12218.333534
64.539000	0.227451	0.132255	0.231495	0.325739	5760.735528	29287.965360	3729.749735	12213.415983
65.036000	0.229323	0.135193	0.239112	0.328113	5757.376395	29322.256445	3740.857402	12162.427725
65.537000	0.229667	0.136753	0.236846	0.329661	5749.323559	29322.953020	3732.763143	12129.313855
66.037000	0.235226	0.139375	0.243849	0.332018	5770.779130	29339.045140	3742.632262	12079.145687
66.537000	0.238404	0.141469	0.248452	0.334082	5778.279135	29340.870147	3748.068250	12035.416814
67.035000	0.237188	0.142198	0.246926	0.336029	5757.033797	29266.952117	3740.639441	11994.377122
67.535000	0.240034	0.144098	0.250866	0.338386	5760.304834	29239.254927	3744.018160	11944.917230
68.035500	0.243550	0.145289	0.252124	0.341552	5762.654206	29119.906346	3739.946948	11878.921329
68.535500	0.240714	0.145113	0.247835	0.345912	5714.798563	28847.935551	3721.716103	11788.829846
69.039000	0.244641	0.147256	0.254815	0.347039	5733.325349	28908.600732	3734.012828	11765.673898
69.535500	0.243843	0.146739	0.254735	0.347884	5722.438691	28827.305587	3732.058635	11748.361143
70.036000	0.246206	0.147506	0.255831	0.350713	5719.362026	28704.662604	3728.408318	11690.641442
70.537000	0.245309	0.148070	0.261091	0.355463	5682.293335	28457.508124	3729.479324	11594.556969
71.036500	0.250499	0.151237	0.258229	0.356054	5712.442373	28609.319743	3722.239625	11582.679932
71.537500	0.248950	0.151034	0.257228	0.354917	5709.728465	28664.594481	3722.524531	11605.556549
72.035000	0.253253	0.151116	0.263242	0.356234	5729.457655	28591.534490	3732.390345	11579.069959
72.535500	0.249331	0.151722	0.261546	0.361876	5666.748942	28295.784752	3717.023319	11466.505569
73.035500	0.253601	0.153098	0.259805	0.359297	5711.513198	28527.736406	3718.766025	11517.774181
73.538500	0.251747	0.152166	0.266137	0.357962	5708.096158	28551.537431	3734.858145	11544.439606
74.036000	0.256080	0.154056	0.261306	0.359952	5723.554778	28545.633263	3720.528112	11504.728182
74.536500	0.252376	0.153314	0.264764	0.363653	5674.983157	28285.010968	3720.022767	11431.361532
75.037000	0.256553	0.155747	0.271010	0.362057	5712.780030	28521.233478	3736.505950	11462.916890
75.537000	0.254216	0.154899	0.265368	0.360348	5708.643357	28572.002471	3728.202372	11496.848803
76.037000	0.256793	0.155708	0.269380	0.361094	5720.721105	28575.727870	3735.094662	11482.029010
76.537500	0.254642	0.155513	0.266092	0.366296	5672.528051	28259.116043	3717.285916	11379.344454
77.035000	0.256327	0.156389	0.272678	0.362809	5706.340429	28514.732235	3738.451812	11448.033207
77.535500	0.257951	0.156572	0.269179	0.363133	5714.904198	28506.434788	3730.361840	11441.629282
78.036000	0.256584	0.155849	0.267028	0.362920	5707.300485	28476.477639	3726.287770	11445.848661
78.535500	0.255287	0.153980	0.273244	0.367680	5667.735333	28089.656062	3729.346416	11352.234679
79.036500	0.260800	0.155783	0.276379	0.364616	5723.932852	28373.075828	3742.488458	11412.379901
79.536500	0.259465	0.154185	0.274960	0.363980	5719.309653	28316.813815	3740.817208	11424.910979
80.036000	0.260402	0.155406	0.270113	0.366550	5708.539006	28238.107763	3725.145379	11374.362923
80.537000	0.261371	0.154144	0.275528	0.365802	5719.865499	28208.159458	3738.149177	11389.050181
81.034500	0.262574	0.154701	0.277715	0.367295	5717.947611	28153.806132	3739.624104	11359.773999
81.537000	0.264287	0.153357	0.272180	0.367086	5730.662925	28087.924128	3728.357227	11363.854947
82.035000	0.262996	0.152919	0.276813	0.366166	5728.203619	28115.866095	3740.108327	11381.898631
82.538500	0.263766	0.153164	0.279366	0.367031	5727.575638	28080.000200	3743.709517	11364.943324
83.035500	0.260280	0.151119	0.276685	0.365997	5711.376929	28021.521606	3740.193983	11385.211439
83.536000	0.263099	0.150933	0.273632	0.366889	5724.101186	27959.356963	3731.831431	11367.718412
84.036000	0.263691	0.149772	0.273741	0.366875	5728.110831	27893.347626	3732.091841	11367.997950
84.536500	0.258919	0.148450	0.269424	0.372265	5661.558930	27510.659592	3711.825278	11263.031178
85.037000	0.260211	0.148682	0.276998	0.367307	5702.302770	27806.039089	3738.073367	11359.525593
85.536500	0.261430	0.148035	0.277332	0.367556	5708.683822	27754.806726	3738.253768	11354.657313
86.034500	0.263356	0.149130	0.276434	0.368792	5713.231129	27746.729977	3733.731607	11330.515744
86.535500	0.258697	0.147863	0.275693	0.373469	5652.345390	27409.555735	3722.344664	11239.771243
87.035000	0.263108	0.147180	0.276280	0.368033	5716.599452	27678.796884	3735.010211	11345.334002
87.535500	0.259686	0.146535	0.278456	0.368207	5692.963782	27632.219737	3739.260842	11341.940999
88.036000	0.258388	0.146407	0.279437	0.368409	5683.164258	27613.470152	3740.920215	11337.990839
88.536000	0.258316	0.146596	0.274968	0.374682	5642.074954	27270.168003	3718.303731	11216.385119
89.036500	0.261400	0.147155	0.278611	0.370393	5689.878669	27543.353510	3734.950187	11299.346017
89.536500	0.260617	0.146772	0.279951	0.370819	5681.982803	27497.502015	3736.885532	11291.055406
90.037000	0.263802	0.146337	0.281690	0.370216	5706.792072	27507.062606	3741.870123	11302.784594
90.537000	0.256343	0.145576	0.274357	0.376124	5620.212356	27132.643620	3714.044614	11188.675836
91.040000	0.260430	0.145598	0.278890	0.370607	5682.145703	27443.222774	3735.086778	11295.184333
91.535000	0.260946	0.145848	0.282262	0.370561	5685.810031	27459.862529	3742.353675	11296.070749
92.035500	0.262130	0.146321	0.280900	0.371350	5688.392759	27442.097143	3737.774863	11280.763078
92.535500	0.259060	0.144410	0.277021	0.375681	5640.441165	27092.472408	3720.500759	11197.191964
93.036000	0.258842	0.145776	0.282902	0.372778	5657.738817	27330.960425	3738.992841	11253.103730
93.539000	0.261191	0.145773	0.281444	0.372262	5676.321533	27359.852204	3736.992739	11263.091187
94.037500	0.260361	0.144097	0.282444	0.370618	5681.623110	27358.020440	3742.621813	11294.965797
94.536500	0.255660	0.143935	0.274532	0.376838	5611.316464	27001.790367	3712.929644	11174.992552
95.037000	0.262266	0.145200	0.276561	0.373122	5677.721077	27279.388198	3724.885192	11246.462107
95.540000	0.262686	0.144330	0.283509	0.372014	5687.687799	27292.762299	3741.915498	11267.896059
96.035000	0.259996	0.145363	0.277873	0.373384	5661.287233	27273.873242	3727.086507	11241.408682
