sample name	sample
index	1347
start time	 05-03-2021  12:55:29 PM
880	0.456729
Peak Time (s)	92.035
Peak Height 	0.4567
calc peak height	90,93
Baseline Time (s)	9.037
Baseline Value 	-0.006656
subtract baseline	10,4
Abs	0.290548
Peak Time (s)	91.037
Peak Height 	0.2905
calc peak height	90,93
Baseline Time (s)	10.037
Baseline Value 	0.004166
subtract baseline	10,3
PK_550	0.173622
Peak Time (s)	92.035
Peak Height 	0.1736
calc peak height	90,93
Baseline Time (s)	11.035
Baseline Value 	4.0976E-4
subtract baseline	10,2
PK_880	0.280596
Peak Time (s)	92.035
Peak Height 	0.2806
calc peak height	90,93
Baseline Time (s)	9.037
Baseline Value 	0.003423
subtract baseline	10,1


Time (s)	A880-A510	A880-A775	A880-A975	A880	I510	I775	I975	I880	
0.037000	-0.002001	0.000577	-0.006624	0.002454	6107.494865	42593.707219	3882.532803	22054.073034
0.537000	-0.001010	0.000950	0.001791	0.004492	6099.886803	42442.062831	3896.694089	21964.582892
1.038000	-0.004448	-0.000457	-0.006806	0.003271	6083.840716	42425.156013	3880.331420	22018.131979
1.534500	-0.002932	0.001160	0.000071	0.007098	6067.200592	42224.940061	3887.062692	21850.773109
2.038500	-0.001036	0.000326	0.000243	0.000985	6125.241837	42704.997855	3901.086716	22118.831240
2.535500	-0.000087	0.000552	0.000192	0.000727	6134.083183	42749.269670	3901.552693	22130.225364
3.036000	0.001477	-0.000152	-0.001087	-0.001586	6162.644579	42896.903891	3903.879994	22232.703774
3.536000	-0.002582	0.000438	-0.002713	0.001566	6109.727781	42662.077680	3893.170292	22093.183896
4.036500	-0.000430	0.000833	0.000320	0.001129	6128.619102	42738.128117	3900.933668	22112.442086
4.537000	-0.001377	0.000615	-0.000170	0.001106	6121.858989	42720.247886	3899.885797	22113.460587
5.037000	-0.000642	0.000928	-0.002289	0.001357	6125.404539	42725.995699	3894.583164	22102.421024
5.537500	-0.000268	-0.000488	0.002190	-0.000148	6139.174922	42734.165704	3908.033178	22168.930616
6.035000	-0.001789	0.000546	0.004579	0.000486	6123.378743	42770.754431	3912.011142	22140.850953
6.535500	-0.001135	0.000110	-0.005720	-0.000116	6132.577905	42786.002283	3890.222022	22167.511475
7.035500	-0.002280	-0.000044	0.000368	0.000255	6121.484769	42737.930545	3903.010406	22151.092055
7.535500	-0.002550	-0.000223	0.002509	0.000029	6121.165393	42742.127224	3908.352941	22161.073074
8.036000	-0.000902	0.000872	0.002431	0.001064	6125.645899	42747.657653	3905.837045	22115.325223
8.536500	-0.001407	0.000132	0.002465	-0.000197	6131.177225	42795.418531	3908.766243	22171.070161
9.036500	0.000000	-0.000047	0.000123	0.000000	6140.057900	42760.937711	3903.031975	22162.366483
9.537000	0.001309	-0.000341	-0.001322	-0.000590	6154.037083	42788.006112	3901.106856	22188.479685
10.037500	0.001903	0.000276	0.000000	0.000310	6151.783860	42762.127520	3902.056677	22148.635488
10.535000	-0.000575	-0.000497	0.001149	-0.000146	6136.907271	42733.096910	3905.674461	22168.809062
11.035000	-0.002751	0.000000	-0.004099	0.001859	6106.361286	42595.312369	3889.434405	22080.263964
11.535000	0.000849	0.000618	-0.000382	0.000302	6144.075993	42794.236375	3901.216697	22148.999856
12.035500	0.000313	0.000992	0.004880	0.000313	6140.058048	42827.524987	3913.090118	22148.536374
12.535000	-0.002306	0.000380	0.003762	-0.000364	6125.820855	42833.457683	3912.088157	22178.476190
13.038000	-0.001741	0.000814	-0.000055	0.003899	6098.883811	42483.623145	3893.892393	21990.556347
13.536000	0.000149	0.001083	-0.003963	0.000029	6140.940335	42861.913320	3893.809526	22161.076296
14.036500	-0.001555	0.000166	-0.000834	0.001308	6119.092856	42660.773978	3897.946098	22104.573324
14.537000	0.000025	0.000877	-0.001449	0.002552	6121.545986	42612.113826	3893.790212	22049.744521
15.034000	-0.002162	0.000636	-0.002348	0.003793	6096.596002	42477.065981	3889.028092	21995.217999
15.534500	-0.000493	-0.000243	0.001405	-0.001322	6146.154903	42864.274885	3908.915160	22220.980360
16.035500	0.001687	-0.000373	-0.000168	-0.001008	6159.924841	42823.480213	3904.647402	22207.041720
16.536000	-0.000926	0.000413	0.003235	-0.001100	6141.340988	42904.152558	3912.562844	22211.131365
17.035500	-0.001538	0.000629	0.005274	0.001111	6120.653768	42721.163328	3912.170353	22113.255165
17.535500	-0.001265	0.000551	0.005986	0.000302	6128.564160	42788.061758	3915.634107	22148.990951
18.036000	-0.001725	-0.000401	-0.003889	0.000136	6126.408173	42716.102495	3893.735145	22156.339139
18.537000	-0.000489	0.001196	0.001023	0.001180	6127.819970	42766.777718	3902.401538	22110.214616
19.037500	0.000071	0.000580	0.001124	0.001341	6130.742826	42695.624894	3902.267649	22103.104638
19.537000	-0.001027	0.000283	0.002006	0.000933	6125.683400	42705.694504	3905.172197	22121.106300
20.034500	-0.000760	0.000407	-0.005255	0.001047	6126.806455	42706.715690	3888.671732	22116.087887
20.535000	0.000049	0.000178	-0.001953	0.000824	6134.367677	42706.135333	3896.522037	22125.921246
21.035000	0.000610	0.001376	-0.000254	0.001618	6132.656119	42743.039498	3898.549940	22090.879332
21.536000	-0.000377	0.001037	0.002777	0.001410	6126.956261	42731.070284	3905.836821	22100.059843
22.036000	-0.000720	0.000701	0.001675	0.001231	6125.754697	42716.713083	3903.753852	22107.949638
22.536500	0.000715	0.001023	0.000637	0.001410	6134.956478	42729.902960	3901.017293	22100.083702
23.036500	-0.000683	0.000787	0.001785	0.001659	6122.898789	42685.454081	3903.037983	22089.086673
23.537000	0.000479	0.000792	-0.004108	0.000952	6136.584684	42750.656155	3891.430979	22120.294572
24.040000	0.000344	0.000460	-0.003814	0.000809	6136.642393	42733.304278	3892.404245	22126.605517
24.534500	0.001864	0.000575	0.000083	0.000926	6146.959372	42733.165575	3900.859374	22121.442332
25.035000	-0.000819	0.000279	0.000784	0.000899	6127.460573	42708.543315	3902.496730	22122.627899
25.535500	-0.001301	-0.000170	0.002312	0.000439	6127.296982	42709.501165	3906.980866	22142.942038
26.035500	-0.001752	0.000122	-0.002140	0.000700	6122.093382	42712.362667	3896.381986	22131.406235
26.536000	-0.000493	-0.000297	0.001489	0.000179	6135.127381	42721.684761	3905.709026	22154.452331
27.036500	-0.001993	0.000365	0.001532	0.002276	6108.839713	42590.549432	3901.080330	22061.882718
27.536500	0.000452	0.000723	0.000864	-0.001429	6153.908176	42962.864594	3907.931221	22225.711414
28.036500	0.001515	0.000658	0.001187	-0.001027	6158.787360	42919.890128	3907.750975	22207.865538
28.540000	0.000399	0.001182	-0.000756	-0.000514	6146.775424	42920.982030	3902.211378	22185.130148
29.037500	0.000690	0.001162	0.002619	0.003104	6122.373627	42587.713236	3901.664341	22025.484766
29.535000	0.000308	0.001444	0.002309	-0.000068	6142.820673	42904.030810	3908.119126	22165.363475
30.035000	0.001664	0.001462	-0.002470	0.000363	6149.628021	42866.069789	3896.398890	22146.301290
30.535000	0.000677	0.000976	0.000906	0.002205	6128.846480	42652.767579	3899.834483	22065.014079
31.035500	-0.001909	0.000368	-0.000849	0.003115	6103.355079	42514.434047	3893.871737	22024.999655
31.536000	0.000968	0.001309	0.002784	0.000144	6146.116612	42872.065401	3908.715979	22155.972517
32.036500	0.000879	0.000944	0.000098	-0.000740	6151.973934	42919.840872	3904.642736	22195.140769
32.536500	-0.000406	0.001067	0.001765	-0.000443	6140.333352	42903.814781	3907.737979	22181.991264
33.040000	-0.002597	0.000473	-0.003550	0.004881	6085.574755	42363.456773	3883.956640	21947.532023
33.537000	-0.001254	0.001427	0.002725	-0.000142	6131.896118	42909.227326	3909.231308	22168.654928
34.035000	-0.000164	0.000155	0.001988	-0.000823	6144.903387	42854.882276	3909.102687	22198.806245
34.535000	-0.001600	-0.000101	-0.000822	0.000921	6121.587835	42671.743228	3898.838976	22121.635450
35.035000	-0.001694	0.000032	-0.002993	0.002451	6109.750360	42544.313303	3890.576952	22054.208158
35.535500	-0.001210	0.000372	-0.001501	0.001084	6123.247020	42700.054265	3896.953449	22114.437364
36.036000	-0.000141	0.000555	0.001028	0.001098	6130.970352	42715.521918	3902.597706	22113.839781
36.536000	-0.001776	0.000695	-0.000517	0.001524	6115.902651	42689.315199	3898.171495	22095.021610
37.036000	0.000563	0.001037	0.005257	0.001517	6133.060823	42721.383990	3911.211735	22095.360231
37.536000	-0.001338	-0.000332	-0.002263	0.000445	6126.985708	42694.176885	3896.679440	22142.701635
38.040000	-0.000434	0.000936	-0.003633	0.001649	6124.785007	42699.916624	3890.935257	22089.504765
38.537500	0.000488	0.000583	-0.007279	0.001116	6135.446115	42716.429944	3884.038233	22113.022218
39.037500	-0.001854	0.000985	-0.004334	0.001503	6115.486039	42717.822948	3889.702630	22095.952607
39.535000	0.000306	0.000782	-0.001358	0.001483	6131.419277	42701.089020	3896.379060	22096.833279
40.035500	-0.001129	0.001229	0.002252	0.001541	6120.501640	42736.737347	3904.356713	22094.298685
40.535500	-0.000202	0.001385	0.004845	0.001929	6124.438159	42715.544934	3909.342354	22077.203771
41.036000	-0.003699	0.000293	-0.002905	0.003206	6089.725510	42499.322116	3889.094657	22021.010603
41.536500	0.000439	0.000659	0.000602	0.001652	6131.155041	42674.344663	3900.394895	22089.384259
42.036500	0.000197	0.000519	0.000226	0.001048	6133.808027	42716.854569	3900.907383	22116.040992
42.536500	-0.000744	0.000482	0.002407	0.000985	6127.378901	42719.196780	3905.961690	22118.806273
43.037000	-0.003164	0.001351	-0.002921	0.003457	6091.778678	42572.841230	3888.502986	22009.983077
43.534500	-0.001560	0.000910	0.000933	0.001250	6119.479033	42734.171490	3902.042855	22107.137307
44.035000	0.001899	0.000606	0.002164	-0.001088	6162.081866	42920.731980	3910.103598	22210.572223
44.535500	-0.000308	0.000803	0.005754	-0.000770	6143.454237	42909.634226	3917.552324	22196.494005
45.038000	-0.001637	0.000602	-0.001520	0.005019	6091.524571	42362.672105	3888.145128	21941.530456
45.535500	0.000590	0.000738	0.000057	-0.000751	6149.928474	42901.942898	3904.576550	22195.646907
46.036000	-0.000048	0.000652	0.005085	-0.000806	6145.634929	42899.063452	3916.106470	22198.078775
46.536000	-0.002080	0.000733	0.000458	-0.000697	6129.907033	42896.503912	3905.357177	22193.225808
47.039000	-0.003278	-0.000022	0.000257	0.004627	6082.503230	42341.679590	3892.966757	21958.686640
47.536500	-0.001169	0.000528	0.000031	0.001707	6118.992014	42657.345066	3898.988788	22086.956667
48.036500	-0.001574	0.000985	-0.000424	0.002424	6110.810715	42633.595585	3896.363361	22055.368788
48.537500	-0.001226	0.000986	0.006489	-0.000031	6131.288443	42858.493544	3917.542477	22163.720170
49.035000	-0.001020	0.000926	-0.003025	0.005222	6094.520996	42373.628721	3884.364314	21932.616904
49.535500	-0.001175	0.000253	-0.004844	-0.000315	6133.750714	42817.332586	3892.613720	22176.333490
50.038000	0.001511	0.000951	-0.002889	-0.002668	6170.910316	43098.169137	3902.257132	22280.812927
50.535500	0.002811	0.001509	0.004387	0.000437	6157.545528	42863.570088	3911.686043	22143.018444
51.036000	-0.002507	-0.001080	-0.003421	0.011740	6037.068996	41607.952743	3869.214733	21649.737536
51.539500	0.022229	-0.018922	0.029256	0.568927	3855.195213	13255.553589	3207.269824	8127.579825
52.041500	0.013201	-0.017503	-0.010116	-0.003221	6263.034055	41478.126261	3887.354431	22305.435241
52.536500	0.008740	-0.031297	-0.011492	-0.145396	7499.638476	54720.071940	4255.830129	29805.455322
53.034000	-0.021756	-0.032426	-0.027253	-0.157882	7314.785943	56090.979579	4245.834352	30589.008543
53.534500	-0.007129	-0.043200	-0.016112	-0.212316	8067.280126	61708.019010	4461.093919	34280.819877
54.037000	0.007508	-0.065633	-0.006518	-0.254762	8786.236543	64477.723246	4656.630275	37498.470580
54.535500	0.022383	-0.056946	0.006300	-0.239277	8778.050156	63522.635494	4646.029675	36288.056467
55.035500	0.033245	-0.023805	0.020793	-0.161663	7947.568684	57629.581025	4413.236489	30830.770582
55.536000	0.039282	-0.010294	0.035389	-0.089997	7246.499164	50780.206148	4229.984377	26588.198109
56.036000	0.050174	0.002247	0.045063	-0.043067	6904.273151	47140.982360	4122.712417	24166.136910
56.536000	0.073273	0.019098	0.065017	0.006258	6672.492915	43959.151775	4044.394292	21887.371397
57.038500	0.092412	0.032449	0.084993	0.041030	6540.843156	41986.852774	4006.904492	20429.593783
57.537500	0.115066	0.047252	0.105394	0.070656	6483.637309	40677.905412	3984.168700	19276.395164
58.038000	0.135649	0.061818	0.122898	0.103311	6386.746742	39139.878830	3947.859902	18093.213044
58.535000	0.150704	0.072494	0.146434	0.133636	6267.967341	37540.272483	3931.994005	17071.316059
59.035500	0.169238	0.079932	0.160305	0.158602	6219.171949	36173.114249	3906.597687	16281.936164
59.535500	0.181905	0.086615	0.178141	0.222277	5856.783039	32090.602010	3808.280329	14462.601619
60.035500	0.197842	0.098171	0.197101	0.266300	5674.689473	29993.554681	3758.756314	13351.986604
60.536500	0.210471	0.106429	0.201379	0.287912	5618.885295	29175.472114	3726.135480	12846.586667
61.036500	0.215099	0.110150	0.209165	0.299651	5575.522560	28696.322090	3718.879170	12582.446267
61.537000	0.223318	0.116111	0.225525	0.348493	5340.976883	26278.234094	3661.674130	11556.921560
62.037000	0.235709	0.121432	0.230337	0.375816	5260.139813	25127.259731	3624.469907	11031.599945
62.537000	0.231025	0.123533	0.227491	0.380312	5211.796015	25005.431628	3612.745023	10948.272364
63.037500	0.233932	0.127503	0.232604	0.383684	5209.375989	25035.777164	3615.507041	10886.345886
63.535000	0.237183	0.130202	0.231718	0.381112	5239.884522	25305.103165	3618.191305	10933.532765
64.035000	0.237366	0.133813	0.234545	0.381427	5239.192952	25475.233062	3622.214060	10927.746968
64.542000	0.237119	0.134819	0.234756	0.379172	5249.803071	25644.777126	3626.182401	10969.312016
65.036000	0.234370	0.137219	0.238196	0.384356	5208.155155	25499.916424	3623.372219	10874.062733
65.539000	0.241884	0.139825	0.239512	0.377365	5284.884653	26003.154530	3636.856488	11002.780265
66.037000	0.243471	0.143651	0.244983	0.378879	5285.275869	26126.068566	3643.371986	10974.730412
66.536500	0.244873	0.144458	0.252475	0.377425	5300.688342	26246.887110	3658.320733	11001.664276
67.037500	0.243340	0.145951	0.245115	0.382594	5264.676992	26050.749184	3637.470623	10906.299750
67.537000	0.246133	0.146274	0.250401	0.376168	5314.363465	26412.124540	3656.942805	11025.038638
68.037500	0.246946	0.148267	0.242891	0.376619	5316.332441	26495.453233	3643.648628	11016.638290
68.535500	0.249164	0.150662	0.253715	0.378068	5320.529492	26546.754096	3659.328943	10989.745095
69.035000	0.247104	0.148769	0.249780	0.383686	5278.969276	26142.624075	3643.354255	10886.297967
69.535500	0.249334	0.152065	0.254350	0.379433	5314.014394	26548.820145	3658.096764	10964.493701
70.038500	0.253343	0.152770	0.260665	0.381447	5324.905400	26477.890070	3665.392890	10927.377398
70.536000	0.253308	0.154651	0.259971	0.384832	5306.268434	26396.654159	3658.471836	10865.369641
71.036500	0.249122	0.154018	0.259259	0.391918	5245.868232	25984.104302	3645.421749	10737.132104
71.537000	0.253705	0.154410	0.262370	0.388624	5287.911514	26180.165580	3656.122431	10796.480461
72.037000	0.255561	0.155558	0.254972	0.391398	5282.973781	26093.495810	3639.200022	10746.473104
72.534500	0.252099	0.156326	0.260599	0.393038	5255.711334	26047.113818	3645.785545	10717.054038
73.034500	0.253618	0.157121	0.254523	0.397762	5238.750351	25839.294100	3628.084609	10632.923848
73.535500	0.255668	0.158057	0.260788	0.399778	5238.926591	25782.516276	3634.996437	10597.302033
74.035000	0.256710	0.158781	0.265486	0.402981	5227.565859	25652.748772	3637.445078	10541.059716
74.539000	0.259598	0.160083	0.263799	0.406814	5222.608215	25520.978685	3628.447579	10474.270641
75.036000	0.256002	0.158417	0.266919	0.411131	5181.559475	25212.534043	3626.512458	10399.765862
75.536500	0.260557	0.159857	0.269811	0.412245	5199.318701	25229.247573	3629.388156	10380.652840
76.037000	0.260214	0.159415	0.266075	0.414429	5186.263456	25095.117331	3619.854138	10343.339960
76.534000	0.261012	0.161589	0.270469	0.418005	5171.995876	25023.814432	3621.164226	10282.644921
77.037000	0.259780	0.162437	0.264657	0.425674	5126.897225	24680.285652	3599.888936	10154.147338
77.537500	0.260872	0.162412	0.269981	0.422626	5147.759202	24831.865275	3613.022629	10204.943502
78.035000	0.260975	0.163063	0.267701	0.423986	5141.405473	24796.220206	3607.281527	10182.232598
78.535000	0.267111	0.164614	0.271812	0.426346	5160.554410	24755.639019	3610.038743	10143.001474
79.036000	0.265745	0.163795	0.273448	0.426443	5153.113596	24709.758923	3612.468983	10141.387948
79.536000	0.266287	0.165842	0.268538	0.429455	5140.610936	24661.467401	3600.043326	10091.618014
80.036000	0.270217	0.165584	0.270690	0.429711	5159.231993	24635.812182	3602.996194	10087.405524
80.536500	0.269248	0.166450	0.268322	0.430667	5149.459594	24631.391123	3597.829773	10071.701842
81.036500	0.272119	0.167103	0.274506	0.432123	5156.639779	24591.382053	3605.192240	10047.835510
81.537000	0.271611	0.166495	0.280298	0.433061	5149.296744	24514.547169	3612.836152	10032.496197
82.037000	0.269646	0.164973	0.271809	0.432263	5143.393422	24478.671093	3600.764377	10045.541203
82.535000	0.274800	0.168877	0.280594	0.436295	5149.070849	24472.333438	3608.198143	9979.885026
83.035500	0.272289	0.167187	0.273667	0.435961	5138.069810	24405.359733	3597.907235	9985.310669
83.535500	0.270527	0.167591	0.274023	0.436896	5124.518060	24379.150121	3597.010605	9970.159418
84.036000	0.270837	0.167851	0.275727	0.437770	5121.697874	24348.933931	3598.297024	9956.029103
84.536500	0.272674	0.170017	0.282926	0.441512	5112.181955	24271.508051	3603.675535	9895.842578
85.036500	0.275190	0.169502	0.287563	0.442741	5118.606931	24186.194847	3609.022872	9876.198787
85.536500	0.277794	0.169393	0.279660	0.443479	5127.949130	24144.842541	3595.548897	9864.421199
86.036500	0.275454	0.170063	0.276007	0.444840	5109.459549	24111.199325	3587.853671	9842.761219
86.534000	0.272668	0.168799	0.282393	0.444474	5097.454432	24067.538501	3598.238497	9848.580980
87.035000	0.275145	0.169454	0.284210	0.448187	5091.344484	23919.575310	3595.305839	9789.774405
87.535500	0.275093	0.168120	0.278974	0.446894	5097.476913	23917.591824	3589.248279	9810.200145
88.034500	0.276203	0.169096	0.289606	0.448925	5092.925110	23866.757554	3602.532093	9778.142468
88.538500	0.275408	0.170412	0.285695	0.450583	5080.847114	23850.304787	3593.899439	9752.090268
89.036000	0.277494	0.169789	0.282944	0.453036	5079.046275	23702.997997	3585.934336	9713.733858
89.536000	0.281592	0.169603	0.279999	0.452107	5103.847638	23738.557024	3582.874708	9728.245565
90.036500	0.277397	0.170020	0.289891	0.452525	5081.080767	23738.478141	3597.381011	9721.712564
90.536500	0.279171	0.170937	0.283735	0.454393	5080.615438	23693.032502	3585.073991	9692.603570
91.037000	0.279847	0.172433	0.290548	0.456183	5075.156793	23679.058250	3592.751419	9664.843512
91.537500	0.277607	0.170526	0.283107	0.454915	5070.405824	23648.607006	3583.329944	9684.506016
92.035000	0.280596	0.173622	0.279928	0.456729	5076.148766	23709.680461	3575.803533	9656.389532
92.535000	0.277412	0.171588	0.286082	0.456004	5064.145427	23647.363052	3586.194522	9667.620135
93.038000	0.278892	0.172436	0.282861	0.460191	5051.000259	23489.028547	3575.012233	9603.078509
93.536000	0.279188	0.171461	0.282617	0.457167	5067.129154	23586.021638	3579.186675	9649.630686
94.036000	0.280304	0.171658	0.284215	0.456630	5075.209511	23620.886379	3582.410315	9657.927163
94.536500	0.283388	0.172581	0.281331	0.457042	5088.328839	23645.182268	3577.439615	9651.558615
95.037000	0.279983	0.173940	0.290053	0.461215	5051.323934	23511.676311	3584.309063	9587.386979
95.533500	0.282249	0.173324	0.292979	0.459172	5072.288088	23579.283272	3591.894225	9618.731385
96.034000	0.284683	0.174052	0.294725	0.459391	5083.142483	23603.437749	3594.243543	9615.362716
96.537500	0.282620	0.173878	0.287228	0.459685	5071.591528	23581.223215	3582.346229	9610.841566
