sample name	sample
index	781
start time	 03-31-2021  01:49:14 PM


Wavelength (nm)	Absorbance
494.344910	-0.402706
494.563924	-0.402706
494.782919	-0.402706
495.001897	0.009597
495.220856	0.106176
495.439797	0.309191
495.658719	0.293124
495.877624	0.412273
496.096510	0.333304
496.315378	0.111761
496.534227	0.046422
496.753059	0.009440
496.971872	0.020128
497.190667	0.063086
497.409444	0.058787
497.628203	0.059162
497.846943	0.060101
498.065665	0.061022
498.284369	0.060640
498.503055	0.061600
498.721723	0.062490
498.940372	0.062020
499.159003	0.062113
499.377616	0.062302
499.596210	0.063141
499.814787	0.062717
500.033345	0.063209
500.251885	0.065615
500.470406	0.066154
500.688910	0.066510
500.907395	0.067636
501.125862	0.066130
501.344311	0.065688
501.562742	0.065745
501.781154	0.066974
501.999548	0.066682
502.217924	0.065236
502.436282	0.064498
502.654621	0.063469
502.872942	0.062637
503.091245	0.064022
503.309530	0.063710
503.527797	0.063006
503.746045	0.063082
503.964275	0.062475
504.182487	0.062243
504.400681	0.061960
504.618856	0.061138
504.837013	0.061296
505.055152	0.060705
505.273273	0.062012
505.491376	0.062211
505.709460	0.061138
505.927526	0.061438
506.145574	0.061307
506.363604	0.061405
506.581615	0.062744
506.799608	0.063758
507.017583	0.063832
507.235540	0.063444
507.453478	0.063958
507.671399	0.064819
507.889301	0.065534
508.107185	0.065654
508.325050	0.065545
508.542898	0.065122
508.760727	0.064460
508.978538	0.064311
509.196330	0.064513
509.414105	0.064957
509.631861	0.063845
509.849599	0.062542
510.067319	0.062636
510.285021	0.063553
510.502704	0.063328
510.720369	0.063030
510.938016	0.062956
511.155645	0.062855
511.373255	0.062604
511.590848	0.062553
511.808422	0.063655
512.025977	0.063151
512.243515	0.062794
512.461034	0.063503
512.678536	0.063527
512.896018	0.063655
513.113483	0.064534
513.330930	0.064191
513.548358	0.064808
513.765768	0.065283
513.983160	0.066136
514.200533	0.066082
514.417889	0.066229
514.635226	0.066301
514.852545	0.067176
515.069845	0.066234
515.287128	0.066622
515.504392	0.066802
515.721638	0.066810
515.938866	0.067141
516.156075	0.066785
516.373267	0.066654
516.590440	0.067089
516.807594	0.066351
517.024731	0.066729
517.241850	0.066162
517.458950	0.066423
517.676032	0.066049
517.893095	0.065984
518.110141	0.066141
518.327168	0.065879
518.544177	0.066190
518.761168	0.066677
518.978141	0.066567
519.195095	0.067216
519.412031	0.067541
519.628949	0.067586
519.845849	0.067485
520.062731	0.068149
520.279594	0.068245
520.496439	0.068249
520.713266	0.067453
520.930074	0.067455
521.146865	0.066835
521.363637	0.066498
521.580391	0.066596
521.797127	0.066645
522.013844	0.066562
522.230543	0.066872
522.447224	0.066913
522.663887	0.067734
522.880532	0.067933
523.097158	0.069264
523.313766	0.069129
523.530356	0.069525
523.746928	0.069504
523.963481	0.069479
524.180017	0.069479
524.396534	0.069019
524.613032	0.068701
524.829513	0.068691
525.045975	0.068214
525.262420	0.068738
525.478845	0.068808
525.695253	0.069361
525.911643	0.069329
526.128014	0.069377
526.344367	0.069713
526.560702	0.070469
526.777018	0.070223
526.993316	0.070544
527.209597	0.070303
527.425858	0.070258
527.642102	0.069818
527.858328	0.070462
528.074535	0.070784
528.290724	0.070656
528.506894	0.069748
528.723047	0.070060
528.939181	0.069872
529.155297	0.070075
529.371395	0.070447
529.587475	0.070529
529.803536	0.070224
530.019579	0.070738
530.235604	0.071564
530.451611	0.073044
530.667600	0.073741
530.883570	0.074011
531.099522	0.074320
531.315456	0.073910
531.531372	0.074208
531.747269	0.074377
531.963148	0.074088
532.179009	0.074025
532.394852	0.073805
532.610676	0.073761
532.826482	0.074217
533.042271	0.074370
533.258040	0.074848
533.473792	0.074729
533.689525	0.074939
533.905240	0.075364
534.120937	0.075312
534.336616	0.075197
534.552277	0.075348
534.767919	0.075436
534.983543	0.075765
535.199149	0.075743
535.414736	0.076093
535.630306	0.076024
535.845857	0.075451
536.061390	0.075572
536.276904	0.075272
536.492401	0.075080
536.707879	0.074980
536.923339	0.075163
537.138781	0.075438
537.354204	0.075312
537.569610	0.075577
537.784997	0.075957
538.000366	0.076081
538.215716	0.076756
538.431049	0.077239
538.646363	0.077513
538.861659	0.077592
539.076937	0.078280
539.292196	0.079010
539.507438	0.079124
539.722661	0.079157
539.937866	0.079405
540.153052	0.079464
540.368221	0.079396
540.583371	0.079702
540.798503	0.079380
541.013617	0.079351
541.228712	0.079583
541.443789	0.079435
541.658848	0.080324
541.873889	0.080683
542.088912	0.081059
542.303916	0.081630
542.518902	0.081457
542.733870	0.081557
542.948820	0.081763
543.163752	0.081881
543.378665	0.082936
543.593560	0.082527
543.808437	0.082427
544.023295	0.082529
544.238136	0.082506
544.452958	0.082788
544.667762	0.083623
544.882548	0.082798
545.097315	0.082746
545.312064	0.082396
545.526795	0.082540
545.741508	0.082708
545.956203	0.082042
546.170879	0.082294
546.385537	0.082179
546.600177	0.081740
546.814799	0.082637
547.029402	0.082716
547.243988	0.082820
547.458555	0.082669
547.673103	0.083003
547.887634	0.083887
548.102146	0.083733
548.316640	0.083906
548.531116	0.084145
548.745574	0.084308
548.960013	0.084426
549.174435	0.084481
549.388838	0.084901
549.603222	0.084861
549.817589	0.084687
550.031937	0.084741
550.246267	0.085102
550.460579	0.085249
550.674873	0.085333
550.889148	0.085825
551.103405	0.085935
551.317644	0.086366
551.531865	0.086348
551.746068	0.086400
551.960252	0.086853
552.174418	0.086522
552.388566	0.086798
552.602696	0.086697
552.816807	0.086418
553.030900	0.086298
553.244975	0.086104
553.459032	0.086603
553.673070	0.086934
553.887091	0.086736
554.101093	0.087245
554.315077	0.087073
554.529042	0.087493
554.742990	0.087498
554.956919	0.087879
555.170830	0.087910
555.384722	0.087406
555.598597	0.087732
555.812453	0.087744
556.026291	0.087874
556.240111	0.088010
556.453913	0.087790
556.667696	0.088166
556.881461	0.088399
557.095208	0.088737
557.308937	0.089274
557.522647	0.089232
557.736339	0.089254
557.950013	0.089321
558.163669	0.089266
558.377307	0.089693
558.590926	0.089884
558.804527	0.090511
559.018110	0.090513
559.231675	0.090556
559.445221	0.090951
559.658749	0.091544
559.872259	0.091838
560.085751	0.092278
560.299225	0.092042
560.512680	0.092038
560.726117	0.091870
560.939536	0.092002
561.152937	0.092058
561.366319	0.091689
561.579683	0.091731
561.793029	0.091686
562.006357	0.091842
562.219667	0.092164
562.432958	0.091907
562.646231	0.091947
562.859486	0.092407
563.072723	0.092693
563.285941	0.093093
563.499141	0.092810
563.712323	0.092787
563.925487	0.092916
564.138632	0.092836
564.351760	0.093275
564.564869	0.092977
564.777960	0.092929
564.991032	0.092887
565.204087	0.093066
565.417123	0.093478
565.630141	0.093904
565.843140	0.094128
566.056122	0.094129
566.269085	0.094439
566.482030	0.094583
566.694957	0.094661
566.907866	0.094655
567.120756	0.094468
567.333628	0.094668
567.546482	0.094660
567.759318	0.094307
567.972135	0.094517
568.184935	0.094762
568.397716	0.094728
568.610478	0.094603
568.823223	0.094990
569.035949	0.095218
569.248657	0.095284
569.461347	0.095612
569.674019	0.095710
569.886672	0.095791
570.099308	0.095578
570.311925	0.096282
570.524523	0.096496
570.737104	0.096858
570.949666	0.097094
571.162210	0.096991
571.374736	0.096754
571.587244	0.096904
571.799733	0.097333
572.012205	0.097199
572.224658	0.097366
572.437092	0.097616
572.649509	0.097566
572.861907	0.097858
573.074287	0.098311
573.286649	0.098782
573.498993	0.099376
573.711318	0.099573
573.923625	0.099869
574.135914	0.099946
574.348185	0.100131
574.560438	0.100308
574.772672	0.100423
574.984888	0.100188
575.197086	0.100539
575.409266	0.100351
575.621427	0.100278
575.833570	0.100633
576.045695	0.100676
576.257802	0.100558
576.469890	0.100470
576.681961	0.100081
576.894013	0.100523
577.106046	0.100442
577.318062	0.100717
577.530059	0.100658
577.742039	0.100692
577.954000	0.100577
578.165942	0.100694
578.377867	0.100720
578.589773	0.101131
578.801661	0.101161
579.013531	0.101399
579.225382	0.101405
579.437216	0.101635
579.649031	0.101918
579.860828	0.102102
580.072606	0.102460
580.284367	0.102578
580.496109	0.102750
580.707833	0.103012
580.919539	0.102578
581.131227	0.102865
581.342896	0.102928
581.554547	0.102928
581.766180	0.103234
581.977795	0.103512
582.189391	0.103532
582.400969	0.103407
582.612529	0.103507
582.824071	0.103659
583.035595	0.103833
583.247100	0.103964
583.458587	0.104081
583.670056	0.103996
583.881506	0.103803
584.092939	0.103934
584.304353	0.104201
584.515749	0.103497
584.727127	0.103475
584.938486	0.103553
585.149828	0.103906
585.361151	0.104000
585.572456	0.103815
585.783742	0.104103
585.995011	0.104351
586.206261	0.104207
586.417493	0.104929
586.628706	0.104880
586.839902	0.105036
587.051079	0.105047
587.262238	0.105005
587.473379	0.105577
587.684502	0.105349
587.895606	0.105452
588.106692	0.106135
588.317760	0.106063
588.528810	0.106720
588.739841	0.106668
588.950855	0.106588
589.161850	0.106456
589.372827	0.106090
589.583785	0.106557
589.794726	0.106780
590.005648	0.106616
590.216552	0.106843
590.427437	0.106631
590.638305	0.106784
590.849154	0.106802
591.059985	0.107215
591.270798	0.107980
591.481592	0.108119
591.692369	0.108518
591.903127	0.108870
592.113867	0.109242
592.324588	0.109482
592.535292	0.109323
592.745977	0.109676
592.956644	0.109839
593.167293	0.109801
593.377923	0.109478
593.588536	0.109019
593.799130	0.108776
594.009706	0.108609
594.220263	0.108136
594.430803	0.108606
594.641324	0.108477
594.851827	0.108458
595.062312	0.108207
595.272778	0.108777
595.483227	0.108919
595.693657	0.109042
595.904069	0.109067
596.114462	0.109889
596.324838	0.109800
596.535195	0.110117
596.745534	0.110270
596.955855	0.110600
597.166157	0.110333
597.376441	0.110800
597.586707	0.110970
597.796955	0.111283
598.007185	0.111238
598.217396	0.111448
598.427589	0.111271
598.637764	0.111542
598.847921	0.111595
599.058060	0.112065
599.268180	0.111688
599.478282	0.111785
599.688366	0.111853
599.898431	0.111733
600.108479	0.111853
600.318508	0.112087
600.528519	0.112238
600.738511	0.111909
600.948486	0.112016
601.158442	0.112518
601.368380	0.112679
601.578300	0.112748
601.788202	0.113015
601.998085	0.112961
602.207950	0.113105
602.417797	0.112840
602.627626	0.113348
602.837436	0.112863
603.047228	0.112874
603.257002	0.112708
603.466758	0.112547
603.676496	0.112540
603.886215	0.112751
604.095916	0.113087
604.305599	0.113088
604.515264	0.113095
604.724910	0.113497
604.934538	0.113385
605.144148	0.113540
605.353740	0.113764
605.563314	0.114071
605.772869	0.114179
605.982406	0.114162
606.191925	0.114215
606.401425	0.114443
606.610908	0.114477
606.820372	0.114722
607.029818	0.115177
607.239246	0.115764
607.448655	0.115943
607.658047	0.116097
607.867420	0.116234
608.076775	0.116826
608.286111	0.116662
608.495430	0.116893
608.704730	0.116738
608.914012	0.116227
609.123275	0.115971
609.332521	0.115855
609.541748	0.115792
609.750957	0.116182
609.960148	0.116009
610.169321	0.116335
610.378475	0.116457
610.587611	0.116679
610.796729	0.117253
611.005829	0.117320
611.214910	0.117299
611.423974	0.117356
611.633019	0.116997
611.842045	0.117068
612.051054	0.116925
612.260044	0.116680
612.469017	0.116766
612.677970	0.116573
612.886906	0.116495
613.095824	0.116911
613.304723	0.117111
613.513604	0.117106
613.722467	0.117321
613.931311	0.117298
614.140138	0.117568
614.348946	0.117962
614.557736	0.118323
614.766507	0.118588
614.975261	0.118386
615.183996	0.118528
615.392713	0.118450
615.601412	0.118594
615.810092	0.119135
616.018754	0.119203
616.227399	0.119236
616.436024	0.119454
616.644632	0.119617
616.853222	0.119974
617.061793	0.120066
617.270346	0.120472
617.478880	0.120493
617.687397	0.120430
617.895895	0.120576
618.104375	0.120814
618.312837	0.120597
618.521281	0.120579
618.729706	0.120468
618.938113	0.120618
619.146502	0.120767
619.354873	0.121049
619.563226	0.121186
619.771560	0.121273
619.979876	0.120985
620.188174	0.121297
620.396453	0.121678
620.604715	0.121954
620.812958	0.122002
621.021183	0.122231
621.229390	0.122025
621.437578	0.122277
621.645748	0.122577
621.853900	0.123006
622.062034	0.123202
622.270150	0.123098
622.478247	0.123223
622.686326	0.123225
622.894387	0.123294
623.102430	0.123716
623.310454	0.123701
623.518461	0.123758
623.726449	0.123565
623.934418	0.123404
624.142370	0.123480
624.350303	0.123263
624.558218	0.123186
624.766115	0.123102
624.973994	0.122736
625.181855	0.122640
625.389697	0.122569
625.597521	0.122635
625.805327	0.122933
626.013114	0.122899
626.220883	0.122875
626.428634	0.122845
626.636367	0.122725
626.844082	0.122977
627.051778	0.122886
627.259457	0.122829
627.467117	0.122558
627.674758	0.122446
627.882382	0.122564
628.089987	0.122868
628.297574	0.123373
628.505143	0.123652
628.712694	0.123787
628.920226	0.124115
629.127740	0.124314
629.335236	0.124855
629.542714	0.124858
629.750174	0.125097
629.957615	0.125454
630.165038	0.125562
630.372443	0.125658
630.579829	0.125652
630.787198	0.125887
630.994548	0.125883
631.201880	0.125918
631.409194	0.126167
631.616489	0.126370
631.823766	0.126411
632.031025	0.126447
632.238266	0.126715
632.445489	0.126973
632.652693	0.127002
632.859879	0.127235
633.067047	0.127432
633.274197	0.127603
633.481329	0.127606
633.688442	0.127467
633.895537	0.127262
634.102614	0.127199
634.309672	0.127247
634.516713	0.127166
634.723735	0.127188
634.930739	0.127326
635.137724	0.127029
635.344692	0.127115
635.551641	0.127136
635.758572	0.127158
635.965485	0.127028
636.172379	0.126946
636.379256	0.127130
636.586114	0.127451
636.792954	0.127394
636.999775	0.127742
637.206579	0.127713
637.413364	0.127902
637.620131	0.128320
637.826880	0.128570
638.033610	0.128722
638.240323	0.128595
638.447017	0.128570
638.653692	0.128513
638.860350	0.128423
639.066990	0.128465
639.273611	0.128382
639.480214	0.128615
639.686798	0.128912
639.893365	0.128929
640.099913	0.129229
640.306443	0.129368
640.512955	0.129491
640.719449	0.129786
640.925924	0.129905
641.132381	0.130443
641.338820	0.130260
641.545241	0.130227
641.751644	0.130255
641.958028	0.130365
642.164394	0.130452
642.370742	0.130763
642.577071	0.130679
642.783383	0.130894
642.989676	0.130672
643.195951	0.130955
643.402207	0.130840
643.608446	0.131103
643.814666	0.131411
644.020868	0.131493
644.227052	0.131446
644.433218	0.131732
644.639365	0.131737
644.845494	0.131889
645.051605	0.131948
645.257698	0.132057
645.463772	0.132190
645.669828	0.132156
645.875866	0.132114
646.081886	0.132118
646.287888	0.132077
646.493871	0.132313
646.699836	0.132372
646.905783	0.132265
647.111712	0.132546
647.317622	0.132614
647.523514	0.132686
647.729388	0.132752
647.935244	0.132888
648.141082	0.132930
648.346901	0.133002
648.552702	0.133385
648.758485	0.133600
648.964250	0.133655
649.169996	0.133925
649.375724	0.133927
649.581434	0.133986
649.787126	0.134143
649.992800	0.134431
650.198455	0.134268
650.404092	0.134169
650.609711	0.134297
650.815311	0.134415
651.020894	0.134445
651.226458	0.134520
651.432004	0.134973
651.637532	0.135191
651.843041	0.135180
652.048532	0.135292
652.254006	0.135252
652.459460	0.135317
652.664897	0.135453
652.870315	0.135602
653.075716	0.135768
653.281097	0.135689
653.486461	0.135704
653.691807	0.135873
653.897134	0.136232
654.102443	0.136458
654.307734	0.136622
654.513006	0.136859
654.718261	0.137012
654.923497	0.137151
655.128715	0.137220
655.333915	0.137401
655.539096	0.137519
655.744259	0.137698
655.949404	0.137805
656.154531	0.137898
656.359640	0.138023
656.564730	0.138003
656.769802	0.138097
656.974856	0.138389
657.179892	0.138306
657.384909	0.138419
657.589908	0.138427
657.794889	0.138522
657.999852	0.138643
658.204797	0.138863
658.409723	0.139047
658.614631	0.139085
658.819521	0.138866
659.024393	0.139077
659.229246	0.138979
659.434081	0.139115
659.638898	0.139003
659.843697	0.139085
660.048478	0.138941
660.253240	0.138801
660.457984	0.139047
660.662710	0.139252
660.867417	0.139302
661.072107	0.139609
661.276778	0.139727
661.481431	0.139897
661.686066	0.140027
661.890682	0.140174
662.095281	0.140378
662.299861	0.140609
662.504422	0.140736
662.708966	0.141072
662.913491	0.141274
663.117999	0.141371
663.322488	0.141881
663.526958	0.141957
663.731411	0.142231
663.935845	0.142300
664.140261	0.142439
664.344659	0.142537
664.549038	0.142685
664.753400	0.142752
664.957743	0.142730
665.162068	0.142639
665.366375	0.142678
665.570663	0.142515
665.774933	0.142804
665.979185	0.142709
666.183419	0.142829
666.387635	0.142856
666.591832	0.142961
666.796011	0.143144
667.000172	0.143361
667.204315	0.143424
667.408439	0.143822
667.612545	0.143906
667.816634	0.144150
668.020703	0.144549
668.224755	0.144816
668.428788	0.144850
668.632803	0.144924
668.836800	0.144667
669.040779	0.145109
669.244739	0.144842
669.448681	0.145165
669.652605	0.145236
669.856511	0.145289
670.060399	0.145037
670.264268	0.145030
670.468119	0.145201
670.671952	0.145471
670.875767	0.145240
671.079563	0.145659
671.283341	0.145493
671.487101	0.145667
671.690843	0.145688
671.894567	0.146198
672.098272	0.146460
672.301959	0.146598
672.505628	0.146770
672.709278	0.147052
672.912911	0.147084
673.116525	0.147497
673.320121	0.147643
673.523699	0.147611
673.727258	0.147307
673.930799	0.147560
674.134322	0.147541
674.337827	0.147833
674.541314	0.147908
674.744782	0.148017
674.948232	0.147834
675.151664	0.147756
675.355078	0.148121
675.558474	0.148320
675.761851	0.148234
675.965210	0.148265
676.168551	0.148379
676.371873	0.148433
676.575178	0.148243
676.778464	0.148487
676.981732	0.148629
677.184981	0.148544
677.388213	0.148808
677.591426	0.148993
677.794621	0.149383
677.997798	0.149486
678.200956	0.149924
678.404097	0.150499
678.607219	0.150565
678.810323	0.150930
679.013408	0.151184
679.216476	0.151364
679.419525	0.151478
679.622556	0.151640
679.825569	0.151649
680.028563	0.151645
680.231540	0.151473
680.434498	0.151593
680.637438	0.151557
680.840359	0.151600
681.043263	0.151686
681.246148	0.151923
681.449015	0.151965
681.651864	0.152296
681.854694	0.152254
682.057506	0.152713
682.260301	0.152756
682.463076	0.152718
682.665834	0.153006
682.868573	0.153118
683.071295	0.153108
683.273998	0.153163
683.476682	0.153060
683.679349	0.153377
683.881997	0.153467
684.084627	0.153777
684.287239	0.154133
684.489833	0.154125
684.692408	0.154207
684.894965	0.154383
685.097504	0.154622
685.300025	0.154999
685.502527	0.155216
685.705012	0.155166
685.907478	0.155264
686.109925	0.155315
686.312355	0.155402
686.514766	0.155604
686.717159	0.155853
686.919534	0.155768
687.121891	0.155502
687.324230	0.155562
687.526550	0.155699
687.728852	0.155670
687.931136	0.155590
688.133401	0.155673
688.335649	0.155971
688.537878	0.155818
688.740089	0.156119
688.942281	0.156334
689.144456	0.156121
689.346612	0.156272
689.548750	0.156342
689.750870	0.156633
689.952971	0.156778
690.155055	0.156652
690.357120	0.156752
690.559167	0.156768
690.761195	0.156889
690.963206	0.157298
691.165198	0.157302
691.367172	0.157576
691.569128	0.157484
691.771065	0.157373
691.972984	0.157337
692.174885	0.157680
692.376768	0.157853
692.578633	0.157984
692.780479	0.158014
692.982308	0.158088
693.184118	0.158101
693.385909	0.158451
693.587683	0.158802
693.789438	0.158991
693.991175	0.159050
694.192894	0.159108
694.394595	0.159222
694.596277	0.159261
694.797941	0.159528
694.999587	0.159661
695.201215	0.159513
695.402824	0.159647
695.604416	0.159788
695.805989	0.160007
696.007543	0.160184
696.209080	0.160179
696.410598	0.160383
696.612099	0.160296
696.813580	0.160278
697.015044	0.160494
697.216490	0.160598
697.417917	0.160761
697.619326	0.160887
697.820717	0.161080
698.022089	0.161485
698.223444	0.161640
698.424780	0.161977
698.626098	0.162329
698.827397	0.162449
699.028679	0.162655
699.229942	0.162780
699.431187	0.162796
699.632414	0.163071
699.833622	0.162992
700.034813	0.163018
700.235985	0.162908
700.437139	0.162857
700.638274	0.162970
700.839392	0.163103
701.040491	0.163320
701.241572	0.163417
701.442635	0.163264
701.643679	0.163506
701.844706	0.163709
702.045714	0.164040
702.246704	0.164313
702.447675	0.164472
702.648629	0.164426
702.849564	0.164428
703.050481	0.164506
703.251380	0.164657
703.452260	0.164610
703.653122	0.164559
703.853966	0.164306
704.054792	0.164209
704.255600	0.164272
704.456389	0.164355
704.657160	0.164256
704.857913	0.164160
705.058648	0.164097
705.259365	0.164277
705.460063	0.164137
705.660743	0.164286
705.861405	0.164362
706.062048	0.164405
706.262674	0.164551
706.463281	0.164591
706.663870	0.164690
706.864441	0.164752
707.064993	0.164716
707.265527	0.164985
707.466043	0.165176
707.666541	0.165238
707.867021	0.165348
708.067482	0.165179
708.267925	0.165361
708.468350	0.165329
708.668757	0.165325
708.869145	0.165461
709.069516	0.165560
709.269868	0.165672
709.470201	0.165870
709.670517	0.165922
709.870814	0.166055
710.071093	0.166036
710.271354	0.166462
710.471597	0.166705
710.671821	0.166710
710.872028	0.166752
711.072216	0.166829
711.272385	0.166737
711.472537	0.166749
711.672670	0.166802
711.872785	0.166885
712.072882	0.166731
712.272961	0.166666
712.473021	0.166581
712.673063	0.166558
712.873087	0.166502
713.073093	0.166539
713.273081	0.166368
713.473050	0.166554
713.673001	0.166564
713.872934	0.166579
714.072849	0.166485
714.272745	0.166662
714.472623	0.166909
714.672483	0.167091
714.872325	0.167215
715.072148	0.167354
715.271954	0.167267
715.471741	0.167500
715.671509	0.167400
715.871260	0.167622
716.070992	0.167432
716.270707	0.167331
716.470403	0.167088
716.670080	0.167125
716.869740	0.167354
717.069381	0.167316
717.269004	0.167189
717.468609	0.167322
717.668195	0.167115
717.867764	0.167315
718.067314	0.167420
718.266846	0.167702
718.466360	0.167781
718.665855	0.167548
718.865332	0.167695
719.064791	0.167823
719.264232	0.167904
719.463655	0.168112
719.663059	0.168250
719.862445	0.168264
720.061813	0.168127
720.261163	0.167926
720.460494	0.168178
720.659807	0.168024
720.859102	0.167860
721.058379	0.167775
721.257638	0.167570
721.456878	0.167506
721.656100	0.167064
721.855304	0.167089
722.054490	0.167116
722.253657	0.166750
722.452806	0.166827
722.651937	0.166825
722.851050	0.166652
723.050145	0.166681
723.249221	0.166561
723.448279	0.166647
723.647319	0.166496
723.846340	0.166642
724.045344	0.166953
724.244329	0.167138
724.443296	0.167121
724.642245	0.167414
724.841175	0.167546
725.040088	0.167562
725.238982	0.167726
725.437857	0.167736
725.636715	0.167606
725.835554	0.167362
726.034376	0.167016
726.233179	0.167002
726.431963	0.166830
726.630730	0.166700
726.829478	0.166676
727.028208	0.166638
727.226920	0.166831
727.425614	0.166848
727.624289	0.166975
727.822946	0.167038
728.021585	0.166863
728.220206	0.166946
728.418808	0.167077
728.617392	0.167166
728.815958	0.167258
729.014506	0.167191
729.213036	0.167264
729.411547	0.167439
729.610040	0.167576
729.808515	0.167792
730.006972	0.167976
730.205410	0.168018
730.403831	0.168204
730.602233	0.168224
730.800616	0.168186
730.998982	0.167902
731.197329	0.167797
731.395658	0.167880
731.593969	0.168059
731.792262	0.167835
731.990536	0.167989
732.188793	0.167885
732.387031	0.167659
732.585250	0.167648
732.783452	0.167854
732.981635	0.168004
733.179800	0.167604
733.377947	0.167497
733.576076	0.167560
733.774186	0.167459
733.972278	0.167361
734.170352	0.167665
734.368408	0.167579
734.566446	0.167747
734.764465	0.167653
734.962466	0.168036
735.160449	0.168116
735.358413	0.168146
735.556360	0.168073
735.754288	0.168113
735.952198	0.168320
736.150090	0.168391
736.347963	0.168285
736.545818	0.168434
736.743655	0.168292
736.941474	0.168001
737.139275	0.168111
737.337057	0.168072
737.534821	0.168187
737.732567	0.167645
737.930295	0.167421
738.128005	0.167302
738.325696	0.166921
738.523369	0.166870
738.721024	0.166863
738.918660	0.166613
739.116279	0.166498
739.313879	0.166064
739.511461	0.166192
739.709024	0.166463
739.906570	0.166516
740.104097	0.166517
740.301606	0.166873
740.499097	0.166934
740.696569	0.167117
740.894024	0.167256
741.091460	0.167580
741.288878	0.167545
741.486277	0.167593
741.683659	0.167672
741.881022	0.168031
742.078367	0.167599
742.275694	0.167669
742.473002	0.167506
742.670293	0.167678
742.867565	0.167553
743.064819	0.167487
743.262054	0.167469
743.459272	0.167356
743.656471	0.167052
743.853652	0.167185
744.050815	0.167226
744.247959	0.167288
744.445085	0.167149
744.642194	0.167339
744.839283	0.167571
745.036355	0.167573
745.233408	0.167531
745.430444	0.167734
745.627461	0.167838
745.824459	0.167611
746.021440	0.167672
746.218402	0.167636
746.415346	0.167465
746.612272	0.167458
746.809180	0.167324
747.006069	0.167481
747.202940	0.167360
747.399793	0.167241
747.596628	0.167286
747.793444	0.167239
747.990243	0.167117
748.187023	0.167003
748.383784	0.166892
748.580528	0.166895
748.777253	0.166796
748.973960	0.166774
749.170649	0.166771
749.367320	0.166862
749.563973	0.166970
749.760607	0.167193
749.957223	0.167080
750.153821	0.167040
750.350400	0.166934
750.546962	0.166912
750.743505	0.166907
750.940030	0.166646
751.136536	0.166735
751.333025	0.166442
751.529495	0.166330
751.725947	0.166440
751.922381	0.166273
752.118796	0.166280
752.315194	0.166112
752.511573	0.165965
752.707934	0.166191
752.904276	0.165795
753.100601	0.165794
753.296907	0.165756
753.493195	0.165779
753.689465	0.165676
753.885716	0.165908
754.081949	0.166227
754.278164	0.166343
754.474361	0.166306
754.670540	0.166600
754.866700	0.166765
755.062843	0.166763
755.258967	0.166852
755.455072	0.167241
755.651160	0.167249
755.847229	0.167090
756.043280	0.167197
756.239313	0.167315
756.435328	0.167431
756.631324	0.167594
756.827302	0.167536
757.023262	0.167363
757.219204	0.167387
757.415127	0.167141
757.611033	0.166993
757.806920	0.166943
758.002788	0.166542
758.198639	0.166569
758.394471	0.166406
758.590286	0.166327
758.786081	0.166451
758.981859	0.166114
759.177619	0.165955
759.373360	0.166003
759.569083	0.165750
759.764788	0.166087
759.960474	0.165814
760.156143	0.165455
760.351793	0.165326
760.547425	0.165290
760.743038	0.165666
760.938634	0.165884
761.134211	0.166095
761.329770	0.166246
761.525311	0.166231
761.720833	0.166358
761.916338	0.166637
762.111824	0.166756
762.307292	0.166706
762.502741	0.166308
762.698173	0.166260
762.893586	0.166090
763.088981	0.166133
763.284358	0.165904
763.479716	0.165938
763.675057	0.166129
763.870379	0.166006
764.065683	0.166133
764.260968	0.166291
764.456236	0.166095
764.651485	0.166158
764.846716	0.166122
765.041929	0.166496
765.237123	0.166350
765.432299	0.165868
765.627457	0.165840
765.822597	0.165740
766.017719	0.165798
766.212822	0.165987
766.407907	0.165888
766.602974	0.165877
766.798023	0.165612
766.993054	0.165620
767.188066	0.165807
767.383060	0.165779
767.578036	0.165679
767.772993	0.165371
767.967933	0.165313
768.162854	0.165353
768.357757	0.165264
768.552642	0.165228
768.747508	0.165188
768.942356	0.165258
769.137186	0.165272
769.331998	0.165493
769.526792	0.165551
769.721567	0.165425
769.916324	0.165072
770.111063	0.164863
770.305784	0.164827
770.500486	0.164853
770.695171	0.165145
770.889837	0.165238
771.084484	0.165065
771.279114	0.165461
771.473725	0.165572
771.668318	0.165758
771.862893	0.166193
772.057450	0.166269
772.251988	0.166417
772.446509	0.166063
772.641011	0.166323
772.835494	0.166447
773.029960	0.166445
773.224407	0.166636
773.418836	0.166645
773.613247	0.166582
773.807640	0.166591
774.002014	0.166537
774.196370	0.166766
774.390708	0.166720
774.585028	0.166786
774.779330	0.166540
774.973613	0.166618
775.167878	0.166776
775.362125	0.166855
775.556354	0.166856
775.750564	0.167129
775.944756	0.166895
776.138930	0.166697
776.333086	0.166525
776.527223	0.166863
776.721343	0.166724
776.915444	0.166776
777.109526	0.166655
777.303591	0.167129
777.497637	0.166933
777.691666	0.167119
777.885676	0.167431
778.079667	0.167511
778.273641	0.167366
778.467596	0.167552
778.661533	0.167654
778.855452	0.167926
779.049352	0.167765
779.243235	0.168043
779.437099	0.168301
779.630945	0.168324
779.824773	0.168466
780.018582	0.168659
780.212373	0.168610
780.406146	0.168831
780.599901	0.168756
780.793638	0.168774
780.987356	0.168757
781.181056	0.168566
781.374738	0.168563
781.568402	0.168728
781.762047	0.168671
781.955674	0.168940
782.149283	0.168756
782.342874	0.168782
782.536447	0.168680
782.730001	0.168649
782.923537	0.168775
783.117055	0.169032
783.310555	0.169086
783.504036	0.169324
783.697499	0.169340
783.890944	0.169444
784.084371	0.169557
784.277780	0.169676
784.471170	0.169752
784.664542	0.169789
784.857896	0.169611
785.051231	0.169602
785.244549	0.169722
785.437848	0.169771
785.631129	0.170052
785.824392	0.169870
786.017636	0.170032
786.210863	0.169972
786.404071	0.170078
786.597260	0.170272
786.790432	0.170197
786.983585	0.169905
787.176721	0.169829
787.369838	0.169566
787.562936	0.169642
787.756017	0.169536
787.949079	0.169478
788.142123	0.169537
788.335149	0.169428
788.528156	0.169517
788.721146	0.169634
788.914117	0.169579
789.107070	0.169626
789.300005	0.169867
789.492921	0.170132
789.685819	0.170248
789.878699	0.170035
790.071561	0.170109
790.264405	0.170160
790.457230	0.170185
790.650037	0.170614
790.842826	0.170616
791.035597	0.170591
791.228349	0.170690
791.421084	0.170910
791.613800	0.171235
791.806497	0.171364
791.999177	0.171237
792.191838	0.171272
792.384481	0.171066
792.577106	0.171210
792.769713	0.171357
792.962301	0.171045
793.154871	0.170991
793.347423	0.170865
793.539957	0.170891
793.732473	0.171376
793.924970	0.171633
794.117449	0.171505
794.309910	0.171634
794.502353	0.171687
794.694777	0.172097
794.887183	0.172330
795.079571	0.172804
795.271941	0.173003
795.464293	0.172954
795.656626	0.172792
795.848941	0.173205
796.041238	0.173480
796.233516	0.173631
796.425777	0.173697
796.618019	0.173858
796.810243	0.173733
797.002449	0.173730
797.194636	0.173795
797.386805	0.173940
797.578956	0.173788
797.771089	0.173697
797.963204	0.173940
798.155300	0.173750
798.347378	0.173690
798.539438	0.173704
798.731480	0.173838
798.923503	0.173830
799.115509	0.174318
799.307496	0.174619
799.499465	0.174672
799.691415	0.174510
799.883348	0.174752
800.075262	0.174677
800.267158	0.175030
800.459035	0.175162
800.650895	0.175562
800.842736	0.175531
801.034559	0.175782
801.226364	0.175778
801.418150	0.175946
801.609919	0.176268
801.801669	0.176514
801.993401	0.176489
802.185114	0.176835
802.376810	0.176742
802.568487	0.176755
802.760146	0.176762
802.951787	0.177408
803.143409	0.177467
803.335014	0.177707
803.526600	0.177932
803.718168	0.178041
803.909717	0.177911
804.101249	0.178059
804.292762	0.178173
804.484257	0.178398
804.675734	0.178329
804.867192	0.178318
805.058632	0.177945
805.250054	0.178046
805.441458	0.177994
805.632844	0.178306
805.824211	0.178463
806.015561	0.178538
806.206891	0.178415
806.398204	0.178195
806.589499	0.178240
806.780775	0.178597
806.972033	0.178697
807.163273	0.178758
807.354495	0.178593
807.545698	0.178713
807.736883	0.178608
807.928050	0.178605
808.119199	0.178930
808.310329	0.179005
808.501441	0.178870
808.692535	0.178752
808.883611	0.179006
809.074669	0.179209
809.265708	0.179315
809.456729	0.179600
809.647732	0.179668
809.838717	0.179653
810.029683	0.180060
810.220632	0.180333
810.411562	0.180616
810.602474	0.180853
810.793367	0.180846
810.984242	0.181046
811.175100	0.180997
811.365938	0.181224
811.556759	0.181481
811.747562	0.181377
811.938346	0.181367
812.129112	0.181469
812.319860	0.181298
812.510589	0.181204
812.701300	0.180838
812.891994	0.181078
813.082668	0.181291
813.273325	0.181305
813.463964	0.181563
813.654584	0.181587
813.845186	0.181353
814.035769	0.181360
814.226335	0.181503
814.416882	0.181815
814.607411	0.181950
814.797922	0.181732
814.988415	0.181916
815.178889	0.181834
815.369345	0.182069
815.559783	0.182353
815.750203	0.182500
815.940605	0.182755
816.130988	0.182660
816.321353	0.182609
816.511700	0.182926
816.702028	0.182948
816.892339	0.183080
817.082631	0.183077
817.272905	0.183033
817.463161	0.183039
817.653398	0.182743
817.843617	0.182871
818.033819	0.183218
818.224001	0.183252
818.414166	0.183186
818.604312	0.183186
818.794440	0.183073
818.984550	0.183246
819.174642	0.183541
819.364716	0.184088
819.554771	0.184259
819.744808	0.184154
819.934827	0.184295
820.124827	0.184409
820.314810	0.184659
820.504774	0.185013
820.694720	0.185128
820.884647	0.185284
821.074557	0.185154
821.264448	0.185324
821.454321	0.185257
821.644176	0.185272
821.834012	0.185417
822.023831	0.185330
822.213631	0.185496
822.403413	0.185570
822.593176	0.185631
822.782922	0.185720
822.972649	0.185978
823.162358	0.186295
823.352049	0.186420
823.541721	0.186322
823.731376	0.186591
823.921012	0.186503
824.110629	0.186682
824.300229	0.186534
824.489811	0.186685
824.679374	0.186630
824.868919	0.186633
825.058445	0.186513
825.247954	0.186571
825.437444	0.186664
825.626916	0.186967
825.816370	0.187191
826.005806	0.187580
826.195223	0.187612
826.384622	0.187725
826.574003	0.187837
826.763366	0.188219
826.952711	0.188810
827.142037	0.188930
827.331345	0.188825
827.520635	0.188775
827.709906	0.188733
827.899160	0.189015
828.088395	0.189273
828.277612	0.189519
828.466810	0.189494
828.655991	0.189351
828.845153	0.189548
829.034297	0.190065
829.223423	0.190366
829.412531	0.190393
829.601620	0.190305
829.790691	0.190121
829.979744	0.190104
830.168779	0.190458
830.357795	0.190617
830.546793	0.190835
830.735773	0.190768
830.924735	0.190857
831.113679	0.191204
831.302604	0.191473
831.491511	0.191768
831.680400	0.191969
831.869271	0.192026
832.058123	0.192046
832.246957	0.192097
832.435773	0.191912
832.624571	0.191927
832.813351	0.191667
833.002112	0.191676
833.190855	0.191952
833.379580	0.192215
833.568287	0.192201
833.756975	0.192301
833.945645	0.192263
834.134297	0.192508
834.322931	0.192451
834.511547	0.192706
834.700144	0.192555
834.888723	0.192492
835.077284	0.192479
835.265826	0.192596
835.454351	0.192540
835.642857	0.192610
835.831345	0.192725
836.019815	0.192896
836.208266	0.193136
836.396699	0.193443
836.585114	0.193426
836.773511	0.193222
836.961890	0.192997
837.150250	0.193161
837.338592	0.193270
837.526916	0.193307
837.715222	0.193360
837.903510	0.193486
838.091779	0.193561
838.280030	0.193487
838.468263	0.193600
838.656477	0.193925
838.844674	0.194244
839.032852	0.194285
839.221012	0.194398
839.409153	0.194365
839.597277	0.194374
839.785382	0.194597
839.973469	0.194633
840.161538	0.194839
840.349589	0.194997
840.537621	0.194769
840.725635	0.194587
840.913631	0.194853
841.101609	0.195129
841.289568	0.195182
841.477509	0.195180
841.665432	0.195350
841.853337	0.195673
842.041224	0.195380
842.229092	0.195637
842.416942	0.195825
842.604774	0.195782
842.792588	0.195959
842.980383	0.196047
843.168160	0.196078
843.355919	0.196226
843.543660	0.196068
843.731382	0.196548
843.919087	0.196617
844.106773	0.196835
844.294441	0.196985
844.482090	0.197023
844.669722	0.197225
844.857335	0.197537
845.044930	0.197891
845.232507	0.197913
845.420065	0.198145
845.607605	0.198207
845.795127	0.197972
845.982631	0.197918
846.170117	0.198016
846.357584	0.198064
846.545033	0.198104
846.732464	0.197900
846.919877	0.198211
847.107272	0.197990
847.294648	0.198272
847.482006	0.198964
847.669346	0.199086
847.856667	0.199060
848.043971	0.199268
848.231256	0.199414
848.418523	0.199683
848.605771	0.199787
848.793002	0.200114
848.980214	0.199770
849.167408	0.199579
849.354584	0.199532
849.541742	0.199750
849.728881	0.199494
849.916002	0.199344
850.103105	0.199256
850.290190	0.199028
850.477256	0.198921
850.664304	0.199297
850.851334	0.199521
851.038346	0.199653
851.225340	0.199425
851.412315	0.199509
851.599272	0.199618
851.786211	0.199651
851.973132	0.199360
852.160034	0.199265
852.346918	0.199165
852.533784	0.198955
852.720632	0.199010
852.907462	0.199257
853.094273	0.199632
853.281066	0.199722
853.467841	0.199821
853.654598	0.200255
853.841336	0.200292
854.028056	0.200639
854.214758	0.200743
854.401442	0.200713
854.588107	0.200721
854.774755	0.200454
854.961384	0.200366
855.147995	0.200247
855.334587	0.200321
855.521162	0.200417
855.707718	0.200243
855.894256	0.200341
856.080775	0.200108
856.267277	0.200360
856.453760	0.200435
856.640225	0.200693
856.826672	0.200919
857.013101	0.201110
857.199511	0.201360
857.385903	0.201310
857.572277	0.201526
857.758633	0.202172
857.944970	0.202066
858.131290	0.202357
858.317591	0.202467
858.503873	0.202614
858.690138	0.202294
858.876384	0.202277
859.062612	0.202548
859.248822	0.202500
859.435014	0.202098
859.621188	0.202127
859.807343	0.201687
859.993480	0.201409
860.179599	0.201486
860.365699	0.201613
860.551781	0.201449
860.737846	0.201309
860.923891	0.200899
861.109919	0.201181
861.295929	0.201128
861.481920	0.201234
861.667893	0.201336
861.853848	0.200873
862.039784	0.200613
862.225702	0.200613
862.411603	0.200572
862.597484	0.200685
862.783348	0.200540
862.969193	0.200513
863.155021	0.200550
863.340830	0.200415
863.526620	0.200859
863.712393	0.200999
863.898147	0.201264
864.083883	0.200964
864.269601	0.200984
864.455301	0.201088
864.640982	0.201025
864.826645	0.200910
865.012290	0.200838
865.197917	0.200873
865.383526	0.200799
865.569116	0.200663
865.754688	0.200711
865.940242	0.200817
866.125777	0.200634
866.311295	0.200541
866.496794	0.200784
866.682275	0.201020
866.867737	0.200796
867.053182	0.200784
867.238608	0.200710
867.424016	0.201143
867.609406	0.201249
867.794778	0.201263
867.980131	0.201269
868.165466	0.201099
868.350783	0.201364
868.536082	0.201312
868.721362	0.201518
868.906625	0.201384
869.091869	0.201444
869.277094	0.201548
869.462302	0.201854
869.647491	0.201907
869.832662	0.202201
870.017815	0.202048
870.202950	0.202195
870.388066	0.202300
870.573165	0.202348
870.758245	0.202310
870.943306	0.202219
871.128350	0.201895
871.313375	0.201785
871.498382	0.201716
871.683371	0.201551
871.868342	0.201507
872.053294	0.201188
872.238229	0.201298
872.423144	0.201165
872.608042	0.201143
872.792922	0.201076
872.977783	0.201389
873.162626	0.201237
873.347451	0.201222
873.532258	0.200863
873.717046	0.201261
873.901816	0.201156
874.086568	0.200880
874.271302	0.200693
874.456017	0.200892
874.640715	0.200788
874.825394	0.200794
875.010055	0.201059
875.194697	0.201345
875.379322	0.201241
875.563928	0.201393
875.748516	0.201074
875.933085	0.201346
876.117637	0.201200
876.302170	0.200916
876.486685	0.200674
876.671182	0.200402
876.855661	0.200492
877.040121	0.200391
877.224563	0.200199
877.408987	0.200198
877.593393	0.200320
877.777780	0.200119
877.962150	0.200200
878.146501	0.200578
878.330833	0.200604
878.515148	0.200305
878.699444	0.200538
878.883722	0.200981
879.067982	0.201415
879.252224	0.201133
879.436447	0.201284
879.620653	0.201602
879.804840	0.201895
879.989008	0.201906
880.173159	0.201874
880.357291	0.201417
880.541405	0.201005
880.725501	0.200976
880.909579	0.200732
881.093638	0.200993
881.277680	0.200885
881.461703	0.200281
881.645707	0.199873
881.829694	0.199940
882.013662	0.199886
882.197612	0.199795
882.381544	0.199855
882.565458	0.199840
882.749353	0.199729
882.933230	0.199201
883.117089	0.199240
883.300930	0.199332
883.484753	0.199231
883.668557	0.199373
883.852343	0.199445
884.036111	0.199551
884.219861	0.199279
884.403592	0.199122
884.587305	0.199508
884.771000	0.198929
884.954677	0.199161
885.138335	0.199049
885.321976	0.199345
885.505598	0.199045
885.689201	0.198693
885.872787	0.198626
886.056354	0.198918
886.239904	0.198817
886.423434	0.199451
886.606947	0.199219
886.790442	0.198872
886.973918	0.198543
887.157376	0.198528
887.340816	0.198449
887.524237	0.198685
887.707641	0.197836
887.891026	0.197863
888.074393	0.197787
888.257741	0.197722
888.441072	0.197954
888.624384	0.197683
888.807678	0.197928
888.990954	0.197679
889.174211	0.197632
889.357451	0.197504
889.540672	0.197091
889.723875	0.196667
889.907059	0.196168
890.090226	0.196207
890.273374	0.195927
890.456504	0.195532
890.639616	0.195490
890.822709	0.195476
891.005785	0.195650
891.188842	0.195623
891.371881	0.195775
891.554901	0.195671
891.737904	0.195757
891.920888	0.195384
892.103854	0.195294
892.286802	0.195380
892.469731	0.194988
892.652643	0.194742
892.835536	0.194539
893.018410	0.193853
893.201267	0.193891
893.384106	0.193468
893.566926	0.193543
893.749728	0.193222
893.932511	0.192723
894.115277	0.192840
894.298024	0.192674
894.480753	0.192574
894.663464	0.192478
894.846157	0.192342
895.028831	0.192120
895.211487	0.192326
895.394125	0.192357
895.576745	0.192466
895.759346	0.192176
895.941930	0.192313
896.124495	0.192016
896.307041	0.192234
896.489570	0.192040
896.672080	0.191960
896.854573	0.191814
897.037046	0.191505
897.219502	0.191499
897.401940	0.191577
897.584359	0.191247
897.766760	0.191216
897.949143	0.190608
898.131507	0.190490
898.313854	0.190328
898.496182	0.189985
898.678492	0.189942
898.860783	0.189642
899.043057	0.189136
899.225312	0.188893
899.407549	0.188733
899.589768	0.189055
899.771968	0.189039
899.954151	0.188653
900.136315	0.188430
900.318461	0.188295
900.500588	0.187531
900.682698	0.186977
900.864789	0.187062
901.046862	0.186225
901.228917	0.185751
901.410953	0.184951
901.592971	0.184517
901.774972	0.184456
901.956953	0.184043
902.138917	0.183897
902.320862	0.183849
902.502790	0.183709
902.684699	0.183743
902.866589	0.183558
903.048462	0.184039
903.230316	0.184001
903.412152	0.184048
903.593970	0.183881
903.775770	0.183727
903.957551	0.183572
904.139314	0.183008
904.321059	0.182968
904.502786	0.182487
904.684494	0.181903
904.866185	0.181723
905.047857	0.181306
905.229510	0.181547
905.411146	0.181735
905.592763	0.181654
905.774363	0.181916
905.955943	0.182111
906.137506	0.182434
906.319051	0.182038
906.500577	0.182068
906.682085	0.181587
906.863575	0.180940
907.045046	0.180558
907.226500	0.180659
907.407935	0.180004
907.589352	0.179344
907.770750	0.178430
907.952131	0.178646
908.133493	0.178076
908.314837	0.178213
908.496163	0.177953
908.677470	0.177832
908.858760	0.177096
909.040031	0.176720
909.221284	0.176945
909.402518	0.176971
909.583735	0.177101
909.764933	0.177072
909.946113	0.176740
910.127275	0.176966
910.308418	0.176741
910.489544	0.176830
910.670651	0.176704
910.851740	0.176112
911.032810	0.176393
911.213863	0.175540
911.394897	0.175626
911.575913	0.175462
911.756911	0.174716
911.937890	0.174527
912.118851	0.173615
912.299794	0.173194
912.480719	0.173057
912.661626	0.172391
912.842514	0.171972
913.023384	0.171382
913.204236	0.171005
913.385070	0.170509
913.565886	0.169755
913.746683	0.170377
913.927462	0.170078
914.108223	0.169883
914.288965	0.169767
914.469690	0.169886
914.650396	0.169391
914.831084	0.169250
915.011754	0.169328
915.192405	0.169486
915.373038	0.169077
915.553653	0.168784
915.734250	0.168612
915.914829	0.168268
916.095389	0.167823
916.275931	0.167728
916.456455	0.166904
916.636961	0.166458
916.817448	0.165983
916.997917	0.165375
917.178368	0.165781
917.358801	0.165043
917.539216	0.164880
917.719612	0.164298
917.899990	0.164303
918.080350	0.164369
918.260692	0.164075
918.441015	0.164266
918.621320	0.164102
918.801607	0.163565
918.981876	0.163405
919.162127	0.163262
919.342359	0.163627
919.522573	0.163113
919.702769	0.162434
919.882947	0.162338
920.063106	0.161518
920.243247	0.160883
920.423370	0.159821
920.603475	0.159183
920.783562	0.158315
920.963630	0.157316
921.143680	0.156765
921.323712	0.156924
921.503725	0.155804
921.683721	0.155569
921.863698	0.155544
922.043657	0.155623
922.223598	0.155647
922.403520	0.155644
922.583424	0.155299
922.763311	0.155032
922.943178	0.154696
923.123028	0.155067
923.302859	0.154626
923.482673	0.154169
923.662467	0.153871
923.842244	0.153133
924.022003	0.152506
924.201743	0.151771
924.381465	0.151225
924.561169	0.150526
924.740854	0.149522
924.920522	0.149141
925.100171	0.148823
925.279802	0.148586
925.459414	0.148253
925.639009	0.147719
925.818585	0.147839
925.998143	0.147483
926.177683	0.146730
926.357205	0.146340
926.536708	0.145777
926.716193	0.145098
926.895660	0.144838
927.075109	0.144752
927.254539	0.144525
927.433951	0.143855
927.613345	0.143301
927.792721	0.142863
927.972079	0.143245
928.151418	0.143267
928.330739	0.142561
928.510042	0.141776
928.689327	0.141150
928.868593	0.140613
929.047841	0.140551
929.227071	0.140548
929.406283	0.140244
929.585476	0.139768
929.764652	0.139256
929.943809	0.139315
930.122948	0.138865
930.302068	0.138446
930.481171	0.138014
930.660255	0.137839
930.839321	0.136984
931.018369	0.136924
931.197398	0.135980
931.376409	0.135330
931.555402	0.135037
931.734377	0.134766
931.913334	0.134539
932.092272	0.134404
932.271192	0.133559
932.450094	0.133492
932.628978	0.132861
932.807844	0.132001
932.986691	0.131924
933.165520	0.131853
933.344331	0.131483
933.523123	0.131094
933.701898	0.130836
933.880654	0.130403
934.059392	0.129843
934.238111	0.129788
934.416813	0.130351
934.595496	0.129127
934.774161	0.127567
934.952808	0.126547
935.131437	0.125474
935.310047	0.125154
935.488639	0.125218
935.667213	0.124692
935.845769	0.124578
936.024306	0.124331
936.202825	0.124284
936.381326	0.124731
936.559809	0.124756
936.738274	0.124986
936.916720	0.123569
937.095148	0.122129
937.273558	0.121243
937.451950	0.119713
937.630323	0.118492
937.808678	0.118279
937.987015	0.117143
938.165334	0.116586
938.343635	0.115423
938.521917	0.115550
938.700181	0.115622
938.878427	0.115883
939.056655	0.115856
939.234864	0.115028
939.413055	0.113845
939.591228	0.113971
939.769383	0.112942
939.947519	0.113189
940.125638	0.112109
940.303738	0.111407
940.481820	0.111398
940.659883	0.110563
940.837929	0.110151
941.015956	0.110479
941.193965	0.109124
941.371955	0.109439
941.549928	0.109086
941.727882	0.107856
941.905818	0.106964
942.083736	0.104799
942.261636	0.103201
942.439517	0.103625
942.617380	0.103246
942.795225	0.102773
942.973052	0.101402
943.150860	0.099953
943.328651	0.099997
943.506423	0.099824
943.684176	0.101336
943.861912	0.102422
944.039629	0.101302
944.217328	0.100126
944.395009	0.099960
944.572672	0.099473
944.750317	0.099078
944.927943	0.099411
945.105551	0.099386
945.283141	0.097221
945.460712	0.095402
945.638265	0.094460
945.815801	0.093313
945.993317	0.093068
946.170816	0.092844
946.348297	0.092486
946.525759	0.092045
946.703203	0.091573
946.880629	0.092599
947.058036	0.093681
947.235425	0.093761
947.412797	0.093354
947.590149	0.092827
947.767484	0.092723
947.944800	0.092849
948.122099	0.092066
948.299379	0.090948
948.476640	0.088397
948.653884	0.088634
948.831109	0.088371
949.008316	0.088806
949.185505	0.088633
949.362676	0.089239
949.539828	0.088071
949.716962	0.088110
949.894078	0.086925
950.071176	0.088017
950.248256	0.086234
950.425317	0.084779
950.602360	0.084892
950.779385	0.083263
950.956391	0.081935
951.133380	0.081971
951.310350	0.081473
951.487302	0.082075
951.664235	0.081486
951.841151	0.080744
952.018048	0.079688
952.194927	0.079266
952.371788	0.079815
952.548631	0.079336
952.725455	0.078518
952.902261	0.076507
953.079049	0.076592
953.255819	0.075998
953.432570	0.076282
953.609303	0.077295
953.786018	0.074880
953.962715	0.073515
954.139394	0.072526
954.316054	0.072909
954.492696	0.073493
954.669320	0.072422
954.845926	0.072222
955.022513	0.070641
955.199083	0.070203
955.375634	0.071396
955.552166	0.070710
955.728681	0.070382
955.905177	0.069962
956.081655	0.069347
956.258115	0.068340
956.434557	0.065777
956.610980	0.067055
956.787385	0.067824
956.963772	0.066222
957.140141	0.066795
957.316492	0.066608
957.492824	0.067632
957.669138	0.068011
957.845434	0.069508
958.021712	0.069556
958.197971	0.067723
958.374212	0.066261
958.550435	0.068465
958.726640	0.069576
958.902826	0.067559
959.078995	0.063477
959.255145	0.063728
959.431277	0.061520
959.607390	0.063097
959.783486	0.063728
959.959563	0.063343
960.135622	0.060983
960.311662	0.060575
960.487685	0.063613
960.663689	0.063358
960.839675	0.061993
961.015643	0.062470
961.191593	0.062546
961.367524	0.061207
961.543437	0.060647
961.719332	0.059505
961.895209	0.059413
962.071067	0.058714
962.246907	0.061331
962.422730	0.062673
962.598533	0.063779
962.774319	0.062478
962.950086	0.063813
963.125835	0.063438
963.301566	0.064407
963.477279	0.063488
963.652973	0.060709
963.828650	0.059612
964.004308	0.058567
964.179947	0.059551
964.355569	0.060594
964.531172	0.059010
964.706757	0.061398
964.882324	0.061102
965.057873	0.062188
965.233403	0.066489
965.408916	0.066579
965.584410	0.067086
965.759885	0.065925
965.935343	0.065650
966.110782	0.067896
966.286203	0.066857
966.461606	0.070364
966.636991	0.068630
966.812357	0.068146
966.987705	0.069741
967.163035	0.070882
967.338347	0.071072
967.513641	0.072651
967.688916	0.071733
967.864173	0.070971
968.039412	0.066623
968.214632	0.067558
968.389835	0.065950
968.565019	0.064856
968.740185	0.062107
968.915333	0.062255
969.090462	0.059351
969.265573	0.058578
969.440667	0.058887
969.615741	0.059611
969.790798	0.059809
969.965836	0.059808
970.140856	0.060598
970.315858	0.061989
970.490842	0.061872
970.665808	0.062485
970.840755	0.062328
971.015684	0.062809
971.190595	0.063953
971.365487	0.061805
971.540362	0.059793
971.715218	0.060443
971.890056	0.060565
972.064875	0.060472
972.239677	0.060148
972.414460	0.061736
972.589225	0.061646
972.763972	0.061327
972.938700	0.063195
973.113411	0.066346
973.288103	0.065433
973.462777	0.062716
973.637432	0.062102
973.812070	0.063059
973.986689	0.060487
974.161290	0.059530
974.335873	0.057678
974.510437	0.056732
974.684984	0.053907
974.859512	0.054595
975.034022	0.057937
975.208513	0.057371
975.382987	0.057521
975.557442	0.058541
975.731879	0.060216
975.906298	0.061558
976.080698	0.062576
976.255080	0.063946
976.429445	0.061273
976.603790	0.061145
976.778118	0.061647
976.952427	0.061894
977.126719	0.061800
977.300992	0.061063
977.475246	0.061066
977.649483	0.061015
977.823701	0.060181
977.997901	0.062512
978.172083	0.061256
978.346247	0.059187
978.520392	0.058926
978.694519	0.059282
978.868628	0.058774
979.042719	0.057867
979.216791	0.056915
979.390845	0.057430
979.564882	0.056281
979.738899	0.055529
979.912899	0.057429
980.086880	0.057577
980.260843	0.059677
980.434788	0.060228
980.608715	0.059814
980.782623	0.058193
980.956514	0.058027
981.130386	0.058836
981.304240	0.060206
981.478075	0.059374
981.651892	0.059378
981.825692	0.058549
981.999472	0.058517
982.173235	0.060304
982.346980	0.062649
982.520706	0.062516
982.694414	0.061979
982.868104	0.060873
983.041775	0.062315
983.215428	0.061955
983.389064	0.059709
983.562680	0.059556
983.736279	0.059218
983.909860	0.058493
984.083422	0.057612
984.256966	0.055173
984.430491	0.054287
984.603999	0.054578
984.777488	0.053899
984.950959	0.054010
985.124412	0.053004
985.297847	0.053253
985.471263	0.053061
985.644661	0.053305
985.818041	0.054869
985.991403	0.056559
986.164747	0.055530
986.338072	0.057134
986.511379	0.058891
986.684668	0.060093
986.857938	0.060602
987.031191	0.060090
987.204425	0.062134
987.377641	0.062223
987.550839	0.063002
987.724018	0.062763
987.897179	0.062381
988.070322	0.063132
988.243447	0.062751
988.416554	0.062974
988.589642	0.062748
988.762712	0.061272
988.935764	0.061625
989.108798	0.059703
989.281813	0.060901
989.454811	0.060190
989.627790	0.058283
989.800751	0.057527
989.973693	0.057017
990.146617	0.057953
990.319524	0.057001
990.492412	0.057317
990.665281	0.060349
990.838133	0.060294
991.010966	0.060762
991.183781	0.060567
991.356578	0.060265
991.529356	0.059316
991.702117	0.059856
991.874859	0.061177
992.047583	0.060052
992.220288	0.058380
992.392976	0.057807
992.565645	0.056981
992.738296	0.058732
992.910929	0.059075
993.083543	0.058812
993.256139	0.058245
993.428718	0.058865
993.601277	0.058759
993.773819	0.056972
993.946342	0.056894
994.118848	0.057225
994.291335	0.056021
994.463803	0.058193
994.636254	0.059358
994.808686	0.057919
994.981100	0.057509
995.153496	0.056486
995.325874	0.057657
995.498233	0.056759
995.670574	0.058372
995.842897	0.057401
996.015202	0.055121
996.187488	0.053823
996.359757	0.055459
996.532007	0.054235
996.704239	0.055533
996.876452	0.055628
997.048648	0.054499
997.220825	0.051551
997.392984	0.053008
997.565124	0.053486
997.737247	0.053305
997.909351	0.052849
998.081437	0.053846
998.253505	0.055208
998.425554	0.056524
998.597586	0.058553
998.769599	0.061466
998.941594	0.062646
999.113571	0.062833
999.285529	0.062728
999.457469	0.064214
999.629391	0.063439
999.801295	0.062745
999.973181	0.059426
1000.145048	0.056961
1000.316897	0.054688
1000.488728	0.052914
1000.660541	0.053524
1000.832335	0.054255
1001.004111	0.052115
1001.175869	0.051942
1001.347609	0.049849
1001.519331	0.051174
1001.691034	0.052639
1001.862719	0.052084
1002.034386	0.050802
1002.206035	0.049646
1002.377665	0.050351
1002.549277	0.051983
1002.720871	0.051501
1002.892447	0.054099
1003.064004	0.055516
1003.235544	0.056667
1003.407065	0.057845
1003.578568	0.058889
1003.750052	0.059355
1003.921519	0.058045
1004.092967	0.056961
1004.264397	0.057116
1004.435809	0.056050
1004.607202	0.053882
1004.778577	0.052456
1004.949934	0.052826
1005.121273	0.051396
1005.292594	0.050215
1005.463896	0.048450
1005.635180	0.047676
1005.806446	0.048728
1005.977694	0.050815
1006.148923	0.052008
1006.320135	0.052781
1006.491328	0.052761
1006.662503	0.054267
1006.833659	0.056334
1007.004798	0.058979
1007.175918	0.060291
1007.347020	0.060109
1007.518103	0.058736
1007.689169	0.057891
1007.860216	0.056945
1008.031245	0.057289
1008.202256	0.056762
1008.373248	0.054945
1008.544223	0.054045
1008.715179	0.052611
1008.886117	0.052356
1009.057036	0.051060
1009.227938	0.051047
1009.398821	0.051929
1009.569686	0.051198
1009.740533	0.051273
1009.911361	0.051496
1010.082172	0.052178
1010.252964	0.054425
1010.423738	0.054988
1010.594493	0.054977
1010.765231	0.056208
1010.935950	0.056231
1011.106651	0.057516
1011.277334	0.056844
1011.447998	0.055830
1011.618645	0.057317
1011.789273	0.056764
1011.959882	0.056516
1012.130474	0.054901
1012.301048	0.054882
1012.471603	0.055794
1012.642140	0.054590
1012.812658	0.055495
1012.983159	0.056883
1013.153641	0.054683
1013.324105	0.053392
1013.494551	0.051475
1013.664979	0.054172
1013.835388	0.053393
1014.005779	0.052144
1014.176152	0.051373
1014.346507	0.049428
1014.516843	0.049905
1014.687162	0.049521
1014.857462	0.050133
1015.027744	0.052156
1015.198007	0.051963
1015.368252	0.050722
1015.538480	0.051066
1015.708689	0.051928
1015.878879	0.053839
1016.049052	0.052791
1016.219206	0.053764
1016.389342	0.052279
1016.559460	0.052556
1016.729559	0.051311
1016.899641	0.050048
1017.069704	0.048815
1017.239749	0.048469
1017.409775	0.047006
1017.579784	0.047533
1017.749774	0.047140
1017.919746	0.048051
1018.089700	0.048294
1018.259635	0.049384
1018.429553	0.051193
1018.599452	0.052550
1018.769333	0.051796
1018.939195	0.053718
1019.109040	0.053778
1019.278866	0.053461
1019.448674	0.054498
1019.618464	0.054639
1019.788235	0.053395
1019.957989	0.055093
1020.127724	0.054507
1020.297441	0.053181
1020.467139	0.051527
1020.636820	0.050982
1020.806482	0.051844
1020.976126	0.051168
1021.145752	0.049016
1021.315359	0.048433
1021.484948	0.047413
1021.654519	0.047055
1021.824072	0.048829
1021.993607	0.050770
1022.163123	0.050171
1022.332621	0.051412
1022.502101	0.052009
1022.671563	0.052860
1022.841007	0.054387
1023.010432	0.053682
1023.179839	0.054384
1023.349228	0.055207
1023.518598	0.055441
1023.687951	0.054196
1023.857285	0.052762
1024.026601	0.051731
1024.195899	0.051820
1024.365178	0.051189
1024.534439	0.052430
1024.703682	0.052487
1024.872907	0.049885
1025.042114	0.048408
1025.211302	0.051356
1025.380472	0.052313
1025.549624	0.052464
1025.718758	0.052811
1025.887873	0.052792
1026.056970	0.051916
1026.226049	0.051799
1026.395110	0.053954
1026.564153	0.054861
1026.733177	0.053280
1026.902183	0.052085
1027.071171	0.051479
1027.240141	0.050531
1027.409092	0.050301
1027.578026	0.049888
1027.746940	0.050179
1027.915837	0.049225
1028.084716	0.049132
1028.253576	0.049385
1028.422418	0.048767
1028.591242	0.049757
1028.760048	0.048868
1028.928835	0.048154
1029.097604	0.047632
1029.266355	0.047216
1029.435088	0.046863
1029.603803	0.045683
1029.772499	0.044165
1029.941177	0.043668
1030.109837	0.043910
1030.278478	0.047026
1030.447102	0.048388
1030.615707	0.048920
1030.784294	0.047678
1030.952863	0.048071
1031.121413	0.050141
1031.289945	0.051473
1031.458460	0.050845
1031.626955	0.049893
1031.795433	0.048901
1031.963892	0.047088
1032.132334	0.047400
1032.300756	0.049266
1032.469161	0.048587
1032.637548	0.049386
1032.805916	0.049615
1032.974266	0.051055
1033.142598	0.051908
1033.310911	0.049836
1033.479207	0.049385
1033.647484	0.049839
1033.815743	0.048493
1033.983983	0.048977
1034.152206	0.045565
1034.320410	0.045146
1034.488596	0.045267
1034.656764	0.043689
1034.824914	0.044582
1034.993045	0.045980
1035.161158	0.044866
1035.329253	0.046389
1035.497330	0.046804
1035.665388	0.048101
1035.833428	0.048990
1036.001450	0.048070
1036.169454	0.048701
1036.337440	0.048521
1036.505407	0.050854
1036.673356	0.051413
1036.841287	0.049775
1037.009200	0.050816
1037.177094	0.049705
1037.344970	0.048974
1037.512828	0.050325
1037.680668	0.050866
1037.848489	0.051498
1038.016293	0.049430
1038.184078	0.050091
1038.351845	0.048933
1038.519593	0.048019
1038.687324	0.049644
1038.855036	0.049582
1039.022730	0.048260
1039.190406	0.048706
1039.358063	0.047446
1039.525702	0.047437
1039.693323	0.045055
1039.860926	0.046011
1040.028511	0.046364
1040.196077	0.045097
1040.363625	0.045638
1040.531155	0.045538
1040.698667	0.044374
1040.866161	0.044282
1041.033636	0.043956
1041.201093	0.045711
1041.368532	0.048175
1041.535952	0.047681
1041.703355	0.047868
1041.870739	0.047962
1042.038105	0.047858
1042.205452	0.047541
1042.372782	0.048984
1042.540093	0.048816
1042.707386	0.050098
1042.874661	0.046276
1043.041918	0.046040
1043.209156	0.045750
1043.376376	0.042544
1043.543578	0.043885
1043.710762	0.045789
1043.877927	0.044714
1044.045074	0.043400
1044.212203	0.041504
1044.379314	0.041824
1044.546407	0.042883
1044.713481	0.043433
1044.880537	0.045610
1045.047575	0.043665
1045.214595	0.042394
1045.381596	0.042748
1045.548579	0.044091
1045.715544	0.043262
1045.882491	0.044696
1046.049420	0.044391
1046.216330	0.044389
1046.383222	0.045503
1046.550096	0.047488
1046.716951	0.046947
1046.883789	0.047179
1047.050608	0.048456
1047.217409	0.049250
1047.384192	0.048962
1047.550956	0.048426
1047.717703	0.047397
1047.884431	0.046182
1048.051140	0.044826
1048.217832	0.043729
1048.384505	0.043972
1048.551161	0.042728
1048.717798	0.042488
1048.884416	0.042109
1049.051017	0.041157
1049.217599	0.042632
1049.384163	0.044029
1049.550709	0.045879
1049.717237	0.047288
1049.883746	0.046875
1050.050237	0.048402
1050.216710	0.049366
1050.383165	0.049742
1050.549601	0.051852
1050.716019	0.051165
1050.882420	0.048355
1051.048801	0.047414
1051.215165	0.049570
1051.381510	0.049600
1051.547837	0.048073
1051.714146	0.048717
1051.880437	0.049220
1052.046709	0.048860
1052.212964	0.048016
1052.379200	0.049437
1052.545417	0.048846
1052.711617	0.048142
1052.877798	0.048404
1053.043961	0.047522
1053.210106	0.048265
1053.376233	0.049179
1053.542341	0.048155
1053.708432	0.048498
1053.874504	0.049702
1054.040557	0.050164
1054.206593	0.049192
1054.372610	0.048278
1054.538609	0.049834
1054.704590	0.048155
1054.870553	0.047905
1055.036497	0.049099
1055.202424	0.050728
1055.368331	0.050859
1055.534221	0.050698
1055.700093	0.049156
1055.865946	0.051290
1056.031781	0.051111
1056.197598	0.050472
1056.363397	0.050587
1056.529177	0.051309
1056.694939	0.050904
1056.860683	0.048497
1057.026409	0.049078
1057.192116	0.050155
1057.357806	0.048314
1057.523477	0.049629
1057.689130	0.050699
1057.854764	0.050075
1058.020381	0.046893
1058.185979	0.046711
1058.351559	0.048221
1058.517120	0.047300
1058.682664	0.049064
1058.848189	0.047992
1059.013696	0.046835
1059.179185	0.046217
1059.344656	0.045062
1059.510108	0.047329
1059.675542	0.047108
1059.840958	0.046818
1060.006356	0.045793
1060.171735	0.043847
1060.337096	0.046114
1060.502439	0.047013
1060.667764	0.046336
1060.833071	0.045683
1060.998359	0.045197
1061.163629	0.045617
1061.328881	0.047351
1061.494115	0.048748
1061.659330	0.047976
1061.824527	0.046848
1061.989706	0.045353
1062.154867	0.046379
1062.320010	0.048100
1062.485134	0.050290
1062.650240	0.049203
1062.815328	0.048390
1062.980398	0.049346
1063.145449	0.051214
1063.310482	0.051673
1063.475497	0.052621
1063.640494	0.052075
1063.805473	0.052978
1063.970433	0.050825
1064.135375	0.051990
1064.300299	0.051788
1064.465204	0.050705
1064.630092	0.051679
1064.794961	0.051818
1064.959812	0.054230
1065.124645	0.054902
1065.289459	0.055486
1065.454256	0.057720
1065.619034	0.057516
1065.783793	0.058015
1065.948535	0.059754
1066.113258	0.059049
1066.277964	0.059805
1066.442651	0.058750
1066.607319	0.060014
1066.771970	0.058479
1066.936602	0.057463
1067.101216	0.056744
1067.265812	0.057067
1067.430389	0.057098
1067.594949	0.056981
1067.759490	0.057040
1067.924013	0.052963
1068.088518	0.052498
1068.253004	0.054519
1068.417472	0.054023
1068.581922	0.055336
1068.746354	0.055029
1068.910768	0.054313
1069.075163	0.052503
1069.239540	0.053277
1069.403899	0.055741
1069.568240	0.053401
1069.732562	0.050397
1069.896866	0.050916
1070.061152	0.049971
1070.225420	0.052197
1070.389670	0.051819
1070.553901	0.054232
1070.718114	0.053411
1070.882309	0.054391
1071.046486	0.056381
1071.210644	0.058477
1071.374784	0.056479
1071.538906	0.058175
1071.703010	0.054324
1071.867096	0.055077
1072.031163	0.054146
1072.195212	0.054321
1072.359243	0.053547
1072.523256	0.053390
1072.687250	0.050775
1072.851226	0.052015
1073.015184	0.050005
1073.179124	0.051446
1073.343045	0.049792
1073.506949	0.050539
1073.670834	0.049468
1073.834701	0.049349
1073.998549	0.049962
1074.162380	0.052160
1074.326192	0.052016
1074.489986	0.053494
1074.653761	0.053552
1074.817519	0.055893
1074.981258	0.055241
1075.144979	0.055682
1075.308682	0.054539
1075.472367	0.053665
1075.636033	0.053478
1075.799681	0.053738
1075.963311	0.052483
1076.126923	0.051999
1076.290516	0.050151
1076.454092	0.050333
1076.617649	0.052417
1076.781187	0.053390
1076.944708	0.053015
1077.108210	0.052429
1077.271695	0.051928
1077.435160	0.051750
1077.598608	0.053500
1077.762038	0.053648
1077.925449	0.053495
1078.088842	0.052410
1078.252217	0.054928
1078.415573	0.056067
1078.578912	0.058949
1078.742232	0.060156
1078.905534	0.062977
1079.068817	0.058848
1079.232083	0.060478
1079.395330	0.061847
1079.558559	0.060629
1079.721770	0.057118
1079.884962	0.057154
1080.048136	0.055919
1080.211293	0.054297
1080.374430	0.051971
1080.537550	0.055751
1080.700651	0.056378
1080.863735	0.054684
1081.026800	0.054337
1081.189846	0.056047
1081.352875	0.056867
1081.515885	0.056065
1081.678877	0.056147
1081.841851	0.057852
1082.004807	0.056904
1082.167744	0.055420
1082.330663	0.057729
1082.493564	0.060457
1082.656447	0.058771
1082.819312	0.057802
1082.982158	0.057466
1083.144986	0.057956
1083.307796	0.053660
1083.470587	0.054895
1083.633361	0.057673
1083.796116	0.056005
1083.958853	0.055081
1084.121571	0.057225
1084.284272	0.056660
1084.446954	0.057121
1084.609618	0.058623
1084.772264	0.062733
1084.934892	0.062236
1085.097501	0.058741
1085.260092	0.058285
1085.422665	0.057149
1085.585220	0.056796
1085.747756	0.059004
1085.910274	0.058226
1086.072774	0.056679
1086.235256	0.055567
1086.397720	0.055276
1086.560165	0.057141
1086.722592	0.058385
1086.885001	0.059117
1087.047392	0.060713
1087.209764	0.060497
1087.372119	0.060573
1087.534455	0.059766
1087.696772	0.060454
1087.859072	0.062098
1088.021353	0.060510
1088.183616	0.061570
1088.345861	0.063895
1088.508088	0.065003
1088.670296	0.062158
1088.832486	0.061914
1088.994658	0.062576
1089.156812	0.061623
1089.318948	0.059575
1089.481065	0.060300
1089.643164	0.059987
1089.805245	0.057921
1089.967308	0.056191
1090.129352	0.056843
1090.291378	0.058940
1090.453386	0.059249
1090.615376	0.059084
1090.777347	0.059500
1090.939301	0.057404
1091.101236	0.057363
1091.263153	0.054908
1091.425051	0.053556
1091.586932	0.054281
1091.748794	0.053377
1091.910638	0.051810
1092.072463	0.054799
1092.234271	0.054792
1092.396060	0.060214
1092.557831	0.058596
1092.719584	0.061277
1092.881319	0.062184
1093.043035	0.063933
1093.204733	0.065276
1093.366413	0.066604
1093.528075	0.066169
1093.689718	0.067258
1093.851343	0.063189
1094.012950	0.063945
1094.174539	0.064662
1094.336110	0.066014
1094.497662	0.066720
1094.659196	0.066665
1094.820712	0.068896
1094.982210	0.070219
1095.143689	0.071971
1095.305151	0.072066
1095.466594	0.073924
1095.628018	0.074957
1095.789425	0.072654
1095.950813	0.071112
1096.112183	0.071651
1096.273535	0.072034
1096.434869	0.067089
1096.596184	0.067617
1096.757482	0.068015
1096.918761	0.064110
1097.080021	0.062513
1097.241264	0.061245
1097.402488	0.059708
1097.563694	0.057840
1097.724882	0.057272
1097.886052	0.055932
1098.047203	0.053630
1098.208336	0.053026
1098.369451	0.054404
1098.530548	0.055953
1098.691627	0.059145
1098.852687	0.060601
1099.013729	0.059068
1099.174753	0.058303
1099.335758	0.061915
1099.496746	0.062273
1099.657715	0.064901
1099.818666	0.067087
1099.979599	0.068424
1100.140513	0.069596
1100.301409	0.068410
1100.462287	0.071384
1100.623147	0.069751
1100.783989	0.070075
1100.944812	0.070980
1101.105617	0.069073
1101.266404	0.068706
1101.427173	0.063106
1101.587923	0.061069
1101.748656	0.062172
1101.909370	0.062859
1102.070066	0.065101
1102.230743	0.065428
1102.391403	0.064323
1102.552044	0.066138
1102.712667	0.064107
1102.873271	0.068061
1103.033858	0.066826
1103.194426	0.068014
1103.354976	0.064552
1103.515508	0.062932
1103.676021	0.062977
1103.836517	0.061719
1103.996994	0.059127
1104.157453	0.062826
1104.317893	0.060186
1104.478316	0.062156
1104.638720	0.062466
1104.799106	0.066337
1104.959474	0.070854
1105.119823	0.068852
1105.280155	0.069473
1105.440468	0.073836
1105.600763	0.070858
1105.761039	0.071989
1105.921298	0.069836
1106.081538	0.068325
1106.241760	0.065584
1106.401964	0.062278
1106.562149	0.064431
1106.722316	0.060045
1106.882465	0.059278
1107.042596	0.059921
1107.202709	0.063238
1107.362803	0.064837
1107.522879	0.068830
1107.682937	0.071845
1107.842977	0.073673
1108.002999	0.073345
1108.163002	0.077167
1108.322987	0.070286
1108.482954	0.070617
1108.642902	0.067521
1108.802833	0.065420
1108.962745	0.060687
1109.122639	0.058670
1109.282515	0.056077
1109.442372	0.059680
1109.602211	0.058990
1109.762032	0.062656
1109.921835	0.063515
1110.081620	0.063899
1110.241386	0.064732
1110.401134	0.064090
1110.560864	0.063135
1110.720576	0.065737
1110.880269	0.060220
1111.039945	0.062079
1111.199602	0.062745
1111.359240	0.064025
1111.518861	0.065090
1111.678463	0.066883
1111.838047	0.068223
1111.997613	0.068487
1112.157161	0.064345
1112.316690	0.067594
1112.476202	0.068675
1112.635695	0.070555
1112.795169	0.067120
1112.954626	0.064854
1113.114064	0.064321
1113.273484	0.068917
1113.432886	0.067536
1113.592270	0.072687
1113.751635	0.071886
1113.910983	0.069800
1114.070312	0.068831
1114.229622	0.067913
1114.388915	0.067169
1114.548189	0.065287
1114.707445	0.058342
1114.866683	0.059308
1115.025903	0.057164
1115.185104	0.058904
1115.344287	0.057271
1115.503452	0.056115
1115.662599	0.060837
1115.821727	0.065124
1115.980838	0.067813
1116.139930	0.075505
1116.299004	0.077439
1116.458059	0.075273
1116.617097	0.075023
1116.776116	0.078392
1116.935117	0.079898
1117.094099	0.076509
1117.253064	0.075237
1117.412010	0.075450
1117.570938	0.074783
1117.729848	0.073067
1117.888740	0.075159
1118.047613	0.067528
1118.206468	0.065508
1118.365305	0.063736
1118.524124	0.064490
1118.682924	0.061551
1118.841707	0.059229
1119.000471	0.054036
1119.159216	0.060908
1119.317944	0.059570
1119.476653	0.068305
1119.635344	0.067410
1119.794017	0.069758
1119.952672	0.070996
1120.111308	0.074393
1120.269927	0.076406
1120.428527	0.081754
1120.587108	0.073920
1120.745672	0.076940
1120.904217	0.075793
1121.062744	0.081237
1121.221253	0.079639
1121.379744	0.077257
1121.538216	0.081754
1121.696671	0.082672
1121.855107	0.083598
1122.013524	0.084687
1122.171924	0.083316
1122.330305	0.081893
1122.488668	0.078671
1122.647013	0.080871
1122.805340	0.083568
1122.963648	0.078354
1123.121938	0.078124
1123.280210	0.073224
1123.438464	0.073416
1123.596700	0.070746
1123.754917	0.073673
1123.913116	0.072604
1124.071297	0.072831
1124.229459	0.071813
1124.387604	0.072235
1124.545730	0.076275
1124.703838	0.080280
1124.861928	0.079972
1125.019999	0.089515
1125.178052	0.088722
1125.336088	0.090290
1125.494104	0.087364
1125.652103	0.086892
1125.810083	0.083510
1125.968045	0.075880
1126.125989	0.075803
1126.283915	0.077856
1126.441823	0.071730
1126.599712	0.070452
1126.757583	0.071152
1126.915436	0.075379
1127.073270	0.076868
1127.231087	0.082177
1127.388885	0.080753
1127.546665	0.081261
1127.704426	0.077565
1127.862170	0.076920
1128.019895	0.078066
1128.177602	0.079608
1128.335291	0.076294
1128.492961	0.072764
1128.650614	0.070726
1128.808248	0.076660
1128.965864	0.070278
1129.123461	0.069512
1129.281041	0.074242
1129.438602	0.072745
1129.596145	0.074192
1129.753670	0.075686
1129.911176	0.083239
1130.068665	0.085102
1130.226135	0.085907
1130.383587	0.089790
1130.541020	0.098271
1130.698436	0.093455
1130.855833	0.091805
1131.013212	0.092277
1131.170573	0.092303
1131.327915	0.086834
1131.485239	0.087278
1131.642545	0.087758
1131.799833	0.084701
1131.957103	0.082893
1132.114354	0.082701
1132.271588	0.087094
1132.428803	0.081903
1132.585999	0.077757
1132.743178	0.080433
1132.900338	0.077116
1133.057480	0.074763
1133.214604	0.081700
1133.371710	0.083473
1133.528797	0.085570
1133.685866	0.080159
1133.842917	0.082542
1133.999950	0.087786
1134.156964	0.088557
1134.313960	0.088116
1134.470938	0.088371
1134.627898	0.083225
1134.784840	0.084223
1134.941763	0.080979
1135.098668	0.085188
1135.255555	0.085757
1135.412424	0.081882
1135.569274	0.077963
1135.726107	0.079623
1135.882921	0.079142
1136.039716	0.080585
1136.196494	0.079956
1136.353253	0.081943
1136.509995	0.079195
1136.666717	0.077475
1136.823422	0.080234
1136.980109	0.080184
1137.136777	0.079443
1137.293427	0.077093
1137.450059	0.075794
1137.606672	0.073727
1137.763267	0.076544
1137.919844	0.078101
1138.076403	0.079079
1138.232944	0.074982
1138.389466	0.076094
1138.545971	0.073986
1138.702457	0.085337
1138.858924	0.093124
1139.015374	0.089623
1139.171805	0.086527
1139.328218	0.088773
1139.484613	0.086688
1139.640990	0.090604
1139.797348	0.088577
1139.953688	0.092406
1140.110010	0.081024
1140.266314	0.073305
1140.422600	0.075537
1140.578867	0.077743
1140.735116	0.071617
1140.891347	0.073923
1141.047559	0.070253
1141.203754	0.074305
1141.359930	0.069080
1141.516088	0.072436
1141.672228	0.071877
1141.828349	0.079745
1141.984452	0.074925
1142.140537	0.078299
1142.296604	0.075067
1142.452653	0.080443
1142.608683	0.081259
1142.764695	0.087063
1142.920689	0.091079
1143.076665	0.095674
1143.232622	0.088833
1143.388562	0.095114
1143.544483	0.092241
1143.700385	0.101845
1143.856270	0.103617
1144.012136	0.109070
1144.167985	0.108119
1144.323814	0.098987
1144.479626	0.094202
1144.635420	0.096453
1144.791195	0.099670
1144.946952	0.101608
1145.102691	0.098496
1145.258411	0.096581
1145.414113	0.088001
1145.569798	0.086800
1145.725463	0.092051
1145.881111	0.096342
1146.036741	0.089154
1146.192352	0.080194
1146.347945	0.076840
1146.503519	0.072390
1146.659076	0.069690
1146.814614	0.067053
1146.970134	0.063291
1147.125636	0.058717
1147.281120	0.053105
1147.436585	0.049282
1147.592032	0.049282
1147.747461	0.050942
1147.902872	0.055101
1148.058265	0.057653
1148.213639	0.060363
1148.368995	0.064837
1148.524333	0.070214
1148.679653	0.076286
1148.834954	0.078311
1148.990237	0.087645
1149.145502	0.094114
1149.300749	0.093614
1149.455977	0.095943
1149.611188	0.094033
1149.766380	0.098956
1149.921553	0.100004
1150.076709	0.099491
1150.231846	0.110815
1150.386966	0.098694
1150.542066	0.102981
1150.697149	0.098593
1150.852214	0.094822
1151.007260	0.096523
1151.162288	0.088758
1151.317298	0.088580
1151.472289	0.084443
1151.627263	0.071907
1151.782218	0.074287
1151.937155	0.072695
1152.092073	0.072354
1152.246974	0.075914
1152.401856	0.077017
1152.556720	0.076406
1152.711566	0.077040
1152.866393	0.079617
1153.021203	0.091494
1153.175994	0.092028
1153.330767	0.091981
1153.485521	0.090745
1153.640258	0.095792
1153.794976	0.099846
1153.949676	0.106386
1154.104358	0.105351
1154.259021	0.106201
1154.413667	0.100212
1154.568294	0.099174
1154.722903	0.091799
1154.877493	0.092347
1155.032066	0.086899
1155.186620	0.084217
1155.341156	0.082553
1155.495674	0.080988
1155.650173	0.084734
1155.804654	0.084166
1155.959118	0.090092
1156.113562	0.090414
1156.267989	0.089086
1156.422397	0.087491
1156.576788	0.086312
1156.731160	0.091194
1156.885513	0.093364
1157.039849	0.081884
1157.194166	0.085776
1157.348465	0.087106
1157.502746	0.093160
1157.657009	0.106350
1157.811253	0.103885
1157.965479	0.099004
1158.119687	0.094256
1158.273877	0.084640
1158.428048	0.090724
1158.582201	0.086084
1158.736337	0.079710
1158.890453	0.080005
1159.044552	0.080013
1159.198632	0.083220
1159.352694	0.089542
1159.506738	0.089651
1159.660764	0.098259
1159.814771	0.103765
1159.968761	0.113637
1160.122732	0.116970
1160.276685	0.114053
1160.430619	0.104589
1160.584535	0.104848
1160.738434	0.097846
1160.892313	0.097520
1161.046175	0.094720
1161.200019	0.087792
1161.353844	0.080312
1161.507651	0.083659
1161.661440	0.083227
1161.815210	0.080877
1161.968962	0.079986
1162.122697	0.079293
1162.276412	0.083638
1162.430110	0.087416
1162.583789	0.086458
1162.737451	0.087285
1162.891094	0.084918
1163.044718	0.084959
1163.198325	0.096890
1163.351913	0.089399
1163.505483	0.099691
1163.659035	0.080243
1163.812569	0.077735
1163.966084	0.084608
1164.119581	0.091247
1164.273060	0.088264
1164.426521	0.092955
1164.579964	0.083759
1164.733388	0.086105
1164.886794	0.087368
1165.040182	0.098761
1165.193551	0.098071
1165.346903	0.098438
1165.500236	0.089917
1165.653551	0.091264
1165.806848	0.090407
1165.960126	0.092280
1166.113386	0.094903
1166.266628	0.088323
1166.419852	0.090978
1166.573058	0.098275
1166.726245	0.099078
1166.879414	0.101316
1167.032565	0.100527
1167.185698	0.098410
1167.338812	0.090095
1167.491909	0.094807
1167.644987	0.098132
1167.798046	0.091244
1167.951088	0.083439
1168.104111	0.079907
1168.257117	0.080495
1168.410103	0.086956
1168.563072	0.084357
1168.716023	0.089844
1168.868955	0.086980
1169.021869	0.088801
1169.174765	0.092925
1169.327642	0.091664
1169.480501	0.087740
1169.633343	0.079468
1169.786165	0.079683
1169.938970	0.080319
1170.091757	0.075012
1170.244525	0.078588
1170.397275	0.069377
1170.550007	0.060672
1170.702720	0.069380
1170.855415	0.078574
1171.008092	0.090372
1171.160751	0.088405
1171.313392	0.089950
1171.466014	0.158196
1171.618619	0.126724
1171.771205	0.126724
1171.923772	0.126724
