sample name	sample
index	161
start time	 02-15-2021  03:09:36 PM
880	0.385664
Peak Time (s)	91.537
Peak Height 	0.3857
calc peak height	90,93
Baseline Time (s)	10.037
Baseline Value 	-0.004213
subtract baseline	10,4
Abs	0.336904
Peak Time (s)	90.035
Peak Height 	0.3369
calc peak height	90,93
Baseline Time (s)	11.037
Baseline Value 	-0.005355
subtract baseline	10,3
PK_550	0.155264
Peak Time (s)	91.537
Peak Height 	0.1553
calc peak height	90,93
Baseline Time (s)	9.036
Baseline Value 	4.4477E-4
subtract baseline	10,2
PK_880	0.306618
Peak Time (s)	91.537
Peak Height 	0.3066
calc peak height	90,93
Baseline Time (s)	11.037
Baseline Value 	0.002877
subtract baseline	10,1


Time (s)	A880-A510	A880-A775	A880-A975	A880	I510	I775	I975	I880	
0.036500	0.001094	-0.000282	0.015564	0.001814	3946.723432	12620.634532	3205.492708	7509.466541
0.536500	-0.002081	-0.002564	0.004237	0.002783	3938.053335	12549.396142	3199.454686	7499.456340
1.036000	-0.008050	-0.001714	0.008045	0.003337	3924.575846	12555.854703	3201.035926	7493.744598
1.538500	-0.003541	-0.000828	0.019319	0.003621	3933.282307	12569.001330	3206.464856	7490.818957
2.034500	-0.002277	-0.001429	0.002220	0.001665	3939.975917	12598.714434	3199.019970	7511.007120
2.535000	0.001344	-0.001761	-0.001615	0.001057	3948.841819	12604.774939	3197.466754	7517.303087
3.035000	-0.001138	-0.001357	-0.005816	-0.001141	3948.242988	12662.067954	3196.507913	7540.126371
3.535000	-0.006442	-0.002383	0.014411	0.000314	3934.124326	12607.414424	3205.665518	7525.002584
4.035500	0.003214	-0.000708	0.010130	0.000457	3954.061575	12641.145220	3203.471571	7523.523068
4.536000	0.001288	-0.000405	0.021513	0.001230	3948.361272	12630.778025	3208.771123	7515.513590
5.042000	-0.000794	0.000167	0.030535	0.001258	3943.926716	12642.768627	3213.365857	7515.219129
5.536000	0.005294	0.000199	0.029350	0.002033	3955.129143	12626.399155	3212.356372	7507.206222
6.036500	0.000886	0.000073	0.025728	0.000950	3948.103360	12647.476137	3211.055149	7518.406352
6.534000	0.000733	-0.002475	0.010032	-0.000594	3951.034665	12625.356417	3203.942350	7534.432410
7.034500	-0.001032	-0.000386	0.002210	-0.000078	3946.230533	12660.054054	3199.858521	7529.073244
7.534000	0.001639	-0.002833	0.005385	-0.001943	3955.811474	12647.197193	3202.317612	7548.485989
8.035000	-0.001831	-0.001628	0.010863	-0.000405	3945.241277	12639.853933	3204.260237	7532.470279
8.535500	-0.000383	-0.000255	-0.004029	-0.000388	3948.249461	12669.799711	3197.002206	7532.296294
9.036000	-0.000483	0.000000	0.015032	0.000637	3945.882895	12652.776694	3205.814124	7521.651902
9.538500	-0.002609	-0.001511	0.024767	-0.000091	3942.952134	12635.520455	3211.096479	7529.206772
10.036500	0.003968	0.000136	-0.014939	0.000000	3956.630073	12669.861857	3191.665989	7528.263685
10.536500	0.006666	0.000821	-0.000300	0.001474	3959.234936	12652.436848	3197.897340	7512.984320
11.037000	0.000000	0.001753	0.000000	0.001560	3944.958364	12671.109950	3198.000192	7512.089602
11.537500	0.004230	-0.001248	0.013584	-0.000725	3958.729537	12655.299594	3205.771382	7535.801257
12.037500	0.006706	0.001127	0.017904	0.000702	3960.967444	12676.257594	3207.218888	7520.983059
12.535000	0.001309	0.001019	0.023868	0.001523	3947.787591	12655.727735	3209.816136	7512.479327
13.035000	0.001089	-0.000777	0.022169	-0.001127	3952.913915	12674.589711	3210.299843	7539.979156
13.535500	0.001975	-0.002788	0.030337	-0.001635	3955.869479	12641.411110	3214.761514	7545.273769
14.041500	0.003328	-0.001238	0.025843	0.001153	3952.828142	12614.150428	3211.010600	7516.304047
14.536000	-0.000915	-0.000541	0.010928	0.001144	3943.912683	12629.686270	3203.526501	7516.401870
15.039000	0.000306	0.001215	0.007521	0.001728	3945.247799	12655.505718	3201.565387	7510.351995
15.537000	-0.001034	-0.000035	-0.003783	0.001438	3943.047788	12634.336193	3196.247503	7513.355906
16.042500	-0.002286	-0.000288	-0.002226	0.003272	3936.611597	12588.477575	3196.115645	7494.415609
16.537500	0.001227	-0.000545	0.011426	-0.000779	3952.468943	12672.019807	3204.724338	7536.354771
17.037000	0.003857	-0.000616	0.000805	-0.000164	3956.742922	12656.866055	3199.220045	7529.968596
17.535000	0.001005	0.000003	0.022589	0.000605	3949.081746	12653.568558	3209.632741	7521.989348
18.035500	0.001213	-0.001297	0.021179	0.001181	3948.304996	12612.241558	3208.627095	7516.017590
18.536000	0.004641	0.000298	-0.002488	0.000475	3957.051379	12662.936997	3197.327082	7523.336687
19.036000	0.003448	0.002364	0.015388	0.001879	3951.548019	12677.576823	3205.372952	7508.794689
19.536000	-0.000691	0.000175	0.015534	0.001649	3943.323735	12634.325316	3205.560187	7511.174186
20.036500	0.008844	0.000610	0.006643	0.000646	3965.660654	12666.045216	3201.665313	7521.558593
20.537000	0.005865	0.001654	0.022209	0.002331	3955.708754	12651.891391	3208.566313	7504.120642
21.040000	0.004253	0.000606	0.018503	0.001876	3953.257057	12638.840510	3206.930678	7508.830907
21.535000	-0.001545	-0.000191	0.005811	0.000615	3943.702994	12649.067628	3201.274096	7521.887133
22.035000	0.003822	0.002258	0.012244	0.000963	3954.276847	12695.521966	3204.266779	7518.276374
22.535000	0.003412	0.000963	0.020962	0.000607	3954.163653	12674.721896	3208.807409	7521.965946
23.035500	-0.004161	0.000038	-0.012205	-0.000867	3941.330005	12686.870903	3193.351665	7537.277374
23.536000	0.005635	0.002713	0.004818	0.002351	3955.177267	12674.838956	3199.945227	7503.912814
24.036500	0.007151	0.002394	0.027606	0.002071	3958.996787	12673.981668	3211.442614	7506.810120
24.536500	0.003918	0.005237	0.016921	0.003076	3950.012305	12714.735745	3205.539978	7496.433747
25.036500	0.000587	-0.000966	-0.003891	-0.000712	3950.976561	12661.236869	3197.223403	7535.659609
25.537000	0.001584	0.001403	0.011511	0.000629	3950.251096	12683.992501	3204.069027	7521.741782
26.034500	0.001848	0.000173	0.026645	0.000067	3951.995264	12669.198095	3211.977411	7527.573183
26.535000	-0.002030	-0.000343	0.004812	-0.000813	3945.679233	12677.256588	3201.484086	7536.718597
27.035000	-0.000700	0.000127	0.005523	-0.000849	3948.551347	12688.432236	3201.848932	7537.084287
27.535500	0.007930	0.001379	0.026618	-0.001889	3969.146519	12739.362326	3212.968855	7547.924714
28.035500	-0.001789	0.002192	0.013441	0.006139	3931.698766	12580.019616	3202.305286	7464.971156
28.538500	0.004095	0.001134	0.013296	-0.000891	3958.795893	12711.713128	3205.710377	7537.525177
29.036000	0.000321	0.000887	0.001017	-0.000798	3950.595621	12704.154517	3199.629217	7536.552762
29.536500	-0.002344	0.000327	0.022939	-0.001271	3945.980279	12702.238451	3210.765441	7541.478255
30.037000	0.001690	0.000517	0.027865	0.003413	3944.616556	12603.041376	3210.888812	7492.958563
30.537500	0.006408	0.002675	0.025069	0.000638	3960.468517	12711.978029	3210.878519	7521.647449
31.035000	-0.002382	0.002441	0.019368	0.001600	3939.894047	12685.475812	3207.503415	7511.684746
31.535500	0.005551	0.002662	0.005995	0.002785	3954.080350	12664.136364	3200.306389	7499.437689
32.034000	0.007654	0.002149	0.001097	0.006024	3951.676530	12581.573515	3196.388002	7466.144961
32.538000	-0.002293	0.000594	0.004440	-0.001211	3945.961306	12706.820332	3201.496412	7540.854322
33.036500	-0.000474	0.002018	0.017276	0.000159	3946.905551	12708.012339	3207.176060	7526.608137
33.536000	0.006346	0.001033	0.027723	-0.001341	3964.567788	12719.472278	3213.256084	7542.214057
34.036500	0.001395	0.001400	-0.009220	0.004556	3941.604963	12597.346956	3192.208447	7481.198481
34.539500	-0.001543	0.002515	0.014976	0.001477	3941.901265	12689.827821	3205.367771	7512.953548
35.042000	0.005255	0.002523	0.017714	0.000594	3958.103977	12709.583725	3207.177489	7522.096886
35.537500	-0.003067	0.000554	-0.008381	0.000244	3941.292652	12673.701039	3194.630872	7525.726624
36.037000	0.000450	-0.001070	0.013813	0.000588	3947.946884	12630.272468	3205.231025	7522.157949
36.537500	0.001845	0.001128	0.021383	0.000606	3950.849828	12678.396208	3209.021015	7521.977975
37.035500	0.000373	0.003454	0.011107	0.001552	3945.758979	12708.978502	3203.413647	7512.177587
37.536000	0.004636	0.001249	0.011739	0.000188	3957.649864	12690.320507	3204.400357	7526.309979
38.041500	-0.000810	0.000145	0.024038	-0.000337	3947.243011	12677.503544	3210.849892	7531.762423
38.536000	0.005033	0.002294	0.031732	0.001041	3956.680025	12694.594072	3214.097046	7517.466273
39.036000	0.001944	0.001409	0.012033	0.001484	3949.207145	12665.204701	3203.904411	7512.883641
39.536500	0.005782	-0.000240	0.014019	-0.000565	3961.699084	12674.043119	3205.908645	7534.138613
40.037000	0.002607	0.002129	0.022703	0.000797	3952.056184	12696.329778	3209.593149	7519.996476
40.534500	0.001821	-0.000427	0.015150	-0.000815	3953.803811	12675.434657	3206.598745	7536.734629
41.037500	-0.001115	0.000549	0.025041	-0.000465	3946.871015	12689.302872	3211.427965	7533.095778
41.535500	0.001051	0.000603	0.003357	0.001146	3948.038042	12654.870209	3199.821787	7516.384724
42.035500	0.001137	0.002790	0.015682	0.001372	3947.742777	12698.248902	3205.771985	7514.038825
42.538500	0.004210	0.002206	0.004586	0.001198	3954.600769	12689.152743	3200.392716	7515.836174
43.036500	0.003890	0.001117	0.011298	0.000902	3954.551262	12671.611296	3203.828757	7518.908579
43.536000	0.005777	0.000520	0.023016	0.000640	3959.119172	12664.207483	3209.831921	7521.627507
44.036500	0.005778	0.002128	0.020377	0.001597	3957.081765	12678.588086	3208.012512	7511.709653
44.537000	0.003999	0.001613	0.000385	-0.001029	3958.886014	12725.430060	3199.435080	7538.961228
45.034500	0.000902	0.002632	0.005502	0.000612	3948.847649	12711.586620	3201.124284	7521.908549
45.538000	0.001103	0.003029	0.040416	0.001495	3947.413668	12700.825489	3218.399507	7512.771077
46.034500	-0.001779	0.000560	0.013518	0.004734	3934.626464	12575.023255	3203.033481	7479.370391
46.535500	-0.000603	0.001169	0.015886	-0.000173	3947.333725	12696.559998	3206.645773	7530.064280
47.035500	0.000931	0.000258	0.007396	-0.000974	3952.256882	12694.128084	3202.829790	7538.387680
47.536000	-0.003067	0.000343	0.005063	-0.000934	3943.757491	12695.123324	3201.665382	7537.972689
48.036000	0.000699	0.003686	0.011460	0.003727	3941.884714	12665.956611	3202.516861	7489.731633
48.536500	0.006966	0.000513	0.024782	0.001149	3960.568520	12652.814671	3210.471292	7516.351064
49.036500	0.005478	0.000615	0.034805	-0.001736	3963.552741	12718.951449	3217.146758	7546.326739
49.536000	0.004597	0.003943	0.021751	0.001712	3954.332877	12716.283950	3208.647683	7510.521948
50.037000	0.002631	0.002495	0.008058	0.004868	3943.540045	12614.546341	3200.296922	7477.998023
50.535000	0.003932	0.000603	-0.006308	-0.003239	3963.462027	12752.155521	3197.276146	7562.025158
51.035500	0.004182	-0.002125	0.003996	-0.009808	3978.170874	12838.174291	3205.519614	7631.260055
51.535500	-0.018226	-0.017343	0.035722	0.118650	3701.058827	10086.111020	3162.325067	6450.208666
52.041500	-0.024971	-0.020810	0.015859	0.171553	3615.440897	9231.771551	3135.616716	6056.663271
52.536000	-0.013146	-0.010986	0.018952	-0.080629	4101.947742	14336.481460	3252.758019	8448.245125
53.036500	-0.005488	-0.012164	0.016979	-0.090260	4145.323916	14557.946845	3257.446138	8569.990178
53.536500	-0.008868	-0.009617	0.021352	-0.063700	4071.285153	13939.888883	3244.086514	8240.673030
54.039500	0.000970	-0.007674	0.056307	-0.037464	4032.844982	13348.417422	3249.255258	7934.550873
54.534500	0.012360	-0.001219	0.037955	-0.027118	4035.248061	13256.697567	3232.625793	7818.819508
55.035000	0.033136	0.011844	0.076617	-0.023511	4075.628749	13481.009585	3253.089797	7779.124962
55.535500	0.063457	0.024436	0.099381	0.001457	4088.547181	13188.436988	3251.754095	7513.161223
56.035500	0.087760	0.034650	0.109263	0.045612	4041.424068	12427.604459	3231.830069	7078.672813
56.535500	0.118135	0.044630	0.136386	0.092375	4004.113770	11667.490313	3221.102035	6664.224723
57.035500	0.128021	0.058326	0.155361	0.105338	3997.261509	11681.998651	3224.334006	6557.017184
57.536500	0.155179	0.068831	0.180488	0.155386	3947.800931	10932.301267	3211.221124	6171.881731
58.036500	0.176931	0.080929	0.196341	0.203047	3894.876030	10313.960808	3195.540878	5844.157502
58.536500	0.199074	0.094698	0.232967	0.245851	3854.873959	9845.339167	3192.626259	5578.966989
59.034000	0.210204	0.104125	0.249114	0.278684	3814.854052	9489.723600	3184.958231	5392.543863
59.535000	0.226121	0.114513	0.249840	0.292718	3818.248561	9436.040170	3179.050551	5317.060917
60.034500	0.231968	0.121875	0.276688	0.304682	3807.278797	9368.907839	3185.669882	5254.609535
60.535000	0.236534	0.123264	0.277177	0.324788	3780.092834	9103.102341	3176.992524	5153.454850
61.035000	0.253800	0.129805	0.301137	0.350426	3765.846203	8843.463000	3176.268324	5031.081831
61.538500	0.260958	0.131093	0.272529	0.357375	3766.199622	8768.661828	3161.562170	4999.139696
62.035500	0.255759	0.136729	0.312896	0.360333	3752.572376	8803.927865	3177.067731	4985.697204
62.536500	0.274291	0.140714	0.299334	0.358290	3787.440316	8884.099706	3172.150377	4994.970549
63.039000	0.267132	0.142484	0.283674	0.349192	3790.812195	9031.489882	3169.406692	5036.807680
63.537000	0.265686	0.141041	0.279904	0.348144	3790.119934	9026.079314	3168.280601	5041.684682
64.045500	0.274842	0.141428	0.301136	0.346185	3809.723527	9058.355877	3178.103811	5050.832472
64.537500	0.279038	0.144638	0.289115	0.345495	3818.500494	9112.389371	3173.238752	5054.059762
65.035500	0.275509	0.144530	0.292366	0.342762	3817.064141	9149.036307	3175.792208	5066.909153
65.535500	0.279864	0.146130	0.288149	0.342315	3825.772035	9177.766348	3174.179485	5069.019431
66.036000	0.273500	0.143803	0.322751	0.342337	3814.212878	9144.809324	3189.510739	5068.914719
66.536000	0.274450	0.143743	0.290524	0.337988	3823.793078	9205.117594	3177.056009	5089.549096
67.036500	0.281825	0.148534	0.295047	0.341085	3831.612213	9229.111797	3177.674052	5074.835579
67.536500	0.282272	0.150229	0.329950	0.342735	3829.403457	9229.739341	3192.672616	5067.035403
68.037000	0.281730	0.150389	0.293791	0.345044	3824.199463	9199.326366	3175.424350	5056.174851
68.536500	0.284085	0.148708	0.283293	0.338254	3841.016963	9271.889808	3173.840942	5088.280447
69.034500	0.291459	0.152800	0.331506	0.342600	3846.666573	9268.268268	3193.466395	5067.675819
69.535000	0.284642	0.153292	0.320994	0.344461	3830.584468	9248.746466	3187.728598	5058.912278
70.035000	0.281654	0.148371	0.286934	0.342507	3828.691383	9206.655142	3173.580979	5068.112859
70.535500	0.283098	0.151361	0.298309	0.340669	3834.720153	9275.287721	3179.277153	5076.804446
71.038500	0.290038	0.150469	0.305489	0.341156	3846.707780	9255.597058	3182.228815	5074.496239
71.536500	0.293748	0.153602	0.309136	0.344267	3847.828660	9255.920498	3182.467656	5059.822851
72.038500	0.290971	0.151668	0.330973	0.344653	3841.923361	9222.954026	3192.253530	5058.011816
72.536500	0.288079	0.154181	0.328214	0.343605	3838.500245	9273.633113	3191.455172	5062.937065
73.039500	0.292519	0.153379	0.331118	0.344866	3844.411472	9244.222813	3192.222046	5057.011874
73.536500	0.296325	0.158970	0.315624	0.349255	3843.323548	9261.338884	3183.135964	5036.513761
74.035000	0.290694	0.155543	0.302416	0.351995	3827.871598	9174.009491	3176.143369	5023.825813
74.534500	0.291196	0.153443	0.316223	0.348061	3836.023103	9199.855929	3183.938831	5042.071971
75.035500	0.289029	0.151554	0.317726	0.349254	3829.841365	9156.492269	3184.077833	5036.521162
75.538000	0.293844	0.154597	0.311295	0.355014	3828.110982	9118.511106	3178.683313	5009.934580
76.036000	0.300616	0.154059	0.317264	0.355849	3839.041564	9099.409608	3180.936233	5006.108684
76.536000	0.294354	0.153947	0.313730	0.357757	3824.038193	9071.422249	3178.548666	4997.398629
77.036500	0.293871	0.151307	0.322472	0.357494	3823.637046	9038.649485	3182.516268	4998.596950
77.536500	0.292532	0.153674	0.316491	0.359537	3817.512128	9043.109692	3178.977152	4989.305916
78.040000	0.297513	0.156194	0.309474	0.364715	3817.155695	9006.653333	3173.721857	4965.949152
78.537500	0.296991	0.150210	0.299687	0.362382	3820.430438	8956.940866	3170.582289	4976.440371
79.035000	0.294180	0.152953	0.314667	0.366190	3808.531796	8942.504105	3175.308501	4959.346816
79.535000	0.297484	0.152150	0.331358	0.366205	3814.421728	8931.448776	3182.594040	4959.280155
80.035500	0.294084	0.151850	0.334330	0.365571	3809.465813	8935.960527	3184.206299	4962.113601
80.536000	0.298756	0.153776	0.331416	0.368651	3812.313815	8920.400113	3181.533465	4948.382667
81.036500	0.295514	0.154952	0.323542	0.371217	3801.974800	8901.690957	3176.964948	4937.016129
81.536000	0.297245	0.152308	0.316420	0.370178	3806.887433	8880.164008	3174.352965	4941.607667
82.041500	0.296666	0.152351	0.322288	0.372768	3801.267567	8846.170472	3175.755922	4930.173689
82.534000	0.297883	0.153552	0.300015	0.372828	3803.315301	8861.391718	3166.405144	4929.913101
83.040000	0.296515	0.153741	0.302911	0.373762	3799.247058	8851.453597	3167.207185	4925.805742
83.534500	0.298241	0.152317	0.311150	0.373978	3801.913632	8829.661839	3170.526688	4924.859134
84.035000	0.297897	0.150159	0.322714	0.373795	3801.627607	8803.505145	3175.498059	4925.659520
84.535500	0.301047	0.153022	0.329734	0.375620	3803.974706	8817.240424	3177.740015	4917.665532
85.038000	0.302056	0.153154	0.324892	0.376499	3804.204752	8807.345260	3175.272438	4913.823665
85.535500	0.295210	0.153181	0.328405	0.378642	3788.424977	8779.453721	3175.860650	4904.497016
86.036000	0.290229	0.150778	0.312966	0.377337	3782.066307	8765.031315	3169.883255	4910.171876
86.536000	0.303401	0.151992	0.325928	0.378249	3803.487094	8769.007039	3174.967324	4906.205746
87.036500	0.301914	0.156057	0.306951	0.381005	3796.004530	8786.208347	3165.899352	4894.263796
87.536500	0.295220	0.149667	0.308590	0.375766	3793.455646	8771.064976	3168.719896	4917.026017
88.037000	0.295382	0.151668	0.298767	0.378356	3789.221441	8763.340873	3163.661372	4905.738865
88.535000	0.298667	0.153423	0.320233	0.380986	3790.361146	8751.878938	3171.395071	4894.347482
89.035000	0.293577	0.152580	0.318940	0.378627	3785.618330	8771.756937	3171.842716	4904.561539
89.535000	0.299840	0.154413	0.323185	0.381789	3791.005481	8754.330426	3172.298467	4890.880959
90.035000	0.299032	0.151256	0.336904	0.378056	3796.121331	8761.864080	3179.806614	4907.041837
90.536000	0.304481	0.151481	0.335070	0.379986	3802.323278	8739.553782	3178.161288	4898.667991
91.039500	0.300782	0.148301	0.325798	0.379114	3797.336829	8709.488802	3174.541473	4902.445938
91.536500	0.306618	0.155264	0.323512	0.385664	3796.084917	8714.867215	3170.808959	4874.252719
92.037000	0.301490	0.151473	0.310949	0.383227	3791.375254	8697.289385	3166.623260	4884.691720
92.537500	0.300104	0.150432	0.332631	0.383092	3789.196934	8685.555664	3175.764253	4885.271103
93.037500	0.298538	0.149222	0.334437	0.383985	3784.932590	8658.416474	3176.156675	4881.437417
93.535000	0.295668	0.153576	0.306717	0.389152	3771.160922	8647.956444	3162.521614	4859.408470
94.092000	0.301165	0.153164	0.335403	0.390015	3779.070672	8631.602628	3173.989548	4855.753794
94.535000	0.295528	0.148743	0.307496	0.387463	3773.797011	8607.710910	3163.509684	4866.582551
95.037500	0.300558	0.147768	0.331631	0.386013	3784.919249	8613.771964	3174.087374	4872.760479
95.536000	0.296890	0.148396	0.312351	0.387268	3776.452172	8605.766169	3165.548328	4867.409798
96.036000	0.299057	0.150855	0.318693	0.390403	3774.800497	8597.161304	3166.855714	4854.114491
96.537000	0.295432	0.148960	0.350913	0.389287	3770.532546	8587.242666	3181.029618	4858.835617
97.037000	0.298419	0.150479	0.331806	0.391490	3771.862868	8578.552253	3171.843610	4849.524457
