sample name	sample
index	857
start time	 04-08-2021  11:08:39 AM
880	0.454752
Peak Time (s)	102.535
Peak Height 	0.4548
calc peak height	100,103
Baseline Time (s)	8.536
Baseline Value 	-0.002906
subtract baseline	10,4
Abs	0.349379
Peak Time (s)	102.535
Peak Height 	0.3494
calc peak height	100,103
Baseline Time (s)	9.537
Baseline Value 	5.0414E-4
subtract baseline	10,3
PK_550	0.185018
Peak Time (s)	102.035
Peak Height 	0.185
calc peak height	100,103
Baseline Time (s)	10.036
Baseline Value 	4.7084E-4
subtract baseline	10,2
PK_880	0.326677
Peak Time (s)	101.038
Peak Height 	0.3267
calc peak height	100,103
Baseline Time (s)	10.537
Baseline Value 	0.001033
subtract baseline	10,1


Time (s)	A880-A510	A880-A775	A880-A975	A880	I510	I775	I975	I880	
0.033500	-0.001865	-0.001137	-0.006231	0.004937	6830.835195	42225.182403	3836.812979	22534.491552
0.539000	-0.002308	-0.000860	-0.003649	0.006286	6813.823223	42127.787318	3840.132258	22472.947039
1.037500	-0.001063	-0.000427	0.001609	0.004221	6845.308463	42355.077202	3860.038709	22567.261117
1.535000	-0.001194	0.000104	0.000042	0.001428	6870.807077	42659.556318	3863.401867	22695.519924
2.035000	-0.002898	-0.001123	0.002384	0.004413	6825.990054	42274.049814	3861.635269	22558.439461
2.536000	-0.000682	-0.000960	-0.003487	0.000911	6880.701169	42609.361640	3855.150808	22719.371424
3.036000	0.000620	-0.000490	0.000473	-0.001515	6916.763065	42876.205921	3872.714774	22831.603059
3.536000	-0.000138	-0.000586	-0.004605	0.000138	6893.406108	42714.849257	3854.210523	22755.050837
4.036500	-0.002443	-0.000689	-0.002968	0.000406	6868.621989	42680.660016	3857.951230	22742.680782
4.536500	-0.000515	-0.000522	-0.003033	0.000136	6889.781405	42720.873159	3858.510970	22755.142014
5.037000	0.001827	0.000408	0.001689	0.001390	6900.289990	42691.042464	3868.042957	22697.255271
5.537000	-0.000652	-0.000273	-0.000575	0.000936	6880.746082	42670.121415	3863.056335	22718.180771
6.037500	-0.001495	-0.000510	0.001470	0.000188	6879.834298	42717.156128	3870.757345	22752.720610
6.535000	0.000543	0.000558	-0.004983	0.001125	6890.449902	42729.288490	3850.492211	22709.492553
7.037500	-0.001518	-0.000792	0.001575	0.000006	6881.371099	42708.002748	3871.553223	22761.155313
7.535500	-0.001657	-0.000369	0.000197	-0.000077	6880.831410	42754.671210	3867.976392	22764.997088
8.036000	-0.000769	-0.000480	0.002074	0.000241	6886.313624	42715.055692	3872.282536	22750.275628
8.535500	0.000460	-0.000262	0.000610	0.000000	6900.514601	42757.368758	3868.901649	22761.424051
9.036500	-0.001301	0.000321	0.000616	0.000262	6880.992877	42786.945209	3868.194955	22749.322253
9.536500	0.000275	-0.000025	0.000000	-0.000036	6899.077902	42782.508917	3867.317930	22763.088382
10.036000	0.001331	0.000000	-0.001848	0.000260	6906.428002	42757.520938	3861.417463	22749.390504
10.537000	0.000000	-0.000157	-0.001049	-0.000021	6896.273725	42768.991717	3864.385806	22762.397941
11.035000	-0.000446	0.000070	0.002410	0.000420	6887.702594	42749.241564	3872.718905	22742.007785
11.537500	-0.000086	0.000388	-0.002037	-0.000127	6896.460736	42829.065593	3861.963157	22767.279938
12.035500	0.000263	-0.000367	0.000039	-0.000463	6903.098564	42790.393733	3868.604952	22782.860951
12.535500	0.000353	0.000119	0.000664	0.000364	6895.966800	42758.917402	3868.047243	22744.601761
13.041000	0.001327	-0.000385	0.001112	-0.001225	6920.815101	42859.110980	3873.681275	22818.143871
13.536500	-0.001926	-0.000004	0.005888	-0.000968	6886.820258	42870.517892	3886.276505	22806.217472
14.036500	-0.001919	0.000014	-0.002036	0.002630	6852.328810	42540.966001	3854.420221	22640.223095
14.537000	-0.000740	-0.000398	-0.000298	0.001577	6873.731168	42599.770635	3862.058573	22688.637807
15.033500	0.002081	0.000649	0.002545	-0.000184	6918.020016	42858.475197	3874.767998	22769.932656
15.537500	0.000006	-0.000690	0.000435	-0.001450	6910.169951	42851.704018	3872.426943	22828.563831
16.037000	-0.000462	-0.000408	0.001891	-0.001084	6902.088853	42843.953877	3875.452831	22811.620676
16.535500	0.000821	0.000515	-0.000206	0.000486	6899.308294	42784.275622	3865.313318	22738.983359
17.035500	0.001804	0.000424	0.003113	-0.003163	6944.354424	43113.775273	3884.651990	22908.181722
17.536000	-0.000894	-0.000049	0.002900	0.000607	6881.585284	42721.078641	3873.557991	22733.378949
18.036000	-0.001105	-0.000032	-0.002578	0.001262	6873.250128	42662.311471	3856.675173	22703.149843
18.536500	0.000184	0.000360	0.001696	0.001855	6879.952780	42643.877818	3866.779002	22675.856696
19.037000	-0.001071	0.000712	0.002811	0.001589	6870.445951	42700.789329	3870.593263	22688.117952
19.537000	0.000020	-0.000377	0.001151	0.001076	6885.874679	42647.767501	3867.425895	22711.747365
20.034000	0.000227	-0.000069	0.001394	0.001397	6884.782802	42646.512945	3867.210861	22696.957747
20.542000	-0.001772	-0.000076	-0.001817	0.000976	6869.593754	42684.621476	3859.540353	22716.340201
21.035000	0.001206	0.000659	0.000771	0.001652	6891.768663	42690.097724	3864.792653	22685.214750
21.535500	-0.002581	-0.001328	-0.001112	0.000257	6868.727822	42635.589398	3863.448534	22749.537810
22.035500	0.000530	-0.000199	0.001724	0.001043	6891.115829	42667.087464	3869.097369	22713.251581
22.536000	-0.001504	-0.000052	0.002076	0.001192	6870.087690	42666.941180	3869.658917	22706.387962
23.036500	0.001047	0.000169	-0.001666	0.001027	6896.264486	42702.445640	3859.813759	22713.996075
23.536500	0.000466	0.000701	0.002662	0.001354	6887.491373	42721.308129	3870.830228	22698.920145
24.037000	-0.001083	-0.000523	-0.003039	0.000526	6880.555316	42684.917908	3857.427845	22737.145615
24.537000	-0.001763	-0.000266	-0.002175	0.000892	6870.487652	42674.924562	3858.791881	22720.248003
25.037500	-0.001333	-0.001124	0.000510	0.000769	6875.802420	42607.265177	3866.504545	22725.888120
25.535000	-0.000431	-0.000418	-0.001204	0.000811	6884.089057	42668.327353	3861.675705	22723.983294
26.035500	-0.001605	0.000263	0.001220	0.002714	6854.535491	42556.099136	3863.105704	22636.373285
26.535000	0.001259	0.000626	0.001588	0.001802	6890.828370	42673.171351	3866.629035	22678.297981
27.036000	-0.000176	0.000456	0.000621	-0.000541	6899.592343	42873.591065	3870.425412	22786.427611
27.535500	0.001177	-0.000282	-0.002463	-0.001759	6924.546329	42917.971719	3865.278908	22842.897070
28.036500	-0.002207	-0.000044	-0.002452	0.005343	6823.723935	42287.657870	3845.911386	22515.929822
28.536000	0.000198	0.000542	-0.001838	0.000489	6893.255412	42786.408945	3860.817908	22738.821525
29.037000	0.001951	-0.000695	0.003627	-0.000979	6924.487829	42807.694303	3879.987764	22806.731523
29.537000	-0.001085	-0.000721	0.001499	-0.001224	6897.413084	42827.938186	3874.750423	22818.081334
30.037500	-0.002312	0.000231	0.000471	0.004213	6833.471778	42415.898958	3856.943622	22567.620040
30.535500	-0.000950	0.000191	-0.000478	0.002948	6858.566924	42528.026284	3857.809302	22625.626198
31.035500	-0.000605	0.000548	0.004354	0.002993	6861.435628	42556.639429	3870.977337	22623.551358
31.535500	0.000864	0.000709	0.004128	-0.000181	6906.177304	42863.730728	3879.161073	22769.787999
32.036000	-0.003346	-0.000333	-0.000421	0.004680	6819.197182	42321.749552	3853.232454	22546.217554
32.536500	-0.000239	0.000586	-0.000101	0.000158	6892.229446	42821.065163	3866.504545	22754.119901
33.036500	0.002253	-0.000018	0.000796	-0.000898	6926.637047	42862.792489	3871.899668	22802.967957
33.540500	-0.000809	-0.000220	0.002556	0.001819	6870.747590	42593.948718	3869.254325	22677.523044
34.037000	0.000005	0.000270	0.003359	0.002800	6869.138208	42548.808171	3868.762424	22632.410133
34.540000	-0.000034	0.000310	-0.001127	0.002247	6874.079696	42603.171825	3857.949801	22657.798753
35.035000	-0.000528	-0.000664	0.001825	0.001455	6876.945287	42586.521303	3868.237404	22694.258883
35.535000	-0.001043	-0.000171	0.004602	0.001979	6866.962408	42583.754614	3874.475209	22670.154792
36.035500	-0.000865	0.000282	-0.001119	0.002535	6863.333802	42574.232512	3857.184270	22644.581655
36.536000	-0.001243	0.000101	-0.004170	0.002418	6860.826373	42568.291210	3849.187166	22649.934596
37.036000	0.000340	0.000486	0.002560	0.002543	6874.830704	42592.250842	3867.266237	22644.227879
37.536500	-0.000581	0.000638	0.001141	0.002661	6864.852964	42595.319419	3863.034473	22638.777810
38.037000	-0.000608	-0.000230	-0.002499	0.002067	6870.301678	42570.269660	3854.694074	22666.120258
38.537000	-0.001418	-0.000481	-0.003327	0.001889	6864.219745	42563.440930	3852.919680	22674.274156
39.037000	-0.000715	0.000533	0.003038	0.002524	6864.878162	42598.312647	3868.635300	22645.075519
39.537000	-0.001500	-0.000199	-0.001433	0.001725	6865.012010	42604.362660	3858.540199	22681.817081
40.034500	-0.000682	-0.000387	0.005669	0.001940	6870.797789	42567.401018	3877.545509	22671.923476
40.535000	-0.001502	-0.000071	0.000537	0.001829	6864.001014	42606.733197	3863.662948	22677.071171
41.038500	0.000215	-0.000156	-0.002672	0.002317	6875.800098	42554.049017	3853.539891	22654.610629
41.535500	-0.000068	0.000578	-0.000042	0.002619	6870.174205	42593.714213	3859.901292	22640.716508
42.036000	0.001120	0.000386	0.001712	0.002384	6883.863459	42597.646138	3865.365837	22651.507634
42.536000	-0.000376	-0.000691	0.001577	0.001843	6874.675512	42548.463876	3866.483803	22676.399441
43.037000	0.000882	0.000954	0.002823	0.002999	6875.660075	42593.363692	3866.732645	22623.272539
43.537500	0.002402	-0.000018	0.003397	-0.002486	6943.580935	43009.837198	3883.552650	22876.657038
44.037000	0.000971	-0.000646	0.002767	-0.000521	6910.512945	42769.975385	3876.321369	22785.517251
44.537500	-0.001080	-0.000635	0.000986	-0.000349	6889.007471	42755.157103	3870.907087	22777.568202
45.035000	0.000374	0.000242	0.004238	0.000352	6896.276690	42771.359801	3877.982618	22745.144232
45.535500	0.002739	0.001016	-0.001284	0.000301	6919.701188	42847.537643	3862.856414	22747.516542
46.035500	-0.002102	-0.000176	0.002515	0.004196	6835.635770	42380.221169	3862.592010	22568.369559
46.536000	0.001421	0.000547	-0.001413	0.001328	6896.970681	42709.578327	3859.685207	22700.137599
47.036500	-0.002266	-0.000248	-0.001509	0.002827	6847.127286	42498.835950	3855.319641	22631.146533
47.536500	-0.000364	0.000217	0.006409	0.002820	6865.401645	42542.102398	3877.155634	22631.463403
48.037000	-0.001836	-0.000149	0.001828	0.002535	6854.033106	42534.748390	3865.270422	22644.594050
48.537500	-0.001654	-0.000022	0.003725	0.001744	6863.359198	42618.999850	3872.695770	22680.984029
49.037500	0.002046	0.000719	0.004541	0.000257	6913.393112	42824.119933	3879.092183	22749.537207
49.535000	0.001878	0.000839	0.004358	-0.001826	6932.024594	43028.118213	3884.395935	22846.032043
50.035000	0.000720	0.001026	-0.001438	0.002892	6875.121423	42609.774289	3855.336389	22628.155529
50.535500	-0.038655	-0.012443	0.009212	0.020319	6363.060873	39870.707115	3836.978644	21843.776900
51.036000	-0.044923	-0.010965	0.018471	0.157467	5332.385692	29903.172843	3539.183390	16655.715970
51.536000	-0.039233	-0.028420	-0.019121	-0.179069	8490.630172	59392.550209	4400.512415	33006.831322
52.036500	-0.022495	-0.099074	-0.018257	-0.294414	10549.494697	65535.000000	4931.579139	42230.803197
52.536500	-0.019085	-0.014705	-0.006786	-0.152771	8409.202425	57774.187466	4345.746256	31225.262822
53.039500	-0.019041	-0.012925	-0.004369	-0.107553	7845.008744	52534.159868	4188.427205	28403.124640
53.537000	-0.032621	-0.020061	-0.005714	-0.102963	7634.133273	51207.256415	4167.810755	28132.761341
54.037000	-0.011271	-0.009322	-0.001172	-0.094091	7778.000853	51416.214837	4152.948025	27618.185157
54.535000	-0.005139	-0.010150	-0.002460	-0.108619	8025.486900	52976.626884	4198.867700	28466.315649
55.035500	0.006554	-0.001592	0.000086	-0.076410	7779.687065	50313.146500	4097.901161	26623.495586
55.535500	0.014132	0.001015	0.008408	-0.052551	7592.726124	48040.267623	4047.703656	25343.854282
56.036000	0.016960	0.003180	0.008856	-0.042605	7513.159643	47235.517774	4017.887221	24830.811544
56.536000	0.021608	0.004872	0.021091	-0.025831	7380.586390	45716.245062	4003.868758	23991.779303
57.036500	0.027309	0.007559	0.025380	0.001110	7157.086862	43380.831208	3936.054923	22710.157034
57.540000	0.032988	0.010547	0.040588	0.023968	6984.168199	41562.544128	3913.943250	21683.472689
58.037500	0.037883	0.013237	0.042335	0.043921	6838.112270	40048.795509	3862.852575	20830.339487
58.537500	0.043330	0.017040	0.051475	0.064396	6697.317599	38643.032322	3832.110659	19994.743898
59.035000	0.054536	0.023394	0.062436	0.086685	6596.554891	37348.862209	3802.179115	19128.775235
59.535000	0.062528	0.026624	0.072372	0.099891	6550.031794	36562.479418	3793.682295	18636.265506
60.035500	0.075105	0.032452	0.078512	0.097399	6686.017095	37217.084981	3816.247465	18728.044691
60.536000	0.088041	0.040446	0.098151	0.115094	6642.561522	36455.061452	3821.393142	18087.516524
61.036000	0.099405	0.048009	0.116083	0.144892	6478.645968	34771.452580	3790.347833	17066.162406
61.536500	0.113225	0.055748	0.130676	0.157048	6493.153179	34447.096765	3796.651825	16669.196001
62.039500	0.122441	0.062146	0.140346	0.169293	6466.785222	34022.803812	3789.990286	16280.420278
62.536500	0.134193	0.068331	0.153702	0.172151	6544.755515	34263.563543	3817.407208	16191.262502
63.034000	0.143247	0.076514	0.163816	0.174999	6600.123021	34653.442766	3836.772475	16102.981634
63.537000	0.152554	0.084249	0.170163	0.185719	6587.443231	34434.724880	3825.077646	15775.826805
64.035000	0.161261	0.090862	0.178760	0.197254	6562.197439	34077.302507	3817.284818	15432.693861
64.535500	0.166658	0.092902	0.179315	0.207200	6521.934887	33511.614349	3792.734195	15144.073849
65.043500	0.176351	0.096932	0.181214	0.212601	6559.913089	33414.572953	3783.712424	14990.092017
65.539000	0.181027	0.099590	0.186811	0.219398	6541.099141	33123.481561	3780.637856	14799.003566
66.039000	0.185190	0.103244	0.190806	0.228509	6497.572617	32743.870509	3767.628342	14547.522900
66.536500	0.192532	0.104932	0.196253	0.234229	6511.781252	32466.430772	3766.937347	14392.297415
67.037000	0.193117	0.106914	0.201077	0.240119	6465.486472	32199.946552	3764.246629	14234.590519
67.537000	0.197879	0.107679	0.205859	0.247013	6447.040468	31786.836498	3758.935131	14052.708393
68.036500	0.199898	0.108869	0.205772	0.253104	6412.057506	31460.724999	3743.548431	13894.391554
68.538000	0.202532	0.111395	0.211760	0.261114	6366.356911	31100.004982	3738.557298	13689.521813
69.035000	0.205479	0.114197	0.216147	0.268331	6330.476740	30812.996561	3731.614365	13508.163240
69.535500	0.209072	0.116476	0.219476	0.274829	6306.264079	30541.426330	3723.893972	13347.440219
70.036000	0.214689	0.118941	0.228628	0.282614	6288.300895	30202.724593	3727.218656	13158.017513
70.536000	0.214836	0.118419	0.234413	0.287215	6251.668876	29880.437060	3730.105406	13047.641403
71.036500	0.218432	0.119900	0.230497	0.292100	6241.130942	29668.384078	3708.828532	12931.729821
71.536500	0.220579	0.121928	0.232527	0.297573	6214.112919	29455.532219	3700.623693	12803.426440
72.037000	0.223704	0.123756	0.236152	0.303392	6192.364899	29210.951251	3695.426391	12668.747469
72.537000	0.225612	0.124146	0.241353	0.307116	6177.786194	29008.334182	3698.921027	12583.491569
73.037500	0.229006	0.126016	0.243213	0.311406	6170.614162	28862.240896	3693.177291	12486.196171
73.535000	0.231191	0.127721	0.248197	0.315511	6155.302236	28718.236145	3695.252910	12394.007227
74.035500	0.233652	0.128408	0.249623	0.319531	6142.907977	28519.459027	3689.142900	12304.537844
74.535500	0.235206	0.131344	0.253885	0.323708	6122.172683	28445.878335	3689.342907	12212.463899
75.035500	0.236351	0.131772	0.251094	0.326432	6109.743641	28310.216002	3676.475253	12152.901368
75.536000	0.241495	0.132369	0.258139	0.329417	6126.748696	28169.885562	3685.930983	12088.040405
76.039500	0.246104	0.135601	0.263976	0.335547	6114.758203	28000.685519	3685.246976	11956.258770
76.537000	0.244954	0.136858	0.266379	0.336993	6094.400291	27989.663479	3687.487279	11925.431721
77.037000	0.250035	0.138346	0.269215	0.340278	6108.468656	27885.293051	3686.434899	11855.799942
77.537500	0.253972	0.139850	0.271947	0.343653	6112.889477	27777.111788	3684.929090	11784.804669
78.038000	0.254431	0.141306	0.272717	0.346485	6094.285861	27697.872088	3680.121507	11725.665973
78.535000	0.257738	0.143369	0.271322	0.349474	6096.769920	27644.638698	3669.969738	11663.649103
79.035500	0.260854	0.144007	0.277753	0.351814	6102.843207	27547.153855	3679.438999	11615.397340
79.536000	0.265295	0.146982	0.275521	0.355223	6110.948614	27522.404098	3666.406126	11545.583571
80.036000	0.264684	0.147319	0.281655	0.358776	6078.384096	27339.448450	3672.349869	11473.394575
80.546000	0.269614	0.149538	0.285110	0.361285	6097.277147	27322.999126	3674.536603	11422.769631
81.036500	0.271775	0.150842	0.287844	0.364322	6090.430717	27224.992538	3673.833438	11361.871851
81.537000	0.272434	0.151577	0.291119	0.365960	6082.785945	27174.113992	3677.627249	11329.203507
82.037500	0.276254	0.153537	0.296528	0.369810	6082.554565	27067.943405	3681.253829	11252.919548
82.534500	0.278428	0.152687	0.290805	0.370222	6096.317882	26997.296944	3667.060611	11244.796453
83.037500	0.278525	0.153475	0.294216	0.373217	6073.718061	26874.236368	3668.018403	11185.967318
83.535500	0.278291	0.155667	0.296806	0.375557	6053.769448	26866.027068	3668.591587	11140.286274
84.035500	0.283473	0.157390	0.292929	0.379530	6063.121578	26741.242157	3650.696514	11063.285944
84.536000	0.285835	0.158436	0.303105	0.382098	6061.525043	26657.166077	3668.035152	11013.885702
85.037000	0.285507	0.158384	0.302907	0.383637	6047.097676	26569.627759	3664.049751	10984.419351
85.536500	0.288312	0.159547	0.301784	0.386320	6048.045528	26486.365790	3655.373512	10933.318773
86.037000	0.291335	0.161454	0.311711	0.390404	6039.869319	26367.519654	3668.725923	10856.111036
86.537000	0.291055	0.161719	0.307365	0.392096	6024.727258	26289.946813	3654.929775	10824.338251
87.037500	0.292573	0.162815	0.312149	0.395312	6011.745287	26175.129246	3658.492716	10764.282038
87.535000	0.295073	0.163078	0.312459	0.396773	6019.684879	26110.583720	3655.877204	10737.156743
88.034500	0.295959	0.165846	0.313702	0.401379	5991.362423	26011.799606	3648.269871	10652.214162
88.535500	0.301259	0.165084	0.312595	0.403117	6018.472050	25878.084302	3641.875868	10620.380764
89.036000	0.300388	0.167288	0.314091	0.405821	5991.264495	25851.481358	3639.177782	10571.138659
89.536000	0.300778	0.166905	0.314000	0.406409	5989.757191	25799.798937	3637.661318	10560.455162
90.036000	0.302898	0.168297	0.321511	0.410516	5974.739245	25655.978025	3645.280648	10486.344225
90.536500	0.304338	0.170685	0.326549	0.413213	5965.263495	25639.641567	3650.552107	10438.033293
91.037000	0.307254	0.170902	0.321275	0.414423	5978.123872	25587.320470	3636.016060	10416.472341
91.537000	0.307918	0.171353	0.321347	0.416301	5968.972982	25512.298929	3632.004425	10383.113196
92.034500	0.310678	0.174034	0.327302	0.420181	5960.543752	25449.480063	3636.615615	10314.642467
92.535000	0.309152	0.173335	0.329262	0.420542	5946.399694	25394.051772	3640.180277	10308.292417
93.035000	0.311413	0.175214	0.330652	0.423502	5941.179542	25337.671179	3636.677516	10256.515986
93.535500	0.312247	0.175362	0.328542	0.425190	5934.808817	25257.628429	3628.256884	10227.144510
94.036000	0.312049	0.176346	0.331789	0.427356	5917.235564	25196.415757	3630.647756	10189.628943
94.538500	0.316193	0.176962	0.330726	0.428500	5939.548322	25169.100180	3625.774659	10169.884862
95.036500	0.315731	0.177245	0.342089	0.430233	5923.203710	25094.248764	3647.215614	10140.069364
95.534000	0.317042	0.177016	0.334447	0.432055	5919.415613	24988.831625	3626.141381	10108.865467
96.037000	0.317831	0.179286	0.330876	0.434675	5905.861936	24970.895930	3612.599256	10064.202833
96.536500	0.317398	0.177378	0.339657	0.433584	5910.727532	24929.074341	3634.282823	10082.770642
97.037500	0.320294	0.179505	0.338199	0.436358	5911.628594	24896.036677	3624.927311	10035.671206
97.535000	0.321406	0.179243	0.340700	0.438700	5902.543862	24763.448322	3625.278110	9996.132239
98.035500	0.322010	0.180428	0.341563	0.440070	5896.898156	24754.085871	3624.163140	9973.104733
98.535500	0.321188	0.180564	0.340579	0.442070	5876.175856	24659.683264	3617.625402	9939.618406
99.039000	0.325420	0.182757	0.346931	0.444706	5887.880076	24637.338999	3625.771732	9895.721597
99.536000	0.321868	0.181689	0.345019	0.446920	5845.809273	24472.322195	3616.730200	9859.054907
100.036500	0.324101	0.182510	0.345739	0.448150	5853.093808	24451.882717	3615.619516	9838.772831
100.537000	0.326578	0.182614	0.345463	0.448735	5866.866810	24427.848011	3613.746761	9829.139662
101.037500	0.326677	0.184369	0.347780	0.450707	5853.231114	24416.983406	3614.497333	9796.774318
101.538000	0.325425	0.185012	0.348567	0.454501	5816.784723	24260.170720	3607.977480	9734.919283
102.035000	0.326039	0.185018	0.347748	0.453926	5825.331002	24288.952305	3607.448690	9744.247978
102.535000	0.326094	0.184762	0.349379	0.454752	5819.791425	24235.326571	3609.189898	9730.844804
103.035500	0.327889	0.184207	0.349293	0.455219	5829.348304	24184.750647	3607.992955	9723.267342
103.538000	0.326888	0.185186	0.347410	0.459572	5790.982246	24018.616195	3594.613570	9653.074166
104.036000	0.329351	0.185501	0.350714	0.458852	5813.732071	24069.455244	3603.225498	9664.636227
104.536000	0.331018	0.187426	0.348896	0.462247	5801.358712	23997.296395	3592.083335	9610.281736
105.040500	0.331490	0.188555	0.351823	0.463609	5795.006465	23985.850280	3595.413356	9588.593572
105.537000	0.332862	0.189343	0.355442	0.468817	5767.775491	23770.563760	3592.033742	9506.302662
106.037500	0.331598	0.187444	0.350570	0.465759	5780.480578	23826.785801	3588.187704	9554.506026
106.537500	0.334501	0.187828	0.353564	0.466621	5795.001080	23803.577254	3592.710088	9540.885486
107.034500	0.331861	0.188130	0.353579	0.467949	5766.835544	23753.827269	3589.922146	9519.951775
107.535500	0.331742	0.187697	0.351198	0.471740	5739.336974	23550.288935	3576.935631	9460.550627
