sample name	sample
index	956
start time	 04-12-2021  03:55:20 PM


Wavelength (nm)	Absorbance
494.344910	0.063546
494.563924	0.063546
494.782919	0.063546
495.001897	0.406686
495.220856	0.042827
495.439797	0.054302
495.658719	0.030989
495.877624	0.029626
496.096510	-0.023243
496.315378	-0.018917
496.534227	-0.035462
496.753059	-0.039646
496.971872	-0.082139
497.190667	0.040124
497.409444	0.059888
497.628203	0.064208
497.846943	0.069157
498.065665	0.071498
498.284369	0.073943
498.503055	0.074655
498.721723	0.075127
498.940372	0.075506
499.159003	0.075177
499.377616	0.075581
499.596210	0.077076
499.814787	0.077541
500.033345	0.077537
500.251885	0.076223
500.470406	0.075702
500.688910	0.076170
500.907395	0.076934
501.125862	0.076942
501.344311	0.076068
501.562742	0.076409
501.781154	0.075546
501.999548	0.075985
502.217924	0.076792
502.436282	0.077541
502.654621	0.076908
502.872942	0.076799
503.091245	0.076738
503.309530	0.076690
503.527797	0.075651
503.746045	0.076294
503.964275	0.076230
504.182487	0.076566
504.400681	0.075888
504.618856	0.076673
504.837013	0.076734
505.055152	0.077608
505.273273	0.078138
505.491376	0.077726
505.709460	0.076935
505.927526	0.076645
506.145574	0.076289
506.363604	0.077021
506.581615	0.076781
506.799608	0.076382
507.017583	0.075980
507.235540	0.076701
507.453478	0.078037
507.671399	0.078349
507.889301	0.078819
508.107185	0.079394
508.325050	0.080190
508.542898	0.080391
508.760727	0.081630
508.978538	0.081963
509.196330	0.081483
509.414105	0.081050
509.631861	0.081579
509.849599	0.081220
510.067319	0.080473
510.285021	0.080511
510.502704	0.080112
510.720369	0.079852
510.938016	0.079949
511.155645	0.080490
511.373255	0.080968
511.590848	0.080488
511.808422	0.080679
512.025977	0.081192
512.243515	0.080297
512.461034	0.080694
512.678536	0.080260
512.896018	0.080734
513.113483	0.079948
513.330930	0.080010
513.548358	0.080434
513.765768	0.081122
513.983160	0.081754
514.200533	0.081965
514.417889	0.082033
514.635226	0.082460
514.852545	0.082029
515.069845	0.082945
515.287128	0.082801
515.504392	0.083221
515.721638	0.083273
515.938866	0.083291
516.156075	0.083349
516.373267	0.083566
516.590440	0.083626
516.807594	0.083877
517.024731	0.083576
517.241850	0.083724
517.458950	0.082841
517.676032	0.082998
517.893095	0.083289
518.110141	0.083701
518.327168	0.083866
518.544177	0.084329
518.761168	0.084315
518.978141	0.084932
519.195095	0.084960
519.412031	0.085941
519.628949	0.085424
519.845849	0.085201
520.062731	0.085827
520.279594	0.085912
520.496439	0.085911
520.713266	0.086129
520.930074	0.085506
521.146865	0.085558
521.363637	0.084598
521.580391	0.085753
521.797127	0.085795
522.013844	0.085365
522.230543	0.085509
522.447224	0.085562
522.663887	0.086012
522.880532	0.086410
523.097158	0.086234
523.313766	0.086669
523.530356	0.086866
523.746928	0.086894
523.963481	0.087473
524.180017	0.087657
524.396534	0.088042
524.613032	0.088354
524.829513	0.088729
525.045975	0.089564
525.262420	0.090297
525.478845	0.089569
525.695253	0.089938
525.911643	0.089112
526.128014	0.089651
526.344367	0.089647
526.560702	0.089425
526.777018	0.088986
526.993316	0.089111
527.209597	0.089675
527.425858	0.090320
527.642102	0.090024
527.858328	0.091036
528.074535	0.090575
528.290724	0.090892
528.506894	0.091217
528.723047	0.092163
528.939181	0.092461
529.155297	0.091903
529.371395	0.092295
529.587475	0.092790
529.803536	0.093287
530.019579	0.094079
530.235604	0.094596
530.451611	0.094726
530.667600	0.094935
530.883570	0.095093
531.099522	0.095832
531.315456	0.095860
531.531372	0.096380
531.747269	0.096455
531.963148	0.096222
532.179009	0.096259
532.394852	0.096595
532.610676	0.096472
532.826482	0.096428
533.042271	0.096254
533.258040	0.096230
533.473792	0.096113
533.689525	0.096928
533.905240	0.097365
534.120937	0.097350
534.336616	0.097729
534.552277	0.098002
534.767919	0.098145
534.983543	0.097986
535.199149	0.097748
535.414736	0.098159
535.630306	0.097271
535.845857	0.097103
536.061390	0.096979
536.276904	0.096825
536.492401	0.097308
536.707879	0.097597
536.923339	0.098651
537.138781	0.099202
537.354204	0.099031
537.569610	0.099204
537.784997	0.100041
538.000366	0.100844
538.215716	0.100980
538.431049	0.100417
538.646363	0.100317
538.861659	0.100258
539.076937	0.100410
539.292196	0.100495
539.507438	0.101103
539.722661	0.100504
539.937866	0.100472
540.153052	0.100362
540.368221	0.101091
540.583371	0.101342
540.798503	0.101076
541.013617	0.100999
541.228712	0.101190
541.443789	0.100726
541.658848	0.100903
541.873889	0.100656
542.088912	0.101055
542.303916	0.101360
542.518902	0.101444
542.733870	0.102273
542.948820	0.102820
543.163752	0.103137
543.378665	0.104015
543.593560	0.104533
543.808437	0.105127
544.023295	0.105293
544.238136	0.105247
544.452958	0.105785
544.667762	0.105473
544.882548	0.105279
545.097315	0.105540
545.312064	0.104715
545.526795	0.105108
545.741508	0.105142
545.956203	0.105190
546.170879	0.105323
546.385537	0.105418
546.600177	0.105701
546.814799	0.105790
547.029402	0.105885
547.243988	0.106441
547.458555	0.106035
547.673103	0.105855
547.887634	0.106339
548.102146	0.106524
548.316640	0.106592
548.531116	0.106679
548.745574	0.106910
548.960013	0.107139
549.174435	0.107534
549.388838	0.108128
549.603222	0.108260
549.817589	0.108066
550.031937	0.108222
550.246267	0.108366
550.460579	0.108388
550.674873	0.108745
550.889148	0.108940
551.103405	0.108762
551.317644	0.108551
551.531865	0.108676
551.746068	0.108930
551.960252	0.108834
552.174418	0.109068
552.388566	0.109621
552.602696	0.109895
552.816807	0.109958
553.030900	0.110457
553.244975	0.110343
553.459032	0.110813
553.673070	0.111053
553.887091	0.111616
554.101093	0.111347
554.315077	0.111049
554.529042	0.111029
554.742990	0.110942
554.956919	0.110486
555.170830	0.111143
555.384722	0.111106
555.598597	0.111287
555.812453	0.110925
556.026291	0.110955
556.240111	0.111168
556.453913	0.111442
556.667696	0.111695
556.881461	0.112473
557.095208	0.112536
557.308937	0.112373
557.522647	0.112395
557.736339	0.112762
557.950013	0.113319
558.163669	0.113314
558.377307	0.113012
558.590926	0.113165
558.804527	0.113077
559.018110	0.113040
559.231675	0.113462
559.445221	0.113454
559.658749	0.113688
559.872259	0.113388
560.085751	0.113518
560.299225	0.113991
560.512680	0.114085
560.726117	0.113980
560.939536	0.113970
561.152937	0.114084
561.366319	0.114359
561.579683	0.114034
561.793029	0.114285
562.006357	0.114379
562.219667	0.114562
562.432958	0.114675
562.646231	0.114930
562.859486	0.114999
563.072723	0.115359
563.285941	0.115179
563.499141	0.115338
563.712323	0.115549
563.925487	0.115801
564.138632	0.115455
564.351760	0.115267
564.564869	0.115024
564.777960	0.114985
564.991032	0.114296
565.204087	0.114330
565.417123	0.114479
565.630141	0.114287
565.843140	0.113946
566.056122	0.114030
566.269085	0.114613
566.482030	0.114891
566.694957	0.115012
566.907866	0.115803
567.120756	0.116114
567.333628	0.116106
567.546482	0.116382
567.759318	0.116562
567.972135	0.116765
568.184935	0.116518
568.397716	0.116749
568.610478	0.116959
568.823223	0.116810
569.035949	0.116382
569.248657	0.116660
569.461347	0.116648
569.674019	0.117098
569.886672	0.117053
570.099308	0.117016
570.311925	0.117150
570.524523	0.116894
570.737104	0.116620
570.949666	0.116710
571.162210	0.116224
571.374736	0.116197
571.587244	0.116414
571.799733	0.116247
572.012205	0.116511
572.224658	0.116689
572.437092	0.116896
572.649509	0.117127
572.861907	0.117272
573.074287	0.117690
573.286649	0.117828
573.498993	0.117366
573.711318	0.117900
573.923625	0.117692
574.135914	0.117280
574.348185	0.117375
574.560438	0.117365
574.772672	0.117816
574.984888	0.118078
575.197086	0.118316
575.409266	0.118309
575.621427	0.117646
575.833570	0.117622
576.045695	0.117795
576.257802	0.118052
576.469890	0.118366
576.681961	0.118496
576.894013	0.118233
577.106046	0.118155
577.318062	0.118316
577.530059	0.119152
577.742039	0.119510
577.954000	0.119825
578.165942	0.119894
578.377867	0.119850
578.589773	0.119508
578.801661	0.119890
579.013531	0.120362
579.225382	0.120533
579.437216	0.120543
579.649031	0.120400
579.860828	0.120242
580.072606	0.120315
580.284367	0.120339
580.496109	0.120293
580.707833	0.120009
580.919539	0.119782
581.131227	0.119987
581.342896	0.119950
581.554547	0.120204
581.766180	0.120385
581.977795	0.120699
582.189391	0.120533
582.400969	0.120779
582.612529	0.120985
582.824071	0.121040
583.035595	0.121090
583.247100	0.120860
583.458587	0.121071
583.670056	0.120975
583.881506	0.120836
584.092939	0.121222
584.304353	0.121543
584.515749	0.121639
584.727127	0.121453
584.938486	0.121470
585.149828	0.121694
585.361151	0.121730
585.572456	0.121796
585.783742	0.121553
585.995011	0.121684
586.206261	0.121619
586.417493	0.121569
586.628706	0.121895
586.839902	0.121876
587.051079	0.121877
587.262238	0.121651
587.473379	0.122120
587.684502	0.122805
587.895606	0.122539
588.106692	0.122965
588.317760	0.122921
588.528810	0.123104
588.739841	0.123209
588.950855	0.123590
589.161850	0.123825
589.372827	0.123811
589.583785	0.123496
589.794726	0.124151
590.005648	0.124257
590.216552	0.124480
590.427437	0.124437
590.638305	0.124514
590.849154	0.124361
591.059985	0.124135
591.270798	0.123903
591.481592	0.124132
591.692369	0.123935
591.903127	0.123888
592.113867	0.124099
592.324588	0.124222
592.535292	0.124496
592.745977	0.124841
592.956644	0.124900
593.167293	0.124696
593.377923	0.124386
593.588536	0.124289
593.799130	0.124026
594.009706	0.124485
594.220263	0.124369
594.430803	0.124197
594.641324	0.123867
594.851827	0.124410
595.062312	0.124719
595.272778	0.125021
595.483227	0.124891
595.693657	0.125103
595.904069	0.124542
596.114462	0.124686
596.324838	0.124842
596.535195	0.125074
596.745534	0.125170
596.955855	0.125320
597.166157	0.125226
597.376441	0.125675
597.586707	0.125993
597.796955	0.126383
598.007185	0.126721
598.217396	0.126678
598.427589	0.126971
598.637764	0.127197
598.847921	0.127330
599.058060	0.127534
599.268180	0.127966
599.478282	0.127879
599.688366	0.127971
599.898431	0.127856
600.108479	0.128035
600.318508	0.127897
600.528519	0.127706
600.738511	0.127930
600.948486	0.127957
601.158442	0.127884
601.368380	0.128063
601.578300	0.128425
601.788202	0.128279
601.998085	0.128335
602.207950	0.128220
602.417797	0.127919
602.627626	0.127812
602.837436	0.127738
603.047228	0.127435
603.257002	0.127061
603.466758	0.126800
603.676496	0.127027
603.886215	0.127299
604.095916	0.127561
604.305599	0.127896
604.515264	0.127728
604.724910	0.128347
604.934538	0.128462
605.144148	0.128911
605.353740	0.128796
605.563314	0.128750
605.772869	0.128759
605.982406	0.128771
606.191925	0.128907
606.401425	0.129561
606.610908	0.129337
606.820372	0.129315
607.029818	0.129006
607.239246	0.129021
607.448655	0.129254
607.658047	0.128941
607.867420	0.128973
608.076775	0.128890
608.286111	0.128448
608.495430	0.128474
608.704730	0.128916
608.914012	0.129287
609.123275	0.129595
609.332521	0.130194
609.541748	0.130544
609.750957	0.130586
609.960148	0.130878
610.169321	0.131262
610.378475	0.131327
610.587611	0.131352
610.796729	0.131349
611.005829	0.131095
611.214910	0.130460
611.423974	0.130591
611.633019	0.130867
611.842045	0.130791
612.051054	0.130617
612.260044	0.130680
612.469017	0.130580
612.677970	0.130497
612.886906	0.130758
613.095824	0.130834
613.304723	0.130851
613.513604	0.130731
613.722467	0.130746
613.931311	0.130751
614.140138	0.130861
614.348946	0.130801
614.557736	0.131101
614.766507	0.131471
614.975261	0.131728
615.183996	0.131543
615.392713	0.131710
615.601412	0.131781
615.810092	0.131968
616.018754	0.132150
616.227399	0.132350
616.436024	0.132103
616.644632	0.131810
616.853222	0.131912
617.061793	0.132114
617.270346	0.132290
617.478880	0.132325
617.687397	0.132425
617.895895	0.132082
618.104375	0.131950
618.312837	0.131954
618.521281	0.132059
618.729706	0.131861
618.938113	0.132100
619.146502	0.131952
619.354873	0.132228
619.563226	0.132011
619.771560	0.132169
619.979876	0.132446
620.188174	0.132819
620.396453	0.132776
620.604715	0.132740
620.812958	0.132626
621.021183	0.132585
621.229390	0.132474
621.437578	0.132834
621.645748	0.132971
621.853900	0.133016
622.062034	0.133105
622.270150	0.133519
622.478247	0.133564
622.686326	0.133545
622.894387	0.133554
623.102430	0.133534
623.310454	0.133639
623.518461	0.133849
623.726449	0.133720
623.934418	0.133620
624.142370	0.133500
624.350303	0.133872
624.558218	0.133926
624.766115	0.133907
624.973994	0.134102
625.181855	0.134289
625.389697	0.134255
625.597521	0.134390
625.805327	0.134492
626.013114	0.134504
626.220883	0.134398
626.428634	0.134561
626.636367	0.135130
626.844082	0.135323
627.051778	0.134948
627.259457	0.135174
627.467117	0.135624
627.674758	0.135497
627.882382	0.135511
628.089987	0.135692
628.297574	0.135472
628.505143	0.135357
628.712694	0.135289
628.920226	0.135407
629.127740	0.135447
629.335236	0.135097
629.542714	0.135443
629.750174	0.135589
629.957615	0.135685
630.165038	0.135878
630.372443	0.135928
630.579829	0.136093
630.787198	0.136385
630.994548	0.136549
631.201880	0.136718
631.409194	0.136689
631.616489	0.136708
631.823766	0.136757
632.031025	0.136902
632.238266	0.137059
632.445489	0.136862
632.652693	0.136987
632.859879	0.136932
633.067047	0.136955
633.274197	0.137142
633.481329	0.137410
633.688442	0.137480
633.895537	0.137633
634.102614	0.137587
634.309672	0.137830
634.516713	0.137725
634.723735	0.137963
634.930739	0.138019
635.137724	0.138054
635.344692	0.137882
635.551641	0.137824
635.758572	0.137766
635.965485	0.137687
636.172379	0.137706
636.379256	0.137879
636.586114	0.137673
636.792954	0.137760
636.999775	0.137859
637.206579	0.138159
637.413364	0.138477
637.620131	0.138684
637.826880	0.138992
638.033610	0.139154
638.240323	0.139329
638.447017	0.139425
638.653692	0.139646
638.860350	0.139808
639.066990	0.139737
639.273611	0.139645
639.480214	0.139788
639.686798	0.139806
639.893365	0.139994
640.099913	0.140020
640.306443	0.140043
640.512955	0.140189
640.719449	0.140209
640.925924	0.140467
641.132381	0.140514
641.338820	0.140351
641.545241	0.140534
641.751644	0.140510
641.958028	0.140499
642.164394	0.140762
642.370742	0.140831
642.577071	0.140731
642.783383	0.140356
642.989676	0.140697
643.195951	0.140831
643.402207	0.140698
643.608446	0.140700
643.814666	0.140893
644.020868	0.140923
644.227052	0.140915
644.433218	0.141191
644.639365	0.141622
644.845494	0.141530
645.051605	0.141692
645.257698	0.141850
645.463772	0.142167
645.669828	0.142085
645.875866	0.142130
646.081886	0.142057
646.287888	0.142081
646.493871	0.142194
646.699836	0.142401
646.905783	0.142523
647.111712	0.142742
647.317622	0.142804
647.523514	0.143273
647.729388	0.143341
647.935244	0.143582
648.141082	0.143894
648.346901	0.144182
648.552702	0.144025
648.758485	0.144078
648.964250	0.144082
649.169996	0.144015
649.375724	0.143756
649.581434	0.143776
649.787126	0.143859
649.992800	0.143915
650.198455	0.143901
650.404092	0.144182
650.609711	0.144292
650.815311	0.144477
651.020894	0.144751
651.226458	0.145122
651.432004	0.145593
651.637532	0.145739
651.843041	0.145725
652.048532	0.145839
652.254006	0.145785
652.459460	0.146110
652.664897	0.146403
652.870315	0.146137
653.075716	0.146138
653.281097	0.146063
653.486461	0.145992
653.691807	0.145960
653.897134	0.146082
654.102443	0.146543
654.307734	0.146540
654.513006	0.146434
654.718261	0.146825
654.923497	0.146960
655.128715	0.147235
655.333915	0.147518
655.539096	0.147853
655.744259	0.147989
655.949404	0.148062
656.154531	0.148033
656.359640	0.148293
656.564730	0.148147
656.769802	0.148231
656.974856	0.148159
657.179892	0.148314
657.384909	0.148434
657.589908	0.148187
657.794889	0.148046
657.999852	0.148333
658.204797	0.148386
658.409723	0.148599
658.614631	0.148582
658.819521	0.148634
659.024393	0.148744
659.229246	0.148650
659.434081	0.148896
659.638898	0.149157
659.843697	0.149135
660.048478	0.149232
660.253240	0.149518
660.457984	0.149612
660.662710	0.149716
660.867417	0.149787
661.072107	0.149863
661.276778	0.150029
661.481431	0.150047
661.686066	0.150307
661.890682	0.150179
662.095281	0.150205
662.299861	0.150448
662.504422	0.150541
662.708966	0.150433
662.913491	0.150644
663.117999	0.150622
663.322488	0.150792
663.526958	0.150838
663.731411	0.151016
663.935845	0.151079
664.140261	0.151067
664.344659	0.151153
664.549038	0.151477
664.753400	0.151429
664.957743	0.151664
665.162068	0.151754
665.366375	0.151557
665.570663	0.151827
665.774933	0.151778
665.979185	0.151897
666.183419	0.151881
666.387635	0.151935
666.591832	0.152036
666.796011	0.152062
667.000172	0.152184
667.204315	0.152532
667.408439	0.152217
667.612545	0.152510
667.816634	0.152578
668.020703	0.152973
668.224755	0.152927
668.428788	0.153154
668.632803	0.153233
668.836800	0.153153
669.040779	0.153301
669.244739	0.153757
669.448681	0.153799
669.652605	0.154047
669.856511	0.153908
670.060399	0.154044
670.264268	0.154166
670.468119	0.154489
670.671952	0.154636
670.875767	0.154535
671.079563	0.154468
671.283341	0.154491
671.487101	0.154542
671.690843	0.154649
671.894567	0.154872
672.098272	0.154705
672.301959	0.154830
672.505628	0.154865
672.709278	0.155086
672.912911	0.155495
673.116525	0.155736
673.320121	0.155736
673.523699	0.155915
673.727258	0.156025
673.930799	0.156318
674.134322	0.156261
674.337827	0.156414
674.541314	0.156602
674.744782	0.156258
674.948232	0.156299
675.151664	0.156672
675.355078	0.156969
675.558474	0.156801
675.761851	0.156808
675.965210	0.156937
676.168551	0.157004
676.371873	0.157109
676.575178	0.157509
676.778464	0.157635
676.981732	0.157668
677.184981	0.157706
677.388213	0.157916
677.591426	0.157932
677.794621	0.157996
677.997798	0.158220
678.200956	0.158218
678.404097	0.158214
678.607219	0.158372
678.810323	0.158316
679.013408	0.158099
679.216476	0.158215
679.419525	0.158436
679.622556	0.158585
679.825569	0.158634
680.028563	0.158738
680.231540	0.158818
680.434498	0.158654
680.637438	0.158764
680.840359	0.159144
681.043263	0.159270
681.246148	0.159321
681.449015	0.159455
681.651864	0.159746
681.854694	0.159959
682.057506	0.160232
682.260301	0.160436
682.463076	0.160416
682.665834	0.160241
682.868573	0.160437
683.071295	0.160671
683.273998	0.160670
683.476682	0.160663
683.679349	0.160703
683.881997	0.160636
684.084627	0.160852
684.287239	0.161040
684.489833	0.161536
684.692408	0.161716
684.894965	0.161922
685.097504	0.162017
685.300025	0.162062
685.502527	0.162032
685.705012	0.162177
685.907478	0.162113
686.109925	0.162137
686.312355	0.161976
686.514766	0.161944
686.717159	0.162096
686.919534	0.162159
687.121891	0.162341
687.324230	0.162570
687.526550	0.162683
687.728852	0.162958
687.931136	0.163078
688.133401	0.163173
688.335649	0.163332
688.537878	0.163317
688.740089	0.163551
688.942281	0.163597
689.144456	0.163606
689.346612	0.163584
689.548750	0.163523
689.750870	0.163713
689.952971	0.163597
690.155055	0.163720
690.357120	0.163662
690.559167	0.163548
690.761195	0.163404
690.963206	0.163418
691.165198	0.163346
691.367172	0.163491
691.569128	0.163268
691.771065	0.163652
691.972984	0.163486
692.174885	0.163461
692.376768	0.163603
692.578633	0.163802
692.780479	0.163788
692.982308	0.164065
693.184118	0.164008
693.385909	0.164054
693.587683	0.163989
693.789438	0.164192
693.991175	0.164455
694.192894	0.164652
694.394595	0.164547
694.596277	0.164685
694.797941	0.164745
694.999587	0.164866
695.201215	0.165106
695.402824	0.165287
695.604416	0.165201
695.805989	0.165168
696.007543	0.165040
696.209080	0.165376
696.410598	0.165573
696.612099	0.165649
696.813580	0.165966
697.015044	0.166171
697.216490	0.165991
697.417917	0.166289
697.619326	0.166429
697.820717	0.166465
698.022089	0.166502
698.223444	0.166415
698.424780	0.166429
698.626098	0.166259
698.827397	0.166384
699.028679	0.166646
699.229942	0.166698
699.431187	0.166805
699.632414	0.166931
699.833622	0.166845
700.034813	0.166957
700.235985	0.167063
700.437139	0.167203
700.638274	0.167257
700.839392	0.167376
701.040491	0.167558
701.241572	0.167541
701.442635	0.167718
701.643679	0.167882
701.844706	0.167952
702.045714	0.167952
702.246704	0.168112
702.447675	0.168126
702.648629	0.168213
702.849564	0.167959
703.050481	0.167994
703.251380	0.167905
703.452260	0.168102
703.653122	0.168290
703.853966	0.168421
704.054792	0.168229
704.255600	0.168236
704.456389	0.168225
704.657160	0.168189
704.857913	0.168304
705.058648	0.168468
705.259365	0.168371
705.460063	0.168323
705.660743	0.168233
705.861405	0.168567
706.062048	0.168443
706.262674	0.168223
706.463281	0.168491
706.663870	0.168507
706.864441	0.168512
707.064993	0.168484
707.265527	0.168599
707.466043	0.168656
707.666541	0.168666
707.867021	0.168766
708.067482	0.168789
708.267925	0.168609
708.468350	0.168747
708.668757	0.168672
708.869145	0.168824
709.069516	0.168685
709.269868	0.168748
709.470201	0.168467
709.670517	0.168732
709.870814	0.168855
710.071093	0.168986
710.271354	0.168927
710.471597	0.169080
710.671821	0.168955
710.872028	0.168902
711.072216	0.168787
711.272385	0.168976
711.472537	0.168858
711.672670	0.168769
711.872785	0.168883
712.072882	0.168600
712.272961	0.168395
712.473021	0.168221
712.673063	0.168218
712.873087	0.168177
713.073093	0.167976
713.273081	0.167837
713.473050	0.167874
713.673001	0.167588
713.872934	0.167923
714.072849	0.167867
714.272745	0.167911
714.472623	0.167740
714.672483	0.167866
714.872325	0.167825
715.072148	0.167859
715.271954	0.167750
715.471741	0.167776
715.671509	0.167571
715.871260	0.167665
716.070992	0.167685
716.270707	0.167880
716.470403	0.167926
716.670080	0.167868
716.869740	0.167629
717.069381	0.167825
717.269004	0.167718
717.468609	0.167820
717.668195	0.167919
717.867764	0.168146
718.067314	0.168081
718.266846	0.167976
718.466360	0.167958
718.665855	0.168056
718.865332	0.168131
719.064791	0.168288
719.264232	0.168117
719.463655	0.168098
719.663059	0.167674
719.862445	0.167704
720.061813	0.167526
720.261163	0.167679
720.460494	0.167731
720.659807	0.167318
720.859102	0.167378
721.058379	0.167203
721.257638	0.167276
721.456878	0.167426
721.656100	0.167208
721.855304	0.167301
722.054490	0.167290
722.253657	0.167147
722.452806	0.167173
722.651937	0.166884
722.851050	0.166875
723.050145	0.166633
723.249221	0.166526
723.448279	0.166610
723.647319	0.166580
723.846340	0.166511
724.045344	0.166498
724.244329	0.166386
724.443296	0.166542
724.642245	0.166657
724.841175	0.166490
725.040088	0.166334
725.238982	0.166309
725.437857	0.166157
725.636715	0.166046
725.835554	0.165953
726.034376	0.166079
726.233179	0.165896
726.431963	0.165640
726.630730	0.165552
726.829478	0.165568
727.028208	0.165484
727.226920	0.165423
727.425614	0.165394
727.624289	0.165456
727.822946	0.165121
728.021585	0.164956
728.220206	0.164919
728.418808	0.164768
728.617392	0.164617
728.815958	0.164351
729.014506	0.164249
729.213036	0.163990
729.411547	0.163833
729.610040	0.163989
729.808515	0.164019
730.006972	0.163882
730.205410	0.163987
730.403831	0.164010
730.602233	0.164280
730.800616	0.164140
730.998982	0.164189
731.197329	0.164117
731.395658	0.164097
731.593969	0.163986
731.792262	0.164053
731.990536	0.163897
732.188793	0.163829
732.387031	0.163525
732.585250	0.163766
732.783452	0.163481
732.981635	0.163288
733.179800	0.163050
733.377947	0.163054
733.576076	0.162909
733.774186	0.162847
733.972278	0.162625
734.170352	0.162566
734.368408	0.162530
734.566446	0.162730
734.764465	0.162848
734.962466	0.162969
735.160449	0.162849
735.358413	0.162850
735.556360	0.162781
735.754288	0.162603
735.952198	0.162510
736.150090	0.162304
736.347963	0.161898
736.545818	0.161674
736.743655	0.161493
736.941474	0.161215
737.139275	0.160951
737.337057	0.160738
737.534821	0.160926
737.732567	0.160892
737.930295	0.160820
738.128005	0.160900
738.325696	0.160908
738.523369	0.160685
738.721024	0.160847
738.918660	0.160866
739.116279	0.160699
739.313879	0.160622
739.511461	0.160477
739.709024	0.160346
739.906570	0.160489
740.104097	0.160460
740.301606	0.160400
740.499097	0.160104
740.696569	0.159984
740.894024	0.159935
741.091460	0.159656
741.288878	0.159543
741.486277	0.159218
741.683659	0.159153
741.881022	0.158868
742.078367	0.158897
742.275694	0.158982
742.473002	0.158779
742.670293	0.158680
742.867565	0.158774
743.064819	0.158581
743.262054	0.158461
743.459272	0.158205
743.656471	0.158044
743.853652	0.157791
744.050815	0.157442
744.247959	0.157339
744.445085	0.157286
744.642194	0.157090
744.839283	0.157059
745.036355	0.157238
745.233408	0.156946
745.430444	0.156886
745.627461	0.156746
745.824459	0.156946
746.021440	0.157051
746.218402	0.156955
746.415346	0.156924
746.612272	0.156841
746.809180	0.156534
747.006069	0.156446
747.202940	0.156478
747.399793	0.156597
747.596628	0.156389
747.793444	0.156297
747.990243	0.156389
748.187023	0.156177
748.383784	0.156131
748.580528	0.156046
748.777253	0.156084
748.973960	0.155778
749.170649	0.155639
749.367320	0.155559
749.563973	0.155314
749.760607	0.155017
749.957223	0.155054
750.153821	0.154710
750.350400	0.154661
750.546962	0.154481
750.743505	0.154399
750.940030	0.154181
751.136536	0.153850
751.333025	0.153802
751.529495	0.153585
751.725947	0.153411
751.922381	0.153529
752.118796	0.153357
752.315194	0.153017
752.511573	0.152889
752.707934	0.152633
752.904276	0.152596
753.100601	0.152540
753.296907	0.152433
753.493195	0.152255
753.689465	0.152165
753.885716	0.151958
754.081949	0.152073
754.278164	0.151948
754.474361	0.151997
754.670540	0.151969
754.866700	0.151657
755.062843	0.151639
755.258967	0.151724
755.455072	0.151564
755.651160	0.151626
755.847229	0.151628
756.043280	0.151838
756.239313	0.151635
756.435328	0.151468
756.631324	0.151598
756.827302	0.151552
757.023262	0.151168
757.219204	0.151100
757.415127	0.150986
757.611033	0.150637
757.806920	0.150299
758.002788	0.150121
758.198639	0.149861
758.394471	0.149653
758.590286	0.149396
758.786081	0.149478
758.981859	0.149346
759.177619	0.149186
759.373360	0.149245
759.569083	0.149009
759.764788	0.148881
759.960474	0.148932
760.156143	0.148900
760.351793	0.148989
760.547425	0.148917
760.743038	0.148841
760.938634	0.148889
761.134211	0.148987
761.329770	0.149149
761.525311	0.149358
761.720833	0.149454
761.916338	0.149243
762.111824	0.149223
762.307292	0.149193
762.502741	0.149205
762.698173	0.149024
762.893586	0.148622
763.088981	0.148299
763.284358	0.148054
763.479716	0.147894
763.675057	0.147803
763.870379	0.147742
764.065683	0.147706
764.260968	0.147597
764.456236	0.147634
764.651485	0.147779
764.846716	0.147832
765.041929	0.148039
765.237123	0.148146
765.432299	0.148091
765.627457	0.147974
765.822597	0.147996
766.017719	0.148005
766.212822	0.147954
766.407907	0.147745
766.602974	0.147730
766.798023	0.147699
766.993054	0.147482
767.188066	0.147410
767.383060	0.147376
767.578036	0.147181
767.772993	0.147156
767.967933	0.147123
768.162854	0.147348
768.357757	0.147243
768.552642	0.147022
768.747508	0.146938
768.942356	0.147152
769.137186	0.147112
769.331998	0.147003
769.526792	0.146926
769.721567	0.146928
769.916324	0.146748
770.111063	0.146559
770.305784	0.146595
770.500486	0.146364
770.695171	0.146273
770.889837	0.146187
771.084484	0.146273
771.279114	0.146125
771.473725	0.145933
771.668318	0.145804
771.862893	0.145960
772.057450	0.145689
772.251988	0.145932
772.446509	0.145794
772.641011	0.145742
772.835494	0.145355
773.029960	0.145409
773.224407	0.145379
773.418836	0.145273
773.613247	0.145129
773.807640	0.145239
774.002014	0.145200
774.196370	0.145249
774.390708	0.145349
774.585028	0.145481
774.779330	0.145447
774.973613	0.145518
775.167878	0.145963
775.362125	0.145947
775.556354	0.145959
775.750564	0.145882
775.944756	0.145837
776.138930	0.145836
776.333086	0.146001
776.527223	0.146056
776.721343	0.145810
776.915444	0.145422
777.109526	0.145474
777.303591	0.145361
777.497637	0.145324
777.691666	0.145371
777.885676	0.145292
778.079667	0.145103
778.273641	0.144874
778.467596	0.144694
778.661533	0.144732
778.855452	0.144699
779.049352	0.144682
779.243235	0.144651
779.437099	0.144517
779.630945	0.144524
779.824773	0.144517
780.018582	0.144499
780.212373	0.144867
780.406146	0.144971
780.599901	0.145000
780.793638	0.145183
780.987356	0.145368
781.181056	0.145513
781.374738	0.145432
781.568402	0.145620
781.762047	0.145560
781.955674	0.145465
782.149283	0.145274
782.342874	0.145307
782.536447	0.145169
782.730001	0.144938
782.923537	0.144679
783.117055	0.144538
783.310555	0.144492
783.504036	0.144601
783.697499	0.144583
783.890944	0.144718
784.084371	0.144708
784.277780	0.144830
784.471170	0.144835
784.664542	0.144890
784.857896	0.145168
785.051231	0.145032
785.244549	0.144866
785.437848	0.144967
785.631129	0.144839
785.824392	0.144839
786.017636	0.144745
786.210863	0.145017
786.404071	0.145274
786.597260	0.145133
786.790432	0.145109
786.983585	0.145317
787.176721	0.145353
787.369838	0.145461
787.562936	0.145599
787.756017	0.145846
787.949079	0.145799
788.142123	0.145710
788.335149	0.145854
788.528156	0.145974
788.721146	0.145966
788.914117	0.145705
789.107070	0.145843
789.300005	0.145599
789.492921	0.145471
789.685819	0.145500
789.878699	0.145498
790.071561	0.145435
790.264405	0.145457
790.457230	0.145584
790.650037	0.145886
790.842826	0.145804
791.035597	0.146216
791.228349	0.146362
791.421084	0.146548
791.613800	0.146604
791.806497	0.146798
791.999177	0.146936
792.191838	0.147018
792.384481	0.147093
792.577106	0.147285
792.769713	0.147395
792.962301	0.147266
793.154871	0.147212
793.347423	0.147345
793.539957	0.147372
793.732473	0.147281
793.924970	0.147464
794.117449	0.147602
794.309910	0.147616
794.502353	0.147541
794.694777	0.147752
794.887183	0.147702
795.079571	0.147578
795.271941	0.147570
795.464293	0.147797
795.656626	0.147575
795.848941	0.147697
796.041238	0.147789
796.233516	0.147788
796.425777	0.147820
796.618019	0.148023
796.810243	0.148148
797.002449	0.148219
797.194636	0.148122
797.386805	0.148368
797.578956	0.148091
797.771089	0.148134
797.963204	0.148020
798.155300	0.147888
798.347378	0.147572
798.539438	0.147620
798.731480	0.147713
798.923503	0.147770
799.115509	0.147727
799.307496	0.147979
799.499465	0.148001
799.691415	0.148268
799.883348	0.148353
800.075262	0.148622
800.267158	0.148820
800.459035	0.148761
800.650895	0.148850
800.842736	0.148993
801.034559	0.149128
801.226364	0.149165
801.418150	0.149393
801.609919	0.149560
801.801669	0.149822
801.993401	0.150000
802.185114	0.150117
802.376810	0.150604
802.568487	0.150643
802.760146	0.150625
802.951787	0.150953
803.143409	0.151040
803.335014	0.151259
803.526600	0.151269
803.718168	0.151343
803.909717	0.151702
804.101249	0.151659
804.292762	0.151738
804.484257	0.152027
804.675734	0.152118
804.867192	0.152372
805.058632	0.152574
805.250054	0.152877
805.441458	0.152957
805.632844	0.153076
805.824211	0.153265
806.015561	0.153673
806.206891	0.153776
806.398204	0.153686
806.589499	0.153604
806.780775	0.153662
806.972033	0.153727
807.163273	0.153731
807.354495	0.153807
807.545698	0.153803
807.736883	0.153761
807.928050	0.153828
808.119199	0.154036
808.310329	0.153972
808.501441	0.154102
808.692535	0.153994
808.883611	0.154317
809.074669	0.154532
809.265708	0.154552
809.456729	0.154508
809.647732	0.154784
809.838717	0.154921
810.029683	0.155360
810.220632	0.155459
810.411562	0.155907
810.602474	0.155978
810.793367	0.155957
810.984242	0.156154
811.175100	0.156846
811.365938	0.156725
811.556759	0.156965
811.747562	0.157245
811.938346	0.157597
812.129112	0.157795
812.319860	0.157977
812.510589	0.158175
812.701300	0.158609
812.891994	0.158741
813.082668	0.159158
813.273325	0.159499
813.463964	0.159456
813.654584	0.159652
813.845186	0.159707
814.035769	0.159951
814.226335	0.160178
814.416882	0.160085
814.607411	0.159883
814.797922	0.160235
814.988415	0.160129
815.178889	0.160462
815.369345	0.160784
815.559783	0.161237
815.750203	0.161558
815.940605	0.161833
816.130988	0.162099
816.321353	0.162605
816.511700	0.162396
816.702028	0.162737
816.892339	0.162558
817.082631	0.162273
817.272905	0.162495
817.463161	0.162552
817.653398	0.162534
817.843617	0.162690
818.033819	0.162534
818.224001	0.162727
818.414166	0.162870
818.604312	0.163375
818.794440	0.163819
818.984550	0.163748
819.174642	0.163677
819.364716	0.163870
819.554771	0.164399
819.744808	0.165000
819.934827	0.165309
820.124827	0.165448
820.314810	0.165467
820.504774	0.165683
820.694720	0.165742
820.884647	0.166122
821.074557	0.166393
821.264448	0.166344
821.454321	0.166332
821.644176	0.166505
821.834012	0.166820
822.023831	0.166990
822.213631	0.167042
822.403413	0.167329
822.593176	0.167811
822.782922	0.167878
822.972649	0.168130
823.162358	0.168064
823.352049	0.168263
823.541721	0.168579
823.731376	0.168721
823.921012	0.168963
824.110629	0.169230
824.300229	0.169083
824.489811	0.169352
824.679374	0.169395
824.868919	0.170154
825.058445	0.170522
825.247954	0.170668
825.437444	0.171041
825.626916	0.171457
825.816370	0.171573
826.005806	0.171700
826.195223	0.171956
826.384622	0.172121
826.574003	0.171805
826.763366	0.172078
826.952711	0.172037
827.142037	0.172286
827.331345	0.172404
827.520635	0.172346
827.709906	0.172746
827.899160	0.173040
828.088395	0.173296
828.277612	0.173398
828.466810	0.173318
828.655991	0.173858
828.845153	0.174097
829.034297	0.174098
829.223423	0.174470
829.412531	0.174673
829.601620	0.174698
829.790691	0.175005
829.979744	0.175485
830.168779	0.175919
830.357795	0.175875
830.546793	0.176105
830.735773	0.176440
830.924735	0.176888
831.113679	0.177141
831.302604	0.177607
831.491511	0.177991
831.680400	0.178414
831.869271	0.178605
832.058123	0.178879
832.246957	0.179271
832.435773	0.179584
832.624571	0.179860
832.813351	0.180524
833.002112	0.180899
833.190855	0.181077
833.379580	0.181104
833.568287	0.181465
833.756975	0.181711
833.945645	0.181917
834.134297	0.182175
834.322931	0.182481
834.511547	0.182575
834.700144	0.182681
834.888723	0.182870
835.077284	0.183364
835.265826	0.183580
835.454351	0.183762
835.642857	0.183840
835.831345	0.184229
836.019815	0.184406
836.208266	0.184303
836.396699	0.184606
836.585114	0.185029
836.773511	0.184989
836.961890	0.185257
837.150250	0.185743
837.338592	0.186222
837.526916	0.186416
837.715222	0.186608
837.903510	0.187219
838.091779	0.187553
838.280030	0.187830
838.468263	0.188419
838.656477	0.188711
838.844674	0.188963
839.032852	0.189068
839.221012	0.189530
839.409153	0.189949
839.597277	0.189972
839.785382	0.190161
839.973469	0.190528
840.161538	0.190668
840.349589	0.190854
840.537621	0.191039
840.725635	0.191279
840.913631	0.191287
841.101609	0.191540
841.289568	0.192077
841.477509	0.192530
841.665432	0.192509
841.853337	0.192905
842.041224	0.193470
842.229092	0.193932
842.416942	0.194234
842.604774	0.194661
842.792588	0.194824
842.980383	0.194983
843.168160	0.195206
843.355919	0.195589
843.543660	0.195924
843.731382	0.196042
843.919087	0.196472
844.106773	0.196913
844.294441	0.197121
844.482090	0.197430
844.669722	0.198045
844.857335	0.198290
845.044930	0.198430
845.232507	0.198760
845.420065	0.199314
845.607605	0.199441
845.795127	0.199604
845.982631	0.199812
846.170117	0.200308
846.357584	0.200160
846.545033	0.200337
846.732464	0.200655
846.919877	0.201085
847.107272	0.201072
847.294648	0.201101
847.482006	0.201557
847.669346	0.201894
847.856667	0.201754
848.043971	0.202257
848.231256	0.202499
848.418523	0.202876
848.605771	0.203189
848.793002	0.203504
848.980214	0.204009
849.167408	0.204453
849.354584	0.204850
849.541742	0.205663
849.728881	0.205810
849.916002	0.206507
850.103105	0.206948
850.290190	0.207030
850.477256	0.207373
850.664304	0.208004
850.851334	0.208305
851.038346	0.209081
851.225340	0.209158
851.412315	0.209711
851.599272	0.209743
851.786211	0.210059
851.973132	0.210546
852.160034	0.211033
852.346918	0.211229
852.533784	0.211448
852.720632	0.211253
852.907462	0.211631
853.094273	0.211791
853.281066	0.212089
853.467841	0.212551
853.654598	0.212649
853.841336	0.212756
854.028056	0.212949
854.214758	0.212990
854.401442	0.213002
854.588107	0.213260
854.774755	0.213348
854.961384	0.213572
855.147995	0.213522
855.334587	0.214093
855.521162	0.213986
855.707718	0.214231
855.894256	0.214587
856.080775	0.214972
856.267277	0.215313
856.453760	0.215716
856.640225	0.216111
856.826672	0.216537
857.013101	0.216445
857.199511	0.217298
857.385903	0.217472
857.572277	0.217970
857.758633	0.218726
857.944970	0.219098
858.131290	0.219656
858.317591	0.220085
858.503873	0.220211
858.690138	0.220653
858.876384	0.220828
859.062612	0.221176
859.248822	0.221180
859.435014	0.221223
859.621188	0.221337
859.807343	0.221478
859.993480	0.221537
860.179599	0.222034
860.365699	0.222094
860.551781	0.222199
860.737846	0.222395
860.923891	0.223113
861.109919	0.223086
861.295929	0.223402
861.481920	0.223590
861.667893	0.224283
861.853848	0.224522
862.039784	0.225053
862.225702	0.225439
862.411603	0.225828
862.597484	0.225537
862.783348	0.225676
862.969193	0.225901
863.155021	0.225725
863.340830	0.225597
863.526620	0.225495
863.712393	0.225383
863.898147	0.225472
864.083883	0.225371
864.269601	0.225844
864.455301	0.226448
864.640982	0.226388
864.826645	0.226994
865.012290	0.226953
865.197917	0.227438
865.383526	0.227918
865.569116	0.228039
865.754688	0.228627
865.940242	0.228368
866.125777	0.228541
866.311295	0.228984
866.496794	0.229053
866.682275	0.229546
866.867737	0.229515
867.053182	0.229565
867.238608	0.229898
867.424016	0.229667
867.609406	0.230352
867.794778	0.230632
867.980131	0.230769
868.165466	0.230971
868.350783	0.231132
868.536082	0.231333
868.721362	0.231366
868.906625	0.231399
869.091869	0.232054
869.277094	0.232196
869.462302	0.232148
869.647491	0.232394
869.832662	0.232880
870.017815	0.233029
870.202950	0.233193
870.388066	0.233587
870.573165	0.234302
870.758245	0.234490
870.943306	0.234523
871.128350	0.234905
871.313375	0.235465
871.498382	0.235422
871.683371	0.235691
871.868342	0.236411
872.053294	0.236780
872.238229	0.236660
872.423144	0.236653
872.608042	0.236883
872.792922	0.236962
872.977783	0.236542
873.162626	0.236527
873.347451	0.236838
873.532258	0.236731
873.717046	0.236954
873.901816	0.237486
874.086568	0.237877
874.271302	0.238086
874.456017	0.238215
874.640715	0.238554
874.825394	0.239025
875.010055	0.238712
875.194697	0.238599
875.379322	0.238149
875.563928	0.237784
875.748516	0.237599
875.933085	0.237630
876.117637	0.237505
876.302170	0.237975
876.486685	0.237881
876.671182	0.238459
876.855661	0.238628
877.040121	0.238955
877.224563	0.239164
877.408987	0.239502
877.593393	0.239353
877.777780	0.239902
877.962150	0.239965
878.146501	0.240188
878.330833	0.239806
878.515148	0.239939
878.699444	0.240537
878.883722	0.241055
879.067982	0.240852
879.252224	0.241258
879.436447	0.240958
879.620653	0.240893
879.804840	0.240989
879.989008	0.241459
880.173159	0.241762
880.357291	0.241579
880.541405	0.241345
880.725501	0.242054
880.909579	0.242421
881.093638	0.242976
881.277680	0.243017
881.461703	0.243003
881.645707	0.243154
881.829694	0.242736
882.013662	0.242846
882.197612	0.243089
882.381544	0.242833
882.565458	0.242935
882.749353	0.242911
882.933230	0.243054
883.117089	0.243096
883.300930	0.242894
883.484753	0.243400
883.668557	0.243579
883.852343	0.243561
884.036111	0.243529
884.219861	0.243352
884.403592	0.242882
884.587305	0.242884
884.771000	0.243123
884.954677	0.243415
885.138335	0.243517
885.321976	0.243135
885.505598	0.242870
885.689201	0.242578
885.872787	0.242225
886.056354	0.242540
886.239904	0.242587
886.423434	0.242912
886.606947	0.242339
886.790442	0.241990
886.973918	0.242231
887.157376	0.242401
887.340816	0.243010
887.524237	0.243431
887.707641	0.243655
887.891026	0.243536
888.074393	0.243281
888.257741	0.243582
888.441072	0.243862
888.624384	0.243387
888.807678	0.243152
888.990954	0.242506
889.174211	0.242411
889.357451	0.242320
889.540672	0.242013
889.723875	0.241529
889.907059	0.241518
890.090226	0.241521
890.273374	0.242063
890.456504	0.242307
890.639616	0.242672
890.822709	0.242844
891.005785	0.242921
891.188842	0.243230
891.371881	0.243558
891.554901	0.243946
891.737904	0.244110
891.920888	0.244103
892.103854	0.243756
892.286802	0.243934
892.469731	0.243923
892.652643	0.243813
892.835536	0.243925
893.018410	0.244092
893.201267	0.243945
893.384106	0.243713
893.566926	0.244003
893.749728	0.244105
893.932511	0.244076
894.115277	0.243947
894.298024	0.243912
894.480753	0.243973
894.663464	0.243756
894.846157	0.243296
895.028831	0.243603
895.211487	0.243239
895.394125	0.243356
895.576745	0.242745
895.759346	0.242786
895.941930	0.242875
896.124495	0.242297
896.307041	0.241980
896.489570	0.242192
896.672080	0.241645
896.854573	0.241574
897.037046	0.242034
897.219502	0.241843
897.401940	0.241411
897.584359	0.241220
897.766760	0.241532
897.949143	0.241300
898.131507	0.241026
898.313854	0.241059
898.496182	0.240681
898.678492	0.240193
898.860783	0.240508
899.043057	0.240294
899.225312	0.239953
899.407549	0.239608
899.589768	0.239949
899.771968	0.240068
899.954151	0.239870
900.136315	0.239268
900.318461	0.238898
900.500588	0.238443
900.682698	0.238759
900.864789	0.238545
901.046862	0.238730
901.228917	0.238303
901.410953	0.238006
901.592971	0.237854
901.774972	0.238472
901.956953	0.238002
902.138917	0.237764
902.320862	0.236868
902.502790	0.236933
902.684699	0.236274
902.866589	0.236120
903.048462	0.235991
903.230316	0.236171
903.412152	0.235436
903.593970	0.235336
903.775770	0.235577
903.957551	0.236191
904.139314	0.235877
904.321059	0.235955
904.502786	0.235794
904.684494	0.235305
904.866185	0.234450
905.047857	0.234700
905.229510	0.234560
905.411146	0.234245
905.592763	0.233257
905.774363	0.233344
905.955943	0.233453
906.137506	0.233337
906.319051	0.232991
906.500577	0.233173
906.682085	0.232378
906.863575	0.232136
907.045046	0.231555
907.226500	0.231777
907.407935	0.231156
907.589352	0.230081
907.770750	0.229702
907.952131	0.229570
908.133493	0.228620
908.314837	0.228851
908.496163	0.228904
908.677470	0.228898
908.858760	0.228543
909.040031	0.228356
909.221284	0.228230
909.402518	0.227958
909.583735	0.227827
909.764933	0.227944
909.946113	0.227356
910.127275	0.226615
910.308418	0.226700
910.489544	0.226523
910.670651	0.225944
910.851740	0.225688
911.032810	0.225178
911.213863	0.225090
911.394897	0.224725
911.575913	0.224103
911.756911	0.223762
911.937890	0.223192
912.118851	0.222243
912.299794	0.222698
912.480719	0.222577
912.661626	0.222476
912.842514	0.221978
913.023384	0.221756
913.204236	0.221940
913.385070	0.222160
913.565886	0.221745
913.746683	0.221806
913.927462	0.220843
914.108223	0.220458
914.288965	0.220104
914.469690	0.219650
914.650396	0.219026
914.831084	0.218572
915.011754	0.217763
915.192405	0.217086
915.373038	0.216552
915.553653	0.215983
915.734250	0.215545
915.914829	0.215205
916.095389	0.214923
916.275931	0.214888
916.456455	0.214246
916.636961	0.214184
916.817448	0.213840
916.997917	0.213797
917.178368	0.213548
917.358801	0.212965
917.539216	0.212236
917.719612	0.211649
917.899990	0.211240
918.080350	0.211175
918.260692	0.210686
918.441015	0.210804
918.621320	0.210322
918.801607	0.209960
918.981876	0.209698
919.162127	0.209306
919.342359	0.208804
919.522573	0.208294
919.702769	0.208050
919.882947	0.207300
920.063106	0.206458
920.243247	0.205536
920.423370	0.205432
920.603475	0.204765
920.783562	0.204612
920.963630	0.204328
921.143680	0.203808
921.323712	0.203714
921.503725	0.203579
921.683721	0.202846
921.863698	0.202641
922.043657	0.201680
922.223598	0.202013
922.403520	0.201691
922.583424	0.201092
922.763311	0.200538
922.943178	0.199645
923.123028	0.198845
923.302859	0.198518
923.482673	0.198932
923.662467	0.198643
923.842244	0.197240
924.022003	0.196411
924.201743	0.195954
924.381465	0.195844
924.561169	0.194861
924.740854	0.194066
924.920522	0.193591
925.100171	0.192092
925.279802	0.191456
925.459414	0.191092
925.639009	0.190680
925.818585	0.190213
925.998143	0.189433
926.177683	0.188952
926.357205	0.188498
926.536708	0.187870
926.716193	0.187403
926.895660	0.186912
927.075109	0.186105
927.254539	0.185839
927.433951	0.184778
927.613345	0.183547
927.792721	0.182949
927.972079	0.182229
928.151418	0.181829
928.330739	0.181325
928.510042	0.180861
928.689327	0.180505
928.868593	0.179718
929.047841	0.179943
929.227071	0.179975
929.406283	0.179511
929.585476	0.179304
929.764652	0.178670
929.943809	0.177792
930.122948	0.177410
930.302068	0.177364
930.481171	0.176443
930.660255	0.175813
930.839321	0.174976
931.018369	0.173927
931.197398	0.173548
931.376409	0.172523
931.555402	0.172211
931.734377	0.170833
931.913334	0.169581
932.092272	0.168543
932.271192	0.167323
932.450094	0.166530
932.628978	0.166025
932.807844	0.164733
932.986691	0.163994
933.165520	0.162789
933.344331	0.162429
933.523123	0.161386
933.701898	0.161607
933.880654	0.161337
934.059392	0.160816
934.238111	0.160409
934.416813	0.159619
934.595496	0.159005
934.774161	0.158088
934.952808	0.157023
935.131437	0.156940
935.310047	0.155822
935.488639	0.154991
935.667213	0.154030
935.845769	0.153559
936.024306	0.153269
936.202825	0.153060
936.381326	0.153039
936.559809	0.152835
936.738274	0.151984
936.916720	0.151364
937.095148	0.150468
937.273558	0.150087
937.451950	0.149107
937.630323	0.148380
937.808678	0.148225
937.987015	0.147831
938.165334	0.147089
938.343635	0.146900
938.521917	0.146617
938.700181	0.146150
938.878427	0.145626
939.056655	0.145695
939.234864	0.145867
939.413055	0.145040
939.591228	0.143595
939.769383	0.143432
939.947519	0.142151
940.125638	0.141000
940.303738	0.140190
940.481820	0.140010
940.659883	0.137625
940.837929	0.136972
941.015956	0.135497
941.193965	0.135156
941.371955	0.134187
941.549928	0.133804
941.727882	0.132297
941.905818	0.132465
942.083736	0.131335
942.261636	0.131534
942.439517	0.130320
942.617380	0.129776
942.795225	0.129728
942.973052	0.128303
943.150860	0.127520
943.328651	0.126541
943.506423	0.125312
943.684176	0.123877
943.861912	0.122774
944.039629	0.121579
944.217328	0.121816
944.395009	0.120984
944.572672	0.120426
944.750317	0.120024
944.927943	0.119495
945.105551	0.117860
945.283141	0.118044
945.460712	0.117787
945.638265	0.117355
945.815801	0.115332
945.993317	0.114664
946.170816	0.113921
946.348297	0.112295
946.525759	0.112745
946.703203	0.111888
946.880629	0.110505
947.058036	0.110476
947.235425	0.109724
947.412797	0.109173
947.590149	0.108266
947.767484	0.107576
947.944800	0.107500
948.122099	0.106043
948.299379	0.105916
948.476640	0.105901
948.653884	0.104340
948.831109	0.102754
949.008316	0.102543
949.185505	0.101855
949.362676	0.101645
949.539828	0.101430
949.716962	0.101923
949.894078	0.100794
950.071176	0.100262
950.248256	0.099350
950.425317	0.100034
950.602360	0.100156
950.779385	0.099214
950.956391	0.099550
951.133380	0.095577
951.310350	0.094103
951.487302	0.094428
951.664235	0.093114
951.841151	0.092316
952.018048	0.091366
952.194927	0.089399
952.371788	0.087758
952.548631	0.086440
952.725455	0.087845
952.902261	0.087977
953.079049	0.086209
953.255819	0.085897
953.432570	0.084770
953.609303	0.082462
953.786018	0.082335
953.962715	0.082184
954.139394	0.081356
954.316054	0.080997
954.492696	0.079718
954.669320	0.079527
954.845926	0.077796
955.022513	0.078809
955.199083	0.080962
955.375634	0.080385
955.552166	0.081216
955.728681	0.079637
955.905177	0.079992
956.081655	0.080635
956.258115	0.080140
956.434557	0.079249
956.610980	0.077052
956.787385	0.076026
956.963772	0.075513
957.140141	0.072694
957.316492	0.072722
957.492824	0.071093
957.669138	0.069291
957.845434	0.069568
958.021712	0.070273
958.197971	0.071062
958.374212	0.068740
958.550435	0.067106
958.726640	0.066153
958.902826	0.065405
959.078995	0.064765
959.255145	0.065806
959.431277	0.064647
959.607390	0.063105
959.783486	0.062163
959.959563	0.062544
960.135622	0.063161
960.311662	0.065231
960.487685	0.064518
960.663689	0.065888
960.839675	0.065913
961.015643	0.063336
961.191593	0.065039
961.367524	0.064321
961.543437	0.064307
961.719332	0.064864
961.895209	0.064578
962.071067	0.064870
962.246907	0.064218
962.422730	0.062704
962.598533	0.065785
962.774319	0.064936
962.950086	0.064790
963.125835	0.063664
963.301566	0.062667
963.477279	0.063790
963.652973	0.065233
963.828650	0.065465
964.004308	0.065417
964.179947	0.065811
964.355569	0.065309
964.531172	0.065394
964.706757	0.067200
964.882324	0.066445
965.057873	0.063158
965.233403	0.061426
965.408916	0.061455
965.584410	0.060612
965.759885	0.059281
965.935343	0.059307
966.110782	0.058790
966.286203	0.057421
966.461606	0.060134
966.636991	0.062035
966.812357	0.063817
966.987705	0.062201
967.163035	0.063969
967.338347	0.064928
967.513641	0.064589
967.688916	0.066630
967.864173	0.065666
968.039412	0.063132
968.214632	0.060647
968.389835	0.057450
968.565019	0.056742
968.740185	0.054700
968.915333	0.054635
969.090462	0.054798
969.265573	0.054389
969.440667	0.056569
969.615741	0.056916
969.790798	0.059314
969.965836	0.059808
970.140856	0.059615
970.315858	0.060704
970.490842	0.061771
970.665808	0.061139
970.840755	0.061200
971.015684	0.061893
971.190595	0.062114
971.365487	0.061017
971.540362	0.060604
971.715218	0.061565
971.890056	0.061003
972.064875	0.058454
972.239677	0.060556
972.414460	0.059208
972.589225	0.059690
972.763972	0.059181
972.938700	0.060101
973.113411	0.062184
973.288103	0.062471
973.462777	0.062669
973.637432	0.062883
973.812070	0.063558
973.986689	0.064873
974.161290	0.062181
974.335873	0.063485
974.510437	0.062762
974.684984	0.064316
974.859512	0.066567
975.034022	0.067099
975.208513	0.068265
975.382987	0.065928
975.557442	0.063561
975.731879	0.066201
975.906298	0.065724
976.080698	0.066226
976.255080	0.063047
976.429445	0.060945
976.603790	0.061439
976.778118	0.059858
976.952427	0.061406
977.126719	0.064042
977.300992	0.062528
977.475246	0.062841
977.649483	0.062271
977.823701	0.064000
977.997901	0.063207
978.172083	0.061717
978.346247	0.063229
978.520392	0.062190
978.694519	0.062364
978.868628	0.062839
979.042719	0.060561
979.216791	0.059959
979.390845	0.059329
979.564882	0.060946
979.738899	0.061253
979.912899	0.058592
980.086880	0.057550
980.260843	0.055046
980.434788	0.055357
980.608715	0.057572
980.782623	0.058858
980.956514	0.058799
981.130386	0.058228
981.304240	0.058036
981.478075	0.059312
981.651892	0.059607
981.825692	0.062032
981.999472	0.059284
982.173235	0.058604
982.346980	0.059699
982.520706	0.061538
982.694414	0.061588
982.868104	0.062991
983.041775	0.064377
983.215428	0.066667
983.389064	0.066338
983.562680	0.067525
983.736279	0.066988
983.909860	0.066993
984.083422	0.065601
984.256966	0.065147
984.430491	0.063363
984.603999	0.062789
984.777488	0.061604
984.950959	0.062934
985.124412	0.062772
985.297847	0.062067
985.471263	0.061045
985.644661	0.059996
985.818041	0.061174
985.991403	0.061841
986.164747	0.061964
986.338072	0.062896
986.511379	0.062600
986.684668	0.062888
986.857938	0.063232
987.031191	0.064686
987.204425	0.065803
987.377641	0.065770
987.550839	0.066580
987.724018	0.066361
987.897179	0.064320
988.070322	0.064389
988.243447	0.063823
988.416554	0.066497
988.589642	0.064283
988.762712	0.063266
988.935764	0.063409
989.108798	0.062263
989.281813	0.061542
989.454811	0.063385
989.627790	0.059508
989.800751	0.059875
989.973693	0.058070
990.146617	0.059790
990.319524	0.060848
990.492412	0.060545
990.665281	0.063489
990.838133	0.063948
991.010966	0.063142
991.183781	0.065085
991.356578	0.065293
991.529356	0.065559
991.702117	0.064446
991.874859	0.065675
992.047583	0.065859
992.220288	0.063068
992.392976	0.064273
992.565645	0.064721
992.738296	0.065434
992.910929	0.066741
993.083543	0.067344
993.256139	0.067351
993.428718	0.065260
993.601277	0.064433
993.773819	0.064554
993.946342	0.063372
994.118848	0.063927
994.291335	0.062714
994.463803	0.061526
994.636254	0.058978
994.808686	0.059906
994.981100	0.060390
995.153496	0.061028
995.325874	0.062034
995.498233	0.061738
995.670574	0.060493
995.842897	0.061806
996.015202	0.062185
996.187488	0.063323
996.359757	0.063875
996.532007	0.065427
996.704239	0.063270
996.876452	0.062391
997.048648	0.064516
997.220825	0.065589
997.392984	0.064593
997.565124	0.064071
997.737247	0.065384
997.909351	0.063650
998.081437	0.062445
998.253505	0.064584
998.425554	0.066149
998.597586	0.064723
998.769599	0.063928
998.941594	0.065065
999.113571	0.065530
999.285529	0.065748
999.457469	0.066686
999.629391	0.066209
999.801295	0.065143
999.973181	0.064726
1000.145048	0.064778
1000.316897	0.064324
1000.488728	0.063534
1000.660541	0.063686
1000.832335	0.060720
1001.004111	0.060176
1001.175869	0.059742
1001.347609	0.060276
1001.519331	0.058572
1001.691034	0.059374
1001.862719	0.060898
1002.034386	0.062178
1002.206035	0.061421
1002.377665	0.063523
1002.549277	0.064286
1002.720871	0.065137
1002.892447	0.065880
1003.064004	0.066628
1003.235544	0.066500
1003.407065	0.067268
1003.578568	0.066764
1003.750052	0.066691
1003.921519	0.065451
1004.092967	0.063972
1004.264397	0.065603
1004.435809	0.064986
1004.607202	0.066270
1004.778577	0.065843
1004.949934	0.064194
1005.121273	0.064405
1005.292594	0.065062
1005.463896	0.065260
1005.635180	0.065043
1005.806446	0.062553
1005.977694	0.062372
1006.148923	0.061985
1006.320135	0.062743
1006.491328	0.062911
1006.662503	0.062721
1006.833659	0.061161
1007.004798	0.062885
1007.175918	0.064479
1007.347020	0.065350
1007.518103	0.065400
1007.689169	0.064414
1007.860216	0.063777
1008.031245	0.064728
1008.202256	0.064403
1008.373248	0.065943
1008.544223	0.065624
1008.715179	0.064073
1008.886117	0.065249
1009.057036	0.064931
1009.227938	0.064153
1009.398821	0.065448
1009.569686	0.063538
1009.740533	0.064376
1009.911361	0.063024
1010.082172	0.062804
1010.252964	0.064090
1010.423738	0.064024
1010.594493	0.065172
1010.765231	0.065748
1010.935950	0.065459
1011.106651	0.065629
1011.277334	0.065987
1011.447998	0.066788
1011.618645	0.065431
1011.789273	0.065398
1011.959882	0.064233
1012.130474	0.064005
1012.301048	0.064696
1012.471603	0.064854
1012.642140	0.065442
1012.812658	0.063837
1012.983159	0.064597
1013.153641	0.064590
1013.324105	0.064754
1013.494551	0.064284
1013.664979	0.065277
1013.835388	0.065449
1014.005779	0.063901
1014.176152	0.062770
1014.346507	0.064018
1014.516843	0.064112
1014.687162	0.065518
1014.857462	0.065035
1015.027744	0.066226
1015.198007	0.065846
1015.368252	0.065437
1015.538480	0.064526
1015.708689	0.066791
1015.878879	0.066631
1016.049052	0.066720
1016.219206	0.065836
1016.389342	0.065047
1016.559460	0.065287
1016.729559	0.064380
1016.899641	0.065358
1017.069704	0.068337
1017.239749	0.068581
1017.409775	0.067001
1017.579784	0.066922
1017.749774	0.067847
1017.919746	0.068106
1018.089700	0.068323
1018.259635	0.069548
1018.429553	0.069378
1018.599452	0.067573
1018.769333	0.065878
1018.939195	0.065231
1019.109040	0.064685
1019.278866	0.063598
1019.448674	0.063245
1019.618464	0.063899
1019.788235	0.060583
1019.957989	0.059916
1020.127724	0.060153
1020.297441	0.061300
1020.467139	0.061951
1020.636820	0.061949
1020.806482	0.062477
1020.976126	0.062651
1021.145752	0.062309
1021.315359	0.064760
1021.484948	0.064843
1021.654519	0.063701
1021.824072	0.064280
1021.993607	0.064491
1022.163123	0.063230
1022.332621	0.063148
1022.502101	0.063538
1022.671563	0.062379
1022.841007	0.062535
1023.010432	0.062650
1023.179839	0.064321
1023.349228	0.062230
1023.518598	0.062626
1023.687951	0.063499
1023.857285	0.062594
1024.026601	0.064641
1024.195899	0.062872
1024.365178	0.062633
1024.534439	0.061903
1024.703682	0.059152
1024.872907	0.059323
1025.042114	0.060289
1025.211302	0.062731
1025.380472	0.062380
1025.549624	0.060543
1025.718758	0.060581
1025.887873	0.059778
1026.056970	0.059605
1026.226049	0.060304
1026.395110	0.060214
1026.564153	0.058567
1026.733177	0.056549
1026.902183	0.058563
1027.071171	0.057161
1027.240141	0.060406
1027.409092	0.062603
1027.578026	0.061805
1027.746940	0.062158
1027.915837	0.061734
1028.084716	0.062978
1028.253576	0.062945
1028.422418	0.062189
1028.591242	0.062209
1028.760048	0.058860
1028.928835	0.056359
1029.097604	0.056941
1029.266355	0.056203
1029.435088	0.057940
1029.603803	0.057927
1029.772499	0.057797
1029.941177	0.057898
1030.109837	0.060110
1030.278478	0.062818
1030.447102	0.063975
1030.615707	0.065071
1030.784294	0.065839
1030.952863	0.065176
1031.121413	0.066834
1031.289945	0.066448
1031.458460	0.066773
1031.626955	0.066088
1031.795433	0.064744
1031.963892	0.063960
1032.132334	0.063641
1032.300756	0.065411
1032.469161	0.065120
1032.637548	0.063142
1032.805916	0.063881
1032.974266	0.064042
1033.142598	0.064730
1033.310911	0.064656
1033.479207	0.064206
1033.647484	0.063262
1033.815743	0.063654
1033.983983	0.063553
1034.152206	0.064073
1034.320410	0.063356
1034.488596	0.063821
1034.656764	0.062872
1034.824914	0.062847
1034.993045	0.063751
1035.161158	0.064385
1035.329253	0.063635
1035.497330	0.066058
1035.665388	0.064083
1035.833428	0.065061
1036.001450	0.064415
1036.169454	0.066688
1036.337440	0.065446
1036.505407	0.066494
1036.673356	0.066374
1036.841287	0.066246
1037.009200	0.063405
1037.177094	0.065705
1037.344970	0.066283
1037.512828	0.065807
1037.680668	0.063721
1037.848489	0.065100
1038.016293	0.063273
1038.184078	0.063977
1038.351845	0.063169
1038.519593	0.062750
1038.687324	0.061107
1038.855036	0.059288
1039.022730	0.059771
1039.190406	0.059597
1039.358063	0.059517
1039.525702	0.061170
1039.693323	0.060580
1039.860926	0.061729
1040.028511	0.063039
1040.196077	0.064798
1040.363625	0.064847
1040.531155	0.063283
1040.698667	0.064374
1040.866161	0.065200
1041.033636	0.064495
1041.201093	0.064066
1041.368532	0.063273
1041.535952	0.063056
1041.703355	0.059751
1041.870739	0.060367
1042.038105	0.061181
1042.205452	0.058888
1042.372782	0.056737
1042.540093	0.055404
1042.707386	0.055622
1042.874661	0.055032
1043.041918	0.054656
1043.209156	0.058646
1043.376376	0.058724
1043.543578	0.057395
1043.710762	0.058747
1043.877927	0.060299
1044.045074	0.061110
1044.212203	0.061445
1044.379314	0.062024
1044.546407	0.061915
1044.713481	0.058647
1044.880537	0.059749
1045.047575	0.060738
1045.214595	0.059738
1045.381596	0.059524
1045.548579	0.058683
1045.715544	0.059349
1045.882491	0.059888
1046.049420	0.059898
1046.216330	0.061783
1046.383222	0.060481
1046.550096	0.061557
1046.716951	0.062761
1046.883789	0.062639
1047.050608	0.063714
1047.217409	0.062960
1047.384192	0.062358
1047.550956	0.063077
1047.717703	0.063503
1047.884431	0.063166
1048.051140	0.061863
1048.217832	0.060843
1048.384505	0.060886
1048.551161	0.061116
1048.717798	0.060939
1048.884416	0.061590
1049.051017	0.062112
1049.217599	0.062690
1049.384163	0.062882
1049.550709	0.063305
1049.717237	0.064378
1049.883746	0.063922
1050.050237	0.063589
1050.216710	0.063918
1050.383165	0.063126
1050.549601	0.062936
1050.716019	0.061525
1050.882420	0.062141
1051.048801	0.062743
1051.215165	0.062861
1051.381510	0.064179
1051.547837	0.062920
1051.714146	0.063651
1051.880437	0.063696
1052.046709	0.063168
1052.212964	0.063135
1052.379200	0.062946
1052.545417	0.063226
1052.711617	0.061384
1052.877798	0.059859
1053.043961	0.060902
1053.210106	0.057632
1053.376233	0.057608
1053.542341	0.057429
1053.708432	0.058979
1053.874504	0.060280
1054.040557	0.058900
1054.206593	0.061246
1054.372610	0.062358
1054.538609	0.061800
1054.704590	0.064529
1054.870553	0.064063
1055.036497	0.063400
1055.202424	0.063263
1055.368331	0.062257
1055.534221	0.063767
1055.700093	0.061716
1055.865946	0.061085
1056.031781	0.061825
1056.197598	0.063008
1056.363397	0.064282
1056.529177	0.067335
1056.694939	0.068462
1056.860683	0.067638
1057.026409	0.067719
1057.192116	0.070160
1057.357806	0.070849
1057.523477	0.071822
1057.689130	0.072138
1057.854764	0.071500
1058.020381	0.068625
1058.185979	0.067156
1058.351559	0.068734
1058.517120	0.068899
1058.682664	0.068979
1058.848189	0.069264
1059.013696	0.067391
1059.179185	0.065422
1059.344656	0.067952
1059.510108	0.069484
1059.675542	0.068138
1059.840958	0.068425
1060.006356	0.067682
1060.171735	0.067963
1060.337096	0.067880
1060.502439	0.071430
1060.667764	0.070479
1060.833071	0.067307
1060.998359	0.066876
1061.163629	0.067835
1061.328881	0.065986
1061.494115	0.066086
1061.659330	0.066452
1061.824527	0.066756
1061.989706	0.063113
1062.154867	0.065063
1062.320010	0.064618
1062.485134	0.064156
1062.650240	0.064009
1062.815328	0.065636
1062.980398	0.066170
1063.145449	0.063972
1063.310482	0.063652
1063.475497	0.065129
1063.640494	0.065507
1063.805473	0.067089
1063.970433	0.067256
1064.135375	0.066250
1064.300299	0.063913
1064.465204	0.063409
1064.630092	0.064522
1064.794961	0.066729
1064.959812	0.066101
1065.124645	0.065902
1065.289459	0.067353
1065.454256	0.070132
1065.619034	0.072187
1065.783793	0.073326
1065.948535	0.073591
1066.113258	0.074593
1066.277964	0.071903
1066.442651	0.073059
1066.607319	0.072402
1066.771970	0.069240
1066.936602	0.067408
1067.101216	0.065812
1067.265812	0.068157
1067.430389	0.068657
1067.594949	0.066163
1067.759490	0.066363
1067.924013	0.066174
1068.088518	0.065247
1068.253004	0.066703
1068.417472	0.064812
1068.581922	0.065662
1068.746354	0.065522
1068.910768	0.064522
1069.075163	0.066413
1069.239540	0.067142
1069.403899	0.067537
1069.568240	0.069000
1069.732562	0.069895
1069.896866	0.069817
1070.061152	0.070190
1070.225420	0.069081
1070.389670	0.071698
1070.553901	0.069120
1070.718114	0.068508
1070.882309	0.068357
1071.046486	0.066095
1071.210644	0.064231
1071.374784	0.066049
1071.538906	0.064153
1071.703010	0.063238
1071.867096	0.062692
1072.031163	0.064541
1072.195212	0.066880
1072.359243	0.065127
1072.523256	0.069156
1072.687250	0.070406
1072.851226	0.069681
1073.015184	0.071663
1073.179124	0.072441
1073.343045	0.071179
1073.506949	0.070222
1073.670834	0.066039
1073.834701	0.067121
1073.998549	0.066595
1074.162380	0.066186
1074.326192	0.068340
1074.489986	0.068975
1074.653761	0.068275
1074.817519	0.069235
1074.981258	0.072071
1075.144979	0.072767
1075.308682	0.072419
1075.472367	0.066966
1075.636033	0.066970
1075.799681	0.065926
1075.963311	0.064355
1076.126923	0.065983
1076.290516	0.064094
1076.454092	0.061211
1076.617649	0.061387
1076.781187	0.060033
1076.944708	0.063965
1077.108210	0.062225
1077.271695	0.063619
1077.435160	0.062848
1077.598608	0.062298
1077.762038	0.063739
1077.925449	0.064876
1078.088842	0.065308
1078.252217	0.066678
1078.415573	0.066725
1078.578912	0.071170
1078.742232	0.068217
1078.905534	0.070412
1079.068817	0.066996
1079.232083	0.063557
1079.395330	0.064391
1079.558559	0.063501
1079.721770	0.064877
1079.884962	0.066293
1080.048136	0.064470
1080.211293	0.064897
1080.374430	0.063512
1080.537550	0.067286
1080.700651	0.069891
1080.863735	0.068657
1081.026800	0.070754
1081.189846	0.071382
1081.352875	0.068814
1081.515885	0.069997
1081.678877	0.070931
1081.841851	0.070185
1082.004807	0.069363
1082.167744	0.068130
1082.330663	0.068329
1082.493564	0.068867
1082.656447	0.070692
1082.819312	0.073303
1082.982158	0.073389
1083.144986	0.073225
1083.307796	0.075541
1083.470587	0.077452
1083.633361	0.081001
1083.796116	0.081370
1083.958853	0.080578
1084.121571	0.076130
1084.284272	0.076812
1084.446954	0.073652
1084.609618	0.073233
1084.772264	0.073593
1084.934892	0.071266
1085.097501	0.070647
1085.260092	0.069741
1085.422665	0.068818
1085.585220	0.070586
1085.747756	0.070436
1085.910274	0.070237
1086.072774	0.070548
1086.235256	0.069132
1086.397720	0.070296
1086.560165	0.070469
1086.722592	0.071224
1086.885001	0.073401
1087.047392	0.073349
1087.209764	0.071101
1087.372119	0.073201
1087.534455	0.073848
1087.696772	0.074808
1087.859072	0.072153
1088.021353	0.070588
1088.183616	0.070828
1088.345861	0.069914
1088.508088	0.070305
1088.670296	0.069462
1088.832486	0.070886
1088.994658	0.069487
1089.156812	0.069241
1089.318948	0.070357
1089.481065	0.073557
1089.643164	0.074264
1089.805245	0.070873
1089.967308	0.070407
1090.129352	0.069967
1090.291378	0.068266
1090.453386	0.069267
1090.615376	0.067337
1090.777347	0.069018
1090.939301	0.069271
1091.101236	0.069138
1091.263153	0.071144
1091.425051	0.069739
1091.586932	0.073373
1091.748794	0.072140
1091.910638	0.069207
1092.072463	0.069028
1092.234271	0.069677
1092.396060	0.066037
1092.557831	0.063829
1092.719584	0.064801
1092.881319	0.067096
1093.043035	0.063833
1093.204733	0.063180
1093.366413	0.066104
1093.528075	0.067495
1093.689718	0.065570
1093.851343	0.065998
1094.012950	0.067012
1094.174539	0.067278
1094.336110	0.066185
1094.497662	0.065639
1094.659196	0.068508
1094.820712	0.068220
1094.982210	0.067762
1095.143689	0.068259
1095.305151	0.068094
1095.466594	0.069884
1095.628018	0.069363
1095.789425	0.069826
1095.950813	0.070531
1096.112183	0.072381
1096.273535	0.073442
1096.434869	0.074466
1096.596184	0.074476
1096.757482	0.073117
1096.918761	0.071526
1097.080021	0.072441
1097.241264	0.073940
1097.402488	0.075676
1097.563694	0.072798
1097.724882	0.068384
1097.886052	0.068356
1098.047203	0.069731
1098.208336	0.073532
1098.369451	0.072997
1098.530548	0.075834
1098.691627	0.074933
1098.852687	0.074024
1099.013729	0.072697
1099.174753	0.076566
1099.335758	0.077694
1099.496746	0.078224
1099.657715	0.080863
1099.818666	0.081155
1099.979599	0.079497
1100.140513	0.081109
1100.301409	0.083901
1100.462287	0.085316
1100.623147	0.084480
1100.783989	0.084250
1100.944812	0.084094
1101.105617	0.082098
1101.266404	0.083568
1101.427173	0.081363
1101.587923	0.079504
1101.748656	0.076873
1101.909370	0.080080
1102.070066	0.081377
1102.230743	0.082628
1102.391403	0.084070
1102.552044	0.080202
1102.712667	0.080065
1102.873271	0.083155
1103.033858	0.080025
1103.194426	0.081421
1103.354976	0.076715
1103.515508	0.073092
1103.676021	0.069145
1103.836517	0.068259
1103.996994	0.069980
1104.157453	0.069856
1104.317893	0.067539
1104.478316	0.074898
1104.638720	0.076460
1104.799106	0.074159
1104.959474	0.082167
1105.119823	0.084763
1105.280155	0.079439
1105.440468	0.074548
1105.600763	0.070508
1105.761039	0.070487
1105.921298	0.066551
1106.081538	0.066881
1106.241760	0.068184
1106.401964	0.062451
1106.562149	0.062389
1106.722316	0.065894
1106.882465	0.069414
1107.042596	0.070652
1107.202709	0.068036
1107.362803	0.066208
1107.522879	0.067171
1107.682937	0.071702
1107.842977	0.073139
1108.002999	0.071311
1108.163002	0.071085
1108.322987	0.075279
1108.482954	0.075645
1108.642902	0.079183
1108.802833	0.077821
1108.962745	0.074430
1109.122639	0.073220
1109.282515	0.077237
1109.442372	0.076559
1109.602211	0.079789
1109.762032	0.076773
1109.921835	0.080046
1110.081620	0.080512
1110.241386	0.082882
1110.401134	0.082073
1110.560864	0.083766
1110.720576	0.077701
1110.880269	0.079192
1111.039945	0.073325
1111.199602	0.070222
1111.359240	0.070311
1111.518861	0.071606
1111.678463	0.067344
1111.838047	0.068957
1111.997613	0.065886
1112.157161	0.066030
1112.316690	0.065576
1112.476202	0.068036
1112.635695	0.070239
1112.795169	0.066627
1112.954626	0.060875
1113.114064	0.067309
1113.273484	0.067787
1113.432886	0.069019
1113.592270	0.069937
1113.751635	0.071164
1113.910983	0.073595
1114.070312	0.073108
1114.229622	0.077623
1114.388915	0.079171
1114.548189	0.075942
1114.707445	0.075211
1114.866683	0.077891
1115.025903	0.074360
1115.185104	0.072487
1115.344287	0.067384
1115.503452	0.071153
1115.662599	0.071396
1115.821727	0.070079
1115.980838	0.072316
1116.139930	0.069171
1116.299004	0.067510
1116.458059	0.070931
1116.617097	0.072334
1116.776116	0.074580
1116.935117	0.073291
1117.094099	0.075747
1117.253064	0.081452
1117.412010	0.080148
1117.570938	0.084031
1117.729848	0.085237
1117.888740	0.088196
1118.047613	0.088376
1118.206468	0.090558
1118.365305	0.089047
1118.524124	0.085922
1118.682924	0.083130
1118.841707	0.091438
1119.000471	0.090919
1119.159216	0.087360
1119.317944	0.089296
1119.476653	0.086614
1119.635344	0.085587
1119.794017	0.085577
1119.952672	0.086827
1120.111308	0.086940
1120.269927	0.080631
1120.428527	0.083500
1120.587108	0.090724
1120.745672	0.087676
1120.904217	0.089912
1121.062744	0.086270
1121.221253	0.087179
1121.379744	0.083467
1121.538216	0.080751
1121.696671	0.077546
1121.855107	0.074648
1122.013524	0.069615
1122.171924	0.067631
1122.330305	0.070197
1122.488668	0.072185
1122.647013	0.073556
1122.805340	0.073393
1122.963648	0.081765
1123.121938	0.083282
1123.280210	0.082674
1123.438464	0.082107
1123.596700	0.083408
1123.754917	0.081624
1123.913116	0.082652
1124.071297	0.084105
1124.229459	0.085971
1124.387604	0.076503
1124.545730	0.076888
1124.703838	0.077512
1124.861928	0.080360
1125.019999	0.082537
1125.178052	0.082485
1125.336088	0.085308
1125.494104	0.083379
1125.652103	0.082205
1125.810083	0.084940
1125.968045	0.084450
1126.125989	0.079428
1126.283915	0.077839
1126.441823	0.075998
1126.599712	0.074834
1126.757583	0.077160
1126.915436	0.074275
1127.073270	0.071225
1127.231087	0.069841
1127.388885	0.069552
1127.546665	0.075095
1127.704426	0.072513
1127.862170	0.072857
1128.019895	0.078201
1128.177602	0.074228
1128.335291	0.073430
1128.492961	0.081760
1128.650614	0.087544
1128.808248	0.089880
1128.965864	0.087290
1129.123461	0.088644
1129.281041	0.086681
1129.438602	0.082566
1129.596145	0.082390
1129.753670	0.085877
1129.911176	0.081237
1130.068665	0.073325
1130.226135	0.068767
1130.383587	0.074588
1130.541020	0.076484
1130.698436	0.073605
1130.855833	0.071924
1131.013212	0.074967
1131.170573	0.076172
1131.327915	0.076025
1131.485239	0.080863
1131.642545	0.086704
1131.799833	0.083700
1131.957103	0.080860
1132.114354	0.079277
1132.271588	0.078738
1132.428803	0.073291
1132.585999	0.073688
1132.743178	0.074319
1132.900338	0.079791
1133.057480	0.076321
1133.214604	0.069788
1133.371710	0.066012
1133.528797	0.073603
1133.685866	0.078808
1133.842917	0.080391
1133.999950	0.074442
1134.156964	0.075562
1134.313960	0.069037
1134.470938	0.073526
1134.627898	0.081253
1134.784840	0.082915
1134.941763	0.080933
1135.098668	0.077524
1135.255555	0.078421
1135.412424	0.080237
1135.569274	0.074113
1135.726107	0.073694
1135.882921	0.074520
1136.039716	0.073861
1136.196494	0.075803
1136.353253	0.075184
1136.509995	0.082405
1136.666717	0.082756
1136.823422	0.083553
1136.980109	0.085571
1137.136777	0.088916
1137.293427	0.086637
1137.450059	0.083382
1137.606672	0.083897
1137.763267	0.085228
1137.919844	0.077503
1138.076403	0.076283
1138.232944	0.075496
1138.389466	0.079933
1138.545971	0.075639
1138.702457	0.075640
1138.858924	0.077220
1139.015374	0.078560
1139.171805	0.072483
1139.328218	0.067380
1139.484613	0.069325
1139.640990	0.067493
1139.797348	0.066100
1139.953688	0.071565
1140.110010	0.066839
1140.266314	0.057807
1140.422600	0.055356
1140.578867	0.056135
1140.735116	0.059677
1140.891347	0.052748
1141.047559	0.060321
1141.203754	0.064766
1141.359930	0.063719
1141.516088	0.068784
1141.672228	0.075587
1141.828349	0.075762
1141.984452	0.076925
1142.140537	0.080753
1142.296604	0.082565
1142.452653	0.079221
1142.608683	0.073467
1142.764695	0.075919
1142.920689	0.075172
1143.076665	0.073929
1143.232622	0.069718
1143.388562	0.071832
1143.544483	0.065487
1143.700385	0.066076
1143.856270	0.069527
1144.012136	0.072656
1144.167985	0.070158
1144.323814	0.064949
1144.479626	0.067130
1144.635420	0.072692
1144.791195	0.068618
1144.946952	0.077329
1145.102691	0.077789
1145.258411	0.070964
1145.414113	0.069267
1145.569798	0.070971
1145.725463	0.076467
1145.881111	0.078850
1146.036741	0.080018
1146.192352	0.082663
1146.347945	0.082078
1146.503519	0.082368
1146.659076	0.083861
1146.814614	0.084242
1146.970134	0.082378
1147.125636	0.074292
1147.281120	0.071480
1147.436585	0.066394
1147.592032	0.067706
1147.747461	0.065812
1147.902872	0.069740
1148.058265	0.069385
1148.213639	0.067656
1148.368995	0.069974
1148.524333	0.071042
1148.679653	0.074793
1148.834954	0.082227
1148.990237	0.087248
1149.145502	0.080502
1149.300749	0.080674
1149.455977	0.087682
1149.611188	0.088142
1149.766380	0.086041
1149.921553	0.085358
1150.076709	0.083256
1150.231846	0.081877
1150.386966	0.077239
1150.542066	0.083213
1150.697149	0.078517
1150.852214	0.065481
1151.007260	0.063537
1151.162288	0.071105
1151.317298	0.081907
1151.472289	0.072225
1151.627263	0.074067
1151.782218	0.070738
1151.937155	0.076173
1152.092073	0.081485
1152.246974	0.082949
1152.401856	0.079963
1152.556720	0.077774
1152.711566	0.073441
1152.866393	0.084127
1153.021203	0.078470
1153.175994	0.079836
1153.330767	0.073129
1153.485521	0.068377
1153.640258	0.069488
1153.794976	0.068404
1153.949676	0.057394
1154.104358	0.060076
1154.259021	0.051205
1154.413667	0.057848
1154.568294	0.055228
1154.722903	0.048716
1154.877493	0.047702
1155.032066	0.055601
1155.186620	0.071868
1155.341156	0.072407
1155.495674	0.062049
1155.650173	0.067931
1155.804654	0.056687
1155.959118	0.065678
1156.113562	0.067992
1156.267989	0.069363
1156.422397	0.067077
1156.576788	0.056259
1156.731160	0.058623
1156.885513	0.057511
1157.039849	0.057327
1157.194166	0.060603
1157.348465	0.062574
1157.502746	0.067398
1157.657009	0.067732
1157.811253	0.065190
1157.965479	0.069428
1158.119687	0.068630
1158.273877	0.078959
1158.428048	0.086879
1158.582201	0.099051
1158.736337	0.089630
1158.890453	0.095848
1159.044552	0.104689
1159.198632	0.097765
1159.352694	0.097925
1159.506738	0.101220
1159.660764	0.107128
1159.814771	0.102705
1159.968761	0.092977
1160.122732	0.099398
1160.276685	0.092586
1160.430619	0.081374
1160.584535	0.089764
1160.738434	0.077170
1160.892313	0.076958
1161.046175	0.063992
1161.200019	0.059829
1161.353844	0.057187
1161.507651	0.049426
1161.661440	0.053803
1161.815210	0.050949
1161.968962	0.054317
1162.122697	0.065212
1162.276412	0.066220
1162.430110	0.077408
1162.583789	0.086446
1162.737451	0.080661
1162.891094	0.084547
1163.044718	0.082163
1163.198325	0.093636
1163.351913	0.089442
1163.505483	0.089873
1163.659035	0.089846
1163.812569	0.085604
1163.966084	0.076173
1164.119581	0.084889
1164.273060	0.089760
1164.426521	0.087910
1164.579964	0.084842
1164.733388	0.089389
1164.886794	0.098287
1165.040182	0.102013
1165.193551	0.102832
1165.346903	0.110051
1165.500236	0.115255
1165.653551	0.107316
1165.806848	0.112620
1165.960126	0.110271
1166.113386	0.107144
1166.266628	0.094665
1166.419852	0.088774
1166.573058	0.077052
1166.726245	0.073744
1166.879414	0.067945
1167.032565	0.080982
1167.185698	0.069505
1167.338812	0.070336
1167.491909	0.066291
1167.644987	0.062420
1167.798046	0.062737
1167.951088	0.071428
1168.104111	0.071328
1168.257117	0.069860
1168.410103	0.064275
1168.563072	0.072210
1168.716023	0.078249
1168.868955	0.081304
1169.021869	0.089725
1169.174765	0.076692
1169.327642	0.078131
1169.480501	0.078067
1169.633343	0.090352
1169.786165	0.083959
1169.938970	0.087479
1170.091757	0.087270
1170.244525	0.080761
1170.397275	0.068072
1170.550007	0.077402
1170.702720	0.077999
1170.855415	0.075831
1171.008092	0.066020
1171.160751	0.068128
1171.313392	0.062144
1171.466014	0.061333
1171.618619	0.066634
1171.771205	0.066634
1171.923772	0.066634
