sample name	sample
index	612
start time	 03-19-2021  01:59:51 PM


Wavelength (nm)	Absorbance
494.344910	-0.144919
494.563924	-0.144919
494.782919	-0.144919
495.001897	-0.067545
495.220856	0.023692
495.439797	0.059950
495.658719	0.069617
495.877624	0.174535
496.096510	0.111937
496.315378	0.035329
496.534227	-0.013471
496.753059	-0.024465
496.971872	-0.037345
497.190667	0.036723
497.409444	0.045137
497.628203	0.051827
497.846943	0.052708
498.065665	0.054660
498.284369	0.055409
498.503055	0.057177
498.721723	0.056517
498.940372	0.057060
499.159003	0.056917
499.377616	0.057464
499.596210	0.057864
499.814787	0.057271
500.033345	0.057286
500.251885	0.057549
500.470406	0.056447
500.688910	0.056669
500.907395	0.056466
501.125862	0.056111
501.344311	0.055484
501.562742	0.054772
501.781154	0.055312
501.999548	0.054574
502.217924	0.054247
502.436282	0.054021
502.654621	0.054249
502.872942	0.054843
503.091245	0.055337
503.309530	0.055524
503.527797	0.055936
503.746045	0.056052
503.964275	0.055931
504.182487	0.055512
504.400681	0.054994
504.618856	0.054837
504.837013	0.053905
505.055152	0.053600
505.273273	0.054970
505.491376	0.054722
505.709460	0.055428
505.927526	0.055764
506.145574	0.056339
506.363604	0.057418
506.581615	0.058136
506.799608	0.057797
507.017583	0.058096
507.235540	0.056983
507.453478	0.056977
507.671399	0.056659
507.889301	0.057539
508.107185	0.057338
508.325050	0.056866
508.542898	0.056370
508.760727	0.056510
508.978538	0.056366
509.196330	0.056783
509.414105	0.055954
509.631861	0.055447
509.849599	0.055617
510.067319	0.056058
510.285021	0.056812
510.502704	0.056832
510.720369	0.057043
510.938016	0.057111
511.155645	0.056811
511.373255	0.057472
511.590848	0.057638
511.808422	0.057190
512.025977	0.057453
512.243515	0.057656
512.461034	0.057246
512.678536	0.057416
512.896018	0.057281
513.113483	0.058288
513.330930	0.058132
513.548358	0.057585
513.765768	0.057296
513.983160	0.056432
514.200533	0.056219
514.417889	0.056637
514.635226	0.056518
514.852545	0.056847
515.069845	0.056027
515.287128	0.055763
515.504392	0.056476
515.721638	0.057126
515.938866	0.056940
516.156075	0.056107
516.373267	0.056040
516.590440	0.056079
516.807594	0.055926
517.024731	0.056284
517.241850	0.056757
517.458950	0.056931
517.676032	0.056239
517.893095	0.056051
518.110141	0.057017
518.327168	0.057370
518.544177	0.056820
518.761168	0.057680
518.978141	0.057515
519.195095	0.058221
519.412031	0.058231
519.628949	0.058600
519.845849	0.059653
520.062731	0.059847
520.279594	0.059853
520.496439	0.059801
520.713266	0.059165
520.930074	0.058534
521.146865	0.058779
521.363637	0.058428
521.580391	0.058670
521.797127	0.057883
522.013844	0.057319
522.230543	0.057914
522.447224	0.058380
522.663887	0.057957
522.880532	0.058156
523.097158	0.057578
523.313766	0.057750
523.530356	0.057459
523.746928	0.058311
523.963481	0.058449
524.180017	0.058309
524.396534	0.058845
524.613032	0.059422
524.829513	0.059791
525.045975	0.060329
525.262420	0.060455
525.478845	0.060472
525.695253	0.060304
525.911643	0.060694
526.128014	0.061042
526.344367	0.061579
526.560702	0.061679
526.777018	0.061861
526.993316	0.061323
527.209597	0.061725
527.425858	0.062137
527.642102	0.062465
527.858328	0.061982
528.074535	0.061534
528.290724	0.061050
528.506894	0.060616
528.723047	0.060573
528.939181	0.060703
529.155297	0.060648
529.371395	0.060704
529.587475	0.060477
529.803536	0.060656
530.019579	0.060552
530.235604	0.060830
530.451611	0.061157
530.667600	0.061207
530.883570	0.061331
531.099522	0.061201
531.315456	0.061549
531.531372	0.062063
531.747269	0.062419
531.963148	0.062535
532.179009	0.062227
532.394852	0.062272
532.610676	0.062645
532.826482	0.062884
533.042271	0.062814
533.258040	0.062371
533.473792	0.062323
533.689525	0.062745
533.905240	0.063068
534.120937	0.063486
534.336616	0.064154
534.552277	0.064169
534.767919	0.064263
534.983543	0.064880
535.199149	0.065333
535.414736	0.065538
535.630306	0.064923
535.845857	0.064920
536.061390	0.064470
536.276904	0.064296
536.492401	0.064249
536.707879	0.064815
536.923339	0.064863
537.138781	0.064776
537.354204	0.064201
537.569610	0.064639
537.784997	0.064561
538.000366	0.065034
538.215716	0.065351
538.431049	0.065873
538.646363	0.065215
538.861659	0.065190
539.076937	0.065157
539.292196	0.065864
539.507438	0.065799
539.722661	0.065958
539.937866	0.066189
540.153052	0.065684
540.368221	0.065812
540.583371	0.066165
540.798503	0.065954
541.013617	0.066098
541.228712	0.065980
541.443789	0.065873
541.658848	0.066211
541.873889	0.065968
542.088912	0.066194
542.303916	0.065707
542.518902	0.065750
542.733870	0.066202
542.948820	0.066351
543.163752	0.066183
543.378665	0.066443
543.593560	0.066161
543.808437	0.066493
544.023295	0.066587
544.238136	0.066853
544.452958	0.067003
544.667762	0.066489
544.882548	0.066356
545.097315	0.066281
545.312064	0.066005
545.526795	0.066096
545.741508	0.066144
545.956203	0.066555
546.170879	0.067026
546.385537	0.066777
546.600177	0.067408
546.814799	0.067653
547.029402	0.068148
547.243988	0.068485
547.458555	0.068600
547.673103	0.068559
547.887634	0.068564
548.102146	0.068237
548.316640	0.068244
548.531116	0.068027
548.745574	0.068211
548.960013	0.068124
549.174435	0.068483
549.388838	0.068867
549.603222	0.068888
549.817589	0.068848
550.031937	0.068905
550.246267	0.069318
550.460579	0.069476
550.674873	0.069180
550.889148	0.068919
551.103405	0.068472
551.317644	0.068317
551.531865	0.068509
551.746068	0.068526
551.960252	0.068514
552.174418	0.068420
552.388566	0.068712
552.602696	0.069306
552.816807	0.069859
553.030900	0.070509
553.244975	0.070659
553.459032	0.070570
553.673070	0.070691
553.887091	0.070638
554.101093	0.071022
554.315077	0.071055
554.529042	0.070978
554.742990	0.071026
554.956919	0.070669
555.170830	0.070729
555.384722	0.071129
555.598597	0.071445
555.812453	0.071866
556.026291	0.071679
556.240111	0.071528
556.453913	0.071500
556.667696	0.071541
556.881461	0.071604
557.095208	0.071757
557.308937	0.071375
557.522647	0.071198
557.736339	0.070917
557.950013	0.071055
558.163669	0.070770
558.377307	0.070799
558.590926	0.070959
558.804527	0.071362
559.018110	0.070976
559.231675	0.071265
559.445221	0.071562
559.658749	0.072013
559.872259	0.071748
560.085751	0.071862
560.299225	0.071888
560.512680	0.071419
560.726117	0.071352
560.939536	0.071700
561.152937	0.071593
561.366319	0.071083
561.579683	0.071160
561.793029	0.071164
562.006357	0.071258
562.219667	0.071254
562.432958	0.071777
562.646231	0.071864
562.859486	0.071815
563.072723	0.071797
563.285941	0.072132
563.499141	0.072098
563.712323	0.072581
563.925487	0.072744
564.138632	0.072999
564.351760	0.072900
564.564869	0.073053
564.777960	0.073184
564.991032	0.073590
565.204087	0.073499
565.417123	0.073354
565.630141	0.073230
565.843140	0.073208
566.056122	0.073235
566.269085	0.073036
566.482030	0.072786
566.694957	0.072653
566.907866	0.072224
567.120756	0.072160
567.333628	0.072250
567.546482	0.072400
567.759318	0.072537
567.972135	0.072415
568.184935	0.072407
568.397716	0.072339
568.610478	0.072501
568.823223	0.072849
569.035949	0.073097
569.248657	0.073233
569.461347	0.073256
569.674019	0.073482
569.886672	0.073657
570.099308	0.073959
570.311925	0.074051
570.524523	0.074046
570.737104	0.074093
570.949666	0.074244
571.162210	0.074038
571.374736	0.073994
571.587244	0.073966
571.799733	0.074208
572.012205	0.074383
572.224658	0.074383
572.437092	0.074738
572.649509	0.074544
572.861907	0.074326
573.074287	0.074765
573.286649	0.074922
573.498993	0.075028
573.711318	0.074845
573.923625	0.074753
574.135914	0.075047
574.348185	0.074667
574.560438	0.075092
574.772672	0.075209
574.984888	0.075359
575.197086	0.075223
575.409266	0.075141
575.621427	0.075104
575.833570	0.075104
576.045695	0.075066
576.257802	0.075370
576.469890	0.075325
576.681961	0.075536
576.894013	0.075104
577.106046	0.075299
577.318062	0.075482
577.530059	0.075619
577.742039	0.075670
577.954000	0.075767
578.165942	0.075519
578.377867	0.075692
578.589773	0.075608
578.801661	0.075732
579.013531	0.075716
579.225382	0.076141
579.437216	0.075828
579.649031	0.076029
579.860828	0.076271
580.072606	0.076536
580.284367	0.076404
580.496109	0.076376
580.707833	0.076558
580.919539	0.076665
581.131227	0.076119
581.342896	0.076408
581.554547	0.076606
581.766180	0.076369
581.977795	0.075996
582.189391	0.075831
582.400969	0.075826
582.612529	0.075568
582.824071	0.075466
583.035595	0.075601
583.247100	0.075745
583.458587	0.075460
583.670056	0.075259
583.881506	0.075596
584.092939	0.075826
584.304353	0.076047
584.515749	0.076217
584.727127	0.076160
584.938486	0.076102
585.149828	0.075958
585.361151	0.076043
585.572456	0.076079
585.783742	0.076092
585.995011	0.075981
586.206261	0.075911
586.417493	0.076158
586.628706	0.076487
586.839902	0.076624
587.051079	0.076607
587.262238	0.076803
587.473379	0.077061
587.684502	0.077126
587.895606	0.077089
588.106692	0.077522
588.317760	0.077411
588.528810	0.077300
588.739841	0.077399
588.950855	0.077764
589.161850	0.077725
589.372827	0.077962
589.583785	0.078343
589.794726	0.078872
590.005648	0.078643
590.216552	0.078915
590.427437	0.079231
590.638305	0.079232
590.849154	0.079332
591.059985	0.079538
591.270798	0.079480
591.481592	0.079183
591.692369	0.079141
591.903127	0.079207
592.113867	0.079241
592.324588	0.079043
592.535292	0.079303
592.745977	0.079357
592.956644	0.079242
593.167293	0.079332
593.377923	0.079562
593.588536	0.079603
593.799130	0.079481
594.009706	0.079382
594.220263	0.079299
594.430803	0.078868
594.641324	0.078851
594.851827	0.079188
595.062312	0.079424
595.272778	0.079549
595.483227	0.079410
595.693657	0.079897
595.904069	0.080069
596.114462	0.080200
596.324838	0.080541
596.535195	0.080433
596.745534	0.080227
596.955855	0.080138
597.166157	0.080002
597.376441	0.080209
597.586707	0.079665
597.796955	0.079647
598.007185	0.079833
598.217396	0.079996
598.427589	0.080370
598.637764	0.080575
598.847921	0.080646
599.058060	0.080539
599.268180	0.080480
599.478282	0.080866
599.688366	0.080927
599.898431	0.080828
600.108479	0.080739
600.318508	0.080538
600.528519	0.080372
600.738511	0.080083
600.948486	0.080584
601.158442	0.080916
601.368380	0.081147
601.578300	0.081085
601.788202	0.081353
601.998085	0.081469
602.207950	0.081432
602.417797	0.081499
602.627626	0.081645
602.837436	0.081533
603.047228	0.081321
603.257002	0.080963
603.466758	0.081102
603.676496	0.080865
603.886215	0.080622
604.095916	0.080454
604.305599	0.080660
604.515264	0.080719
604.724910	0.080622
604.934538	0.080901
605.144148	0.081096
605.353740	0.081120
605.563314	0.081188
605.772869	0.081387
605.982406	0.081624
606.191925	0.081682
606.401425	0.081793
606.610908	0.081998
606.820372	0.081864
607.029818	0.081910
607.239246	0.081899
607.448655	0.082081
607.658047	0.082221
607.867420	0.082382
608.076775	0.082216
608.286111	0.082362
608.495430	0.082218
608.704730	0.082177
608.914012	0.082311
609.123275	0.081990
609.332521	0.081825
609.541748	0.081723
609.750957	0.081722
609.960148	0.081690
610.169321	0.081535
610.378475	0.081621
610.587611	0.081881
610.796729	0.082030
611.005829	0.082421
611.214910	0.082607
611.423974	0.082660
611.633019	0.082573
611.842045	0.082983
612.051054	0.083140
612.260044	0.083152
612.469017	0.083172
612.677970	0.082978
612.886906	0.083073
613.095824	0.083175
613.304723	0.083329
613.513604	0.083418
613.722467	0.083318
613.931311	0.083166
614.140138	0.083328
614.348946	0.083361
614.557736	0.083209
614.766507	0.083031
614.975261	0.082929
615.183996	0.082819
615.392713	0.082987
615.601412	0.083085
615.810092	0.083313
616.018754	0.083299
616.227399	0.083227
616.436024	0.083599
616.644632	0.083567
616.853222	0.083813
617.061793	0.083934
617.270346	0.083706
617.478880	0.083417
617.687397	0.083545
617.895895	0.083415
618.104375	0.083280
618.312837	0.083281
618.521281	0.083584
618.729706	0.083486
618.938113	0.083379
619.146502	0.083753
619.354873	0.083825
619.563226	0.083800
619.771560	0.083787
619.979876	0.084088
620.188174	0.084016
620.396453	0.083873
620.604715	0.083688
620.812958	0.083750
621.021183	0.083537
621.229390	0.083547
621.437578	0.083571
621.645748	0.083667
621.853900	0.083581
622.062034	0.083488
622.270150	0.083565
622.478247	0.083796
622.686326	0.084173
622.894387	0.084236
623.102430	0.084712
623.310454	0.084522
623.518461	0.084784
623.726449	0.084758
623.934418	0.084914
624.142370	0.084786
624.350303	0.084990
624.558218	0.084822
624.766115	0.084845
624.973994	0.084510
625.181855	0.084645
625.389697	0.084654
625.597521	0.084896
625.805327	0.084932
626.013114	0.085052
626.220883	0.084797
626.428634	0.084721
626.636367	0.084708
626.844082	0.084871
627.051778	0.085098
627.259457	0.085165
627.467117	0.084987
627.674758	0.085080
627.882382	0.085156
628.089987	0.085416
628.297574	0.085507
628.505143	0.085727
628.712694	0.085754
628.920226	0.085537
629.127740	0.085493
629.335236	0.085548
629.542714	0.085515
629.750174	0.085598
629.957615	0.085795
630.165038	0.085841
630.372443	0.085903
630.579829	0.085722
630.787198	0.085782
630.994548	0.085659
631.201880	0.085678
631.409194	0.085799
631.616489	0.085889
631.823766	0.085593
632.031025	0.085716
632.238266	0.085536
632.445489	0.085733
632.652693	0.085773
632.859879	0.085791
633.067047	0.085895
633.274197	0.085878
633.481329	0.085815
633.688442	0.085994
633.895537	0.086152
634.102614	0.086278
634.309672	0.086160
634.516713	0.086175
634.723735	0.086439
634.930739	0.086392
635.137724	0.086440
635.344692	0.086608
635.551641	0.086689
635.758572	0.086624
635.965485	0.086766
636.172379	0.087091
636.379256	0.087181
636.586114	0.087175
636.792954	0.087392
636.999775	0.087283
637.206579	0.087557
637.413364	0.087661
637.620131	0.087804
637.826880	0.087994
638.033610	0.087845
638.240323	0.088013
638.447017	0.088066
638.653692	0.088130
638.860350	0.088437
639.066990	0.088224
639.273611	0.088113
639.480214	0.088268
639.686798	0.087993
639.893365	0.088011
640.099913	0.088044
640.306443	0.088017
640.512955	0.087838
640.719449	0.087718
640.925924	0.087807
641.132381	0.087865
641.338820	0.087833
641.545241	0.087953
641.751644	0.087998
641.958028	0.088183
642.164394	0.088408
642.370742	0.088528
642.577071	0.088703
642.783383	0.088808
642.989676	0.089050
643.195951	0.088948
643.402207	0.088984
643.608446	0.089171
643.814666	0.089046
644.020868	0.088833
644.227052	0.088985
644.433218	0.089117
644.639365	0.089090
644.845494	0.088844
645.051605	0.088912
645.257698	0.088955
645.463772	0.088965
645.669828	0.089051
645.875866	0.089201
646.081886	0.089242
646.287888	0.089030
646.493871	0.089134
646.699836	0.089213
646.905783	0.089169
647.111712	0.089427
647.317622	0.089481
647.523514	0.089679
647.729388	0.089721
647.935244	0.089922
648.141082	0.090189
648.346901	0.090240
648.552702	0.090358
648.758485	0.090506
648.964250	0.090567
649.169996	0.090638
649.375724	0.090456
649.581434	0.090441
649.787126	0.090092
649.992800	0.089889
650.198455	0.090047
650.404092	0.090118
650.609711	0.090110
650.815311	0.089958
651.020894	0.089827
651.226458	0.089984
651.432004	0.090157
651.637532	0.090531
651.843041	0.090712
652.048532	0.090585
652.254006	0.090703
652.459460	0.090652
652.664897	0.090849
652.870315	0.091219
653.075716	0.091191
653.281097	0.091134
653.486461	0.090910
653.691807	0.090894
653.897134	0.090940
654.102443	0.090872
654.307734	0.091035
654.513006	0.091049
654.718261	0.090948
654.923497	0.091087
655.128715	0.091276
655.333915	0.091278
655.539096	0.091436
655.744259	0.091690
655.949404	0.091600
656.154531	0.091589
656.359640	0.091537
656.564730	0.091661
656.769802	0.091715
656.974856	0.091741
657.179892	0.092049
657.384909	0.092114
657.589908	0.092117
657.794889	0.092426
657.999852	0.092447
658.204797	0.092628
658.409723	0.092586
658.614631	0.092678
658.819521	0.092741
659.024393	0.092772
659.229246	0.092728
659.434081	0.092674
659.638898	0.092642
659.843697	0.092675
660.048478	0.092640
660.253240	0.092505
660.457984	0.092403
660.662710	0.092573
660.867417	0.092515
661.072107	0.092598
661.276778	0.092663
661.481431	0.092626
661.686066	0.092744
661.890682	0.092651
662.095281	0.092896
662.299861	0.092888
662.504422	0.093017
662.708966	0.093132
662.913491	0.093273
663.117999	0.093428
663.322488	0.093661
663.526958	0.093787
663.731411	0.093986
663.935845	0.094195
664.140261	0.094358
664.344659	0.094243
664.549038	0.094256
664.753400	0.094305
664.957743	0.094277
665.162068	0.094166
665.366375	0.094243
665.570663	0.094238
665.774933	0.094117
665.979185	0.094182
666.183419	0.094118
666.387635	0.094419
666.591832	0.094448
666.796011	0.094614
667.000172	0.094761
667.204315	0.094867
667.408439	0.095114
667.612545	0.095023
667.816634	0.095043
668.020703	0.095198
668.224755	0.095023
668.428788	0.095074
668.632803	0.094871
668.836800	0.094909
669.040779	0.094799
669.244739	0.094652
669.448681	0.094927
669.652605	0.095039
669.856511	0.095053
670.060399	0.095168
670.264268	0.095236
670.468119	0.095275
670.671952	0.095394
670.875767	0.095498
671.079563	0.095719
671.283341	0.095711
671.487101	0.095781
671.690843	0.095969
671.894567	0.096054
672.098272	0.096156
672.301959	0.096365
672.505628	0.096347
672.709278	0.096348
672.912911	0.096167
673.116525	0.096076
673.320121	0.096038
673.523699	0.095826
673.727258	0.095710
673.930799	0.095745
674.134322	0.095819
674.337827	0.095856
674.541314	0.096057
674.744782	0.096144
674.948232	0.096504
675.151664	0.096540
675.355078	0.096696
675.558474	0.096911
675.761851	0.096925
675.965210	0.096946
676.168551	0.096904
676.371873	0.097018
676.575178	0.097024
676.778464	0.096961
676.981732	0.097146
677.184981	0.097282
677.388213	0.097314
677.591426	0.097473
677.794621	0.097592
677.997798	0.097822
678.200956	0.097842
678.404097	0.098019
678.607219	0.098031
678.810323	0.098131
679.013408	0.097993
679.216476	0.098021
679.419525	0.097917
679.622556	0.097845
679.825569	0.097765
680.028563	0.097634
680.231540	0.097647
680.434498	0.097786
680.637438	0.097707
680.840359	0.097817
681.043263	0.097797
681.246148	0.097909
681.449015	0.097828
681.651864	0.097893
681.854694	0.097936
682.057506	0.098065
682.260301	0.097983
682.463076	0.098060
682.665834	0.098139
682.868573	0.098270
683.071295	0.098328
683.273998	0.098509
683.476682	0.098545
683.679349	0.098610
683.881997	0.098582
684.084627	0.098788
684.287239	0.098922
684.489833	0.098821
684.692408	0.098766
684.894965	0.098836
685.097504	0.098804
685.300025	0.099008
685.502527	0.098957
685.705012	0.099075
685.907478	0.099036
686.109925	0.099039
686.312355	0.099234
686.514766	0.099299
686.717159	0.099097
686.919534	0.099342
687.121891	0.099258
687.324230	0.099410
687.526550	0.099575
687.728852	0.099476
687.931136	0.099467
688.133401	0.099591
688.335649	0.099678
688.537878	0.099905
688.740089	0.100006
688.942281	0.100098
689.144456	0.100197
689.346612	0.100108
689.548750	0.100302
689.750870	0.100381
689.952971	0.100294
690.155055	0.100368
690.357120	0.100401
690.559167	0.100343
690.761195	0.100412
690.963206	0.100588
691.165198	0.100684
691.367172	0.100641
691.569128	0.100570
691.771065	0.100783
691.972984	0.100840
692.174885	0.100906
692.376768	0.100818
692.578633	0.100728
692.780479	0.100635
692.982308	0.100630
693.184118	0.100742
693.385909	0.100867
693.587683	0.100858
693.789438	0.100847
693.991175	0.100912
694.192894	0.101247
694.394595	0.101494
694.596277	0.101464
694.797941	0.101378
694.999587	0.101530
695.201215	0.101543
695.402824	0.101518
695.604416	0.101601
695.805989	0.101632
696.007543	0.101487
696.209080	0.101317
696.410598	0.101365
696.612099	0.101561
696.813580	0.101337
697.015044	0.101246
697.216490	0.101225
697.417917	0.101138
697.619326	0.101163
697.820717	0.101200
698.022089	0.101217
698.223444	0.101310
698.424780	0.101328
698.626098	0.101440
698.827397	0.101682
699.028679	0.101756
699.229942	0.101697
699.431187	0.101591
699.632414	0.101719
699.833622	0.101720
700.034813	0.101847
700.235985	0.101888
700.437139	0.102063
700.638274	0.102127
700.839392	0.102376
701.040491	0.102712
701.241572	0.102898
701.442635	0.102731
701.643679	0.102955
701.844706	0.103029
702.045714	0.102818
702.246704	0.102656
702.447675	0.102633
702.648629	0.102532
702.849564	0.102430
703.050481	0.102537
703.251380	0.102448
703.452260	0.102465
703.653122	0.102514
703.853966	0.102636
704.054792	0.102794
704.255600	0.102724
704.456389	0.102841
704.657160	0.102739
704.857913	0.102518
705.058648	0.102677
705.259365	0.102578
705.460063	0.102083
705.660743	0.102127
705.861405	0.102078
706.062048	0.102011
706.262674	0.102009
706.463281	0.102023
706.663870	0.102191
706.864441	0.102305
707.064993	0.102424
707.265527	0.102793
707.466043	0.102875
707.666541	0.102903
707.867021	0.103202
708.067482	0.103062
708.267925	0.103290
708.468350	0.103451
708.668757	0.103350
708.869145	0.103533
709.069516	0.103546
709.269868	0.103506
709.470201	0.103506
709.670517	0.103360
709.870814	0.103495
710.071093	0.103410
710.271354	0.103386
710.471597	0.103600
710.671821	0.103356
710.872028	0.103209
711.072216	0.103467
711.272385	0.103612
711.472537	0.103699
711.672670	0.103674
711.872785	0.103765
712.072882	0.103700
712.272961	0.103569
712.473021	0.103713
712.673063	0.103842
712.873087	0.103637
713.073093	0.103715
713.273081	0.103690
713.473050	0.103585
713.673001	0.103366
713.872934	0.103400
714.072849	0.103522
714.272745	0.103542
714.472623	0.103703
714.672483	0.103846
714.872325	0.103738
715.072148	0.103611
715.271954	0.103697
715.471741	0.104109
715.671509	0.104104
715.871260	0.103882
716.070992	0.103770
716.270707	0.103745
716.470403	0.103554
716.670080	0.103549
716.869740	0.103638
717.069381	0.103483
717.269004	0.103262
717.468609	0.103101
717.668195	0.103223
717.867764	0.103226
718.067314	0.103117
718.266846	0.103299
718.466360	0.103186
718.665855	0.103204
718.865332	0.103296
719.064791	0.103093
719.264232	0.103009
719.463655	0.102854
719.663059	0.102775
719.862445	0.102719
720.061813	0.102488
720.261163	0.102290
720.460494	0.102332
720.659807	0.102275
720.859102	0.102308
721.058379	0.102439
721.257638	0.102397
721.456878	0.102485
721.656100	0.102609
721.855304	0.102588
722.054490	0.102761
722.253657	0.102701
722.452806	0.102762
722.651937	0.102755
722.851050	0.102825
723.050145	0.102968
723.249221	0.102778
723.448279	0.102760
723.647319	0.102807
723.846340	0.102658
724.045344	0.102689
724.244329	0.102582
724.443296	0.102603
724.642245	0.102466
724.841175	0.102392
725.040088	0.102587
725.238982	0.102528
725.437857	0.102546
725.636715	0.102930
725.835554	0.102743
726.034376	0.102809
726.233179	0.102864
726.431963	0.102822
726.630730	0.102799
726.829478	0.102600
727.028208	0.102510
727.226920	0.102510
727.425614	0.102357
727.624289	0.102355
727.822946	0.102355
728.021585	0.102413
728.220206	0.102367
728.418808	0.102367
728.617392	0.102385
728.815958	0.102331
729.014506	0.102337
729.213036	0.102131
729.411547	0.102072
729.610040	0.101975
729.808515	0.101631
730.006972	0.101738
730.205410	0.101592
730.403831	0.101649
730.602233	0.101581
730.800616	0.101485
730.998982	0.101446
731.197329	0.101500
731.395658	0.101480
731.593969	0.101749
731.792262	0.101825
731.990536	0.102038
732.188793	0.101881
732.387031	0.101863
732.585250	0.101807
732.783452	0.101881
732.981635	0.101904
733.179800	0.101878
733.377947	0.101714
733.576076	0.101595
733.774186	0.101469
733.972278	0.101562
734.170352	0.101413
734.368408	0.101331
734.566446	0.101087
734.764465	0.100951
734.962466	0.100690
735.160449	0.100600
735.358413	0.100473
735.556360	0.100352
735.754288	0.100068
735.952198	0.100237
736.150090	0.100267
736.347963	0.100389
736.545818	0.100348
736.743655	0.100499
736.941474	0.100409
737.139275	0.100378
737.337057	0.100344
737.534821	0.100515
737.732567	0.100399
737.930295	0.100189
738.128005	0.100030
738.325696	0.099893
738.523369	0.099566
738.721024	0.099434
738.918660	0.099426
739.116279	0.099179
739.313879	0.099120
739.511461	0.098975
739.709024	0.098957
739.906570	0.099010
740.104097	0.099002
740.301606	0.099227
740.499097	0.099344
740.696569	0.099177
740.894024	0.099339
741.091460	0.099273
741.288878	0.099257
741.486277	0.099167
741.683659	0.099134
741.881022	0.099148
742.078367	0.099254
742.275694	0.099180
742.473002	0.099146
742.670293	0.098930
742.867565	0.098853
743.064819	0.098783
743.262054	0.098922
743.459272	0.098761
743.656471	0.098585
743.853652	0.098385
744.050815	0.098172
744.247959	0.097975
744.445085	0.098057
744.642194	0.097958
744.839283	0.097908
745.036355	0.097863
745.233408	0.097891
745.430444	0.097734
745.627461	0.097570
745.824459	0.097629
746.021440	0.097639
746.218402	0.097466
746.415346	0.097332
746.612272	0.097329
746.809180	0.097043
747.006069	0.096797
747.202940	0.096772
747.399793	0.096910
747.596628	0.097029
747.793444	0.097029
747.990243	0.096887
748.187023	0.096991
748.383784	0.096916
748.580528	0.097206
748.777253	0.097406
748.973960	0.097460
749.170649	0.097418
749.367320	0.097178
749.563973	0.097162
749.760607	0.097278
749.957223	0.097167
750.153821	0.097165
750.350400	0.096868
750.546962	0.096858
750.743505	0.096856
750.940030	0.096554
751.136536	0.096734
751.333025	0.096629
751.529495	0.096550
751.725947	0.096566
751.922381	0.096551
752.118796	0.096511
752.315194	0.096208
752.511573	0.096052
752.707934	0.096162
752.904276	0.095995
753.100601	0.096023
753.296907	0.095896
753.493195	0.095882
753.689465	0.095535
753.885716	0.095517
754.081949	0.095531
754.278164	0.095720
754.474361	0.095734
754.670540	0.095567
754.866700	0.095309
755.062843	0.095437
755.258967	0.095373
755.455072	0.095560
755.651160	0.095502
755.847229	0.095444
756.043280	0.095253
756.239313	0.094987
756.435328	0.095053
756.631324	0.095165
756.827302	0.095158
757.023262	0.095052
757.219204	0.094961
757.415127	0.094762
757.611033	0.094635
757.806920	0.094470
758.002788	0.094561
758.198639	0.094502
758.394471	0.094432
758.590286	0.094290
758.786081	0.094374
758.981859	0.094351
759.177619	0.094347
759.373360	0.094587
759.569083	0.094617
759.764788	0.094603
759.960474	0.094698
760.156143	0.094709
760.351793	0.094674
760.547425	0.094552
760.743038	0.094620
760.938634	0.094888
761.134211	0.094793
761.329770	0.094837
761.525311	0.094674
761.720833	0.094483
761.916338	0.094332
762.111824	0.094241
762.307292	0.094134
762.502741	0.094040
762.698173	0.093987
762.893586	0.093906
763.088981	0.093813
763.284358	0.093808
763.479716	0.093615
763.675057	0.093731
763.870379	0.093807
764.065683	0.093790
764.260968	0.093885
764.456236	0.093840
764.651485	0.093736
764.846716	0.093699
765.041929	0.093739
765.237123	0.093823
765.432299	0.093812
765.627457	0.093836
765.822597	0.093809
766.017719	0.093589
766.212822	0.093424
766.407907	0.093499
766.602974	0.093512
766.798023	0.093501
766.993054	0.093350
767.188066	0.093229
767.383060	0.093245
767.578036	0.093149
767.772993	0.093314
767.967933	0.093439
768.162854	0.093428
768.357757	0.093573
768.552642	0.093467
768.747508	0.093628
768.942356	0.093500
769.137186	0.093276
769.331998	0.093402
769.526792	0.093114
769.721567	0.092975
769.916324	0.092818
770.111063	0.092819
770.305784	0.093008
770.500486	0.093060
770.695171	0.093096
770.889837	0.093073
771.084484	0.092925
771.279114	0.092965
771.473725	0.092889
771.668318	0.093115
771.862893	0.093048
772.057450	0.092994
772.251988	0.093021
772.446509	0.093067
772.641011	0.093048
772.835494	0.093298
773.029960	0.093420
773.224407	0.093358
773.418836	0.093228
773.613247	0.093335
773.807640	0.093290
774.002014	0.093201
774.196370	0.093311
774.390708	0.093365
774.585028	0.093086
774.779330	0.093057
774.973613	0.093180
775.167878	0.093268
775.362125	0.093204
775.556354	0.093260
775.750564	0.093221
775.944756	0.093236
776.138930	0.093262
776.333086	0.093315
776.527223	0.093047
776.721343	0.092970
776.915444	0.092907
777.109526	0.092821
777.303591	0.092644
777.497637	0.092781
777.691666	0.092769
777.885676	0.092857
778.079667	0.092924
778.273641	0.093222
778.467596	0.093401
778.661533	0.093378
778.855452	0.093357
779.049352	0.093638
779.243235	0.093566
779.437099	0.093513
779.630945	0.093399
779.824773	0.093476
780.018582	0.093539
780.212373	0.093362
780.406146	0.093377
780.599901	0.093345
780.793638	0.093252
780.987356	0.093345
781.181056	0.093344
781.374738	0.093423
781.568402	0.093292
781.762047	0.093193
781.955674	0.093281
782.149283	0.093215
782.342874	0.093224
782.536447	0.093089
782.730001	0.093133
782.923537	0.093017
783.117055	0.092962
783.310555	0.093126
783.504036	0.093105
783.697499	0.093265
783.890944	0.093293
784.084371	0.093240
784.277780	0.093391
784.471170	0.093471
784.664542	0.093749
784.857896	0.093854
785.051231	0.093862
785.244549	0.093994
785.437848	0.093723
785.631129	0.093810
785.824392	0.094093
786.017636	0.094222
786.210863	0.094254
786.404071	0.094107
786.597260	0.094104
786.790432	0.094135
786.983585	0.094359
787.176721	0.094527
787.369838	0.094670
787.562936	0.094560
787.756017	0.094436
787.949079	0.094388
788.142123	0.094469
788.335149	0.094504
788.528156	0.094440
788.721146	0.094120
788.914117	0.094251
789.107070	0.094123
789.300005	0.094098
789.492921	0.094283
789.685819	0.094149
789.878699	0.094007
790.071561	0.094145
790.264405	0.094194
790.457230	0.094319
790.650037	0.094376
790.842826	0.094523
791.035597	0.094629
791.228349	0.094464
791.421084	0.094679
791.613800	0.094809
791.806497	0.094677
791.999177	0.094835
792.191838	0.094954
792.384481	0.094862
792.577106	0.094928
792.769713	0.095025
792.962301	0.095200
793.154871	0.095321
793.347423	0.095265
793.539957	0.095415
793.732473	0.095357
793.924970	0.095343
794.117449	0.095525
794.309910	0.095430
794.502353	0.095418
794.694777	0.095373
794.887183	0.095225
795.079571	0.095431
795.271941	0.095510
795.464293	0.095462
795.656626	0.095639
795.848941	0.095541
796.041238	0.095705
796.233516	0.095742
796.425777	0.095871
796.618019	0.095977
796.810243	0.096089
797.002449	0.096090
797.194636	0.096346
797.386805	0.096197
797.578956	0.096284
797.771089	0.096271
797.963204	0.096304
798.155300	0.096390
798.347378	0.096342
798.539438	0.096485
798.731480	0.096653
798.923503	0.096990
799.115509	0.097102
799.307496	0.097326
799.499465	0.097464
799.691415	0.097744
799.883348	0.097858
800.075262	0.097996
800.267158	0.097909
800.459035	0.097907
800.650895	0.097702
800.842736	0.097747
801.034559	0.097723
801.226364	0.097662
801.418150	0.097529
801.609919	0.097364
801.801669	0.097505
801.993401	0.097745
802.185114	0.097853
802.376810	0.097837
802.568487	0.097996
802.760146	0.098065
802.951787	0.098117
803.143409	0.098265
803.335014	0.098607
803.526600	0.098639
803.718168	0.098539
803.909717	0.098723
804.101249	0.098766
804.292762	0.098735
804.484257	0.099104
804.675734	0.099312
804.867192	0.099411
805.058632	0.099530
805.250054	0.099685
805.441458	0.099986
805.632844	0.099695
805.824211	0.100041
806.015561	0.100496
806.206891	0.100248
806.398204	0.100294
806.589499	0.100283
806.780775	0.100323
806.972033	0.100549
807.163273	0.100531
807.354495	0.100924
807.545698	0.101123
807.736883	0.101077
807.928050	0.101311
808.119199	0.101430
808.310329	0.101716
808.501441	0.101814
808.692535	0.101852
808.883611	0.102214
809.074669	0.102426
809.265708	0.102559
809.456729	0.102705
809.647732	0.102907
809.838717	0.103065
810.029683	0.103186
810.220632	0.103406
810.411562	0.103530
810.602474	0.103504
810.793367	0.103592
810.984242	0.103361
811.175100	0.103465
811.365938	0.103478
811.556759	0.103799
811.747562	0.103940
811.938346	0.103957
812.129112	0.103938
812.319860	0.103970
812.510589	0.104018
812.701300	0.104188
812.891994	0.104329
813.082668	0.104428
813.273325	0.104491
813.463964	0.104598
813.654584	0.104654
813.845186	0.104928
814.035769	0.105144
814.226335	0.105324
814.416882	0.105465
814.607411	0.105504
814.797922	0.105637
814.988415	0.105766
815.178889	0.105928
815.369345	0.106301
815.559783	0.106568
815.750203	0.106704
815.940605	0.106872
816.130988	0.107159
816.321353	0.107172
816.511700	0.107297
816.702028	0.107292
816.892339	0.107402
817.082631	0.107342
817.272905	0.107031
817.463161	0.107113
817.653398	0.107178
817.843617	0.107160
818.033819	0.107525
818.224001	0.107598
818.414166	0.107766
818.604312	0.107755
818.794440	0.107863
818.984550	0.108072
819.174642	0.108188
819.364716	0.108222
819.554771	0.108453
819.744808	0.108576
819.934827	0.108791
820.124827	0.108964
820.314810	0.108974
820.504774	0.109015
820.694720	0.109374
820.884647	0.109568
821.074557	0.109842
821.264448	0.110016
821.454321	0.110262
821.644176	0.110546
821.834012	0.110746
822.023831	0.111037
822.213631	0.111205
822.403413	0.111166
822.593176	0.111178
822.782922	0.111467
822.972649	0.111481
823.162358	0.111564
823.352049	0.111508
823.541721	0.111614
823.731376	0.111846
823.921012	0.111962
824.110629	0.112362
824.300229	0.112697
824.489811	0.112749
824.679374	0.113018
824.868919	0.113001
825.058445	0.113243
825.247954	0.113434
825.437444	0.113293
825.626916	0.113346
825.816370	0.113091
826.005806	0.113204
826.195223	0.113277
826.384622	0.113375
826.574003	0.113648
826.763366	0.113611
826.952711	0.113619
827.142037	0.114041
827.331345	0.114247
827.520635	0.114741
827.709906	0.114690
827.899160	0.114834
828.088395	0.114759
828.277612	0.114838
828.466810	0.115103
828.655991	0.115268
828.845153	0.115412
829.034297	0.115706
829.223423	0.115949
829.412531	0.116135
829.601620	0.116495
829.790691	0.116783
829.979744	0.117115
830.168779	0.117177
830.357795	0.117317
830.546793	0.117445
830.735773	0.117456
830.924735	0.117518
831.113679	0.117791
831.302604	0.117709
831.491511	0.118103
831.680400	0.118228
831.869271	0.118674
832.058123	0.118785
832.246957	0.119130
832.435773	0.119452
832.624571	0.119613
832.813351	0.119714
833.002112	0.120018
833.190855	0.119977
833.379580	0.119847
833.568287	0.119877
833.756975	0.120108
833.945645	0.120175
834.134297	0.120321
834.322931	0.120261
834.511547	0.120633
834.700144	0.120716
834.888723	0.120735
835.077284	0.120886
835.265826	0.120834
835.454351	0.121078
835.642857	0.121261
835.831345	0.121318
836.019815	0.121504
836.208266	0.121368
836.396699	0.121205
836.585114	0.121388
836.773511	0.121709
836.961890	0.122190
837.150250	0.122172
837.338592	0.122270
837.526916	0.122578
837.715222	0.122825
837.903510	0.123288
838.091779	0.123781
838.280030	0.123973
838.468263	0.124292
838.656477	0.124325
838.844674	0.124542
839.032852	0.124767
839.221012	0.124930
839.409153	0.125164
839.597277	0.125039
839.785382	0.125036
839.973469	0.125262
840.161538	0.125309
840.349589	0.125463
840.537621	0.125907
840.725635	0.126106
840.913631	0.126416
841.101609	0.126507
841.289568	0.126582
841.477509	0.126886
841.665432	0.127097
841.853337	0.127055
842.041224	0.127345
842.229092	0.127449
842.416942	0.127478
842.604774	0.127390
842.792588	0.127617
842.980383	0.127955
843.168160	0.128133
843.355919	0.128326
843.543660	0.128608
843.731382	0.128746
843.919087	0.128697
844.106773	0.128884
844.294441	0.129148
844.482090	0.129444
844.669722	0.129677
844.857335	0.129749
845.044930	0.129783
845.232507	0.130078
845.420065	0.130139
845.607605	0.130569
845.795127	0.130746
845.982631	0.130644
846.170117	0.130523
846.357584	0.130713
846.545033	0.131066
846.732464	0.131488
846.919877	0.131350
847.107272	0.131597
847.294648	0.131597
847.482006	0.131627
847.669346	0.131925
847.856667	0.132281
848.043971	0.132537
848.231256	0.132504
848.418523	0.132620
848.605771	0.132922
848.793002	0.133019
848.980214	0.133121
849.167408	0.133366
849.354584	0.133849
849.541742	0.133907
849.728881	0.133852
849.916002	0.133967
850.103105	0.133930
850.290190	0.134251
850.477256	0.134249
850.664304	0.134723
850.851334	0.134913
851.038346	0.135026
851.225340	0.135322
851.412315	0.135834
851.599272	0.136359
851.786211	0.136817
851.973132	0.136911
852.160034	0.137303
852.346918	0.137347
852.533784	0.137468
852.720632	0.137690
852.907462	0.138019
853.094273	0.137881
853.281066	0.137943
853.467841	0.138040
853.654598	0.138376
853.841336	0.138793
854.028056	0.139177
854.214758	0.139561
854.401442	0.139731
854.588107	0.139894
854.774755	0.140468
854.961384	0.140303
855.147995	0.140330
855.334587	0.140370
855.521162	0.140427
855.707718	0.140363
855.894256	0.140545
856.080775	0.140694
856.267277	0.140720
856.453760	0.140531
856.640225	0.140911
856.826672	0.140962
857.013101	0.141238
857.199511	0.141252
857.385903	0.141249
857.572277	0.141421
857.758633	0.141390
857.944970	0.141456
858.131290	0.141645
858.317591	0.141845
858.503873	0.142288
858.690138	0.142181
858.876384	0.142513
859.062612	0.142692
859.248822	0.142838
859.435014	0.143063
859.621188	0.143439
859.807343	0.143545
859.993480	0.143585
860.179599	0.143710
860.365699	0.144149
860.551781	0.144244
860.737846	0.144421
860.923891	0.144109
861.109919	0.144051
861.295929	0.144134
861.481920	0.144376
861.667893	0.144814
861.853848	0.145099
862.039784	0.145350
862.225702	0.145450
862.411603	0.145844
862.597484	0.146570
862.783348	0.146897
862.969193	0.146898
863.155021	0.147145
863.340830	0.147422
863.526620	0.147676
863.712393	0.147590
863.898147	0.147828
864.083883	0.147912
864.269601	0.147820
864.455301	0.148006
864.640982	0.148190
864.826645	0.148238
865.012290	0.147988
865.197917	0.147884
865.383526	0.148060
865.569116	0.148188
865.754688	0.148302
865.940242	0.148416
866.125777	0.148596
866.311295	0.148832
866.496794	0.148954
866.682275	0.149465
866.867737	0.149558
867.053182	0.149659
867.238608	0.149568
867.424016	0.149353
867.609406	0.149569
867.794778	0.149708
867.980131	0.149842
868.165466	0.150262
868.350783	0.150296
868.536082	0.150822
868.721362	0.151023
868.906625	0.151331
869.091869	0.151764
869.277094	0.151730
869.462302	0.151721
869.647491	0.152020
869.832662	0.151726
870.017815	0.151827
870.202950	0.151678
870.388066	0.151813
870.573165	0.151941
870.758245	0.152149
870.943306	0.152406
871.128350	0.152776
871.313375	0.152729
871.498382	0.152953
871.683371	0.152909
871.868342	0.153064
872.053294	0.153158
872.238229	0.153349
872.423144	0.153520
872.608042	0.154023
872.792922	0.154078
872.977783	0.154371
873.162626	0.154631
873.347451	0.154658
873.532258	0.154685
873.717046	0.154940
873.901816	0.155147
874.086568	0.155115
874.271302	0.154862
874.456017	0.155173
874.640715	0.155071
874.825394	0.155228
875.010055	0.155547
875.194697	0.155764
875.379322	0.155823
875.563928	0.155753
875.748516	0.155940
875.933085	0.156006
876.117637	0.155921
876.302170	0.156122
876.486685	0.155998
876.671182	0.155925
876.855661	0.155792
877.040121	0.155864
877.224563	0.155904
877.408987	0.155937
877.593393	0.156094
877.777780	0.156136
877.962150	0.155892
878.146501	0.156128
878.330833	0.156519
878.515148	0.156585
878.699444	0.156466
878.883722	0.156633
879.067982	0.156591
879.252224	0.156764
879.436447	0.156958
879.620653	0.157199
879.804840	0.157388
879.989008	0.157480
880.173159	0.157539
880.357291	0.157853
880.541405	0.157910
880.725501	0.158105
880.909579	0.158037
881.093638	0.158073
881.277680	0.158236
881.461703	0.158279
881.645707	0.158375
881.829694	0.158514
882.013662	0.158320
882.197612	0.158145
882.381544	0.158382
882.565458	0.158625
882.749353	0.158480
882.933230	0.158425
883.117089	0.158734
883.300930	0.158381
883.484753	0.158328
883.668557	0.158797
883.852343	0.158932
884.036111	0.158854
884.219861	0.158450
884.403592	0.158899
884.587305	0.159343
884.771000	0.158970
884.954677	0.159168
885.138335	0.159403
885.321976	0.159308
885.505598	0.159495
885.689201	0.159356
885.872787	0.159756
886.056354	0.159516
886.239904	0.159304
886.423434	0.159488
886.606947	0.159794
886.790442	0.159711
886.973918	0.159599
887.157376	0.159701
887.340816	0.160068
887.524237	0.159832
887.707641	0.160160
887.891026	0.160478
888.074393	0.160256
888.257741	0.160081
888.441072	0.160287
888.624384	0.160405
888.807678	0.160536
888.990954	0.160196
889.174211	0.160306
889.357451	0.160103
889.540672	0.159577
889.723875	0.159722
889.907059	0.159502
890.090226	0.159137
890.273374	0.159023
890.456504	0.159129
890.639616	0.159348
890.822709	0.159662
891.005785	0.159527
891.188842	0.159809
891.371881	0.159692
891.554901	0.160048
891.737904	0.160434
891.920888	0.160695
892.103854	0.160371
892.286802	0.160253
892.469731	0.160133
892.652643	0.160319
892.835536	0.160098
893.018410	0.160182
893.201267	0.160045
893.384106	0.159809
893.566926	0.159497
893.749728	0.159373
893.932511	0.159422
894.115277	0.159176
894.298024	0.158699
894.480753	0.158589
894.663464	0.158542
894.846157	0.158276
895.028831	0.158354
895.211487	0.158311
895.394125	0.158234
895.576745	0.158238
895.759346	0.158251
895.941930	0.158191
896.124495	0.158274
896.307041	0.158318
896.489570	0.158219
896.672080	0.157949
896.854573	0.157940
897.037046	0.157781
897.219502	0.157597
897.401940	0.157645
897.584359	0.157954
897.766760	0.158072
897.949143	0.157841
898.131507	0.158045
898.313854	0.157932
898.496182	0.157738
898.678492	0.158096
898.860783	0.158023
899.043057	0.157983
899.225312	0.157501
899.407549	0.157478
899.589768	0.157637
899.771968	0.157795
899.954151	0.158104
900.136315	0.158039
900.318461	0.157768
900.500588	0.157714
900.682698	0.157428
900.864789	0.157803
901.046862	0.157428
901.228917	0.157167
901.410953	0.156817
901.592971	0.156849
901.774972	0.156969
901.956953	0.156833
902.138917	0.156647
902.320862	0.156871
902.502790	0.156713
902.684699	0.156976
902.866589	0.156926
903.048462	0.156598
903.230316	0.156363
903.412152	0.156144
903.593970	0.156250
903.775770	0.156557
903.957551	0.156149
904.139314	0.155654
904.321059	0.155224
904.502786	0.154954
904.684494	0.155183
904.866185	0.154946
905.047857	0.154928
905.229510	0.154657
905.411146	0.153671
905.592763	0.153616
905.774363	0.154002
905.955943	0.154030
906.137506	0.153781
906.319051	0.153333
906.500577	0.152874
906.682085	0.152662
906.863575	0.152626
907.045046	0.152826
907.226500	0.152439
907.407935	0.151591
907.589352	0.151249
907.770750	0.151405
907.952131	0.151792
908.133493	0.151959
908.314837	0.151767
908.496163	0.151480
908.677470	0.151772
908.858760	0.151965
909.040031	0.152183
909.221284	0.152061
909.402518	0.151720
909.583735	0.151565
909.764933	0.151174
909.946113	0.150614
910.127275	0.150242
910.308418	0.150012
910.489544	0.150023
910.670651	0.149926
910.851740	0.149521
911.032810	0.149461
911.213863	0.148700
911.394897	0.148532
911.575913	0.148926
911.756911	0.148949
911.937890	0.148680
912.118851	0.147938
912.299794	0.147584
912.480719	0.147069
912.661626	0.146777
912.842514	0.146845
913.023384	0.147057
913.204236	0.146327
913.385070	0.145954
913.565886	0.145426
913.746683	0.145359
913.927462	0.145255
914.108223	0.145646
914.288965	0.145767
914.469690	0.145019
914.650396	0.144466
914.831084	0.144454
915.011754	0.144639
915.192405	0.143925
915.373038	0.143925
915.553653	0.143507
915.734250	0.143165
915.914829	0.142635
916.095389	0.142809
916.275931	0.142481
916.456455	0.142371
916.636961	0.142095
916.817448	0.142371
916.997917	0.141837
917.178368	0.141658
917.358801	0.141439
917.539216	0.140969
917.719612	0.140746
917.899990	0.140990
918.080350	0.140219
918.260692	0.139798
918.441015	0.140003
918.621320	0.140113
918.801607	0.140153
918.981876	0.139720
919.162127	0.139568
919.342359	0.139187
919.522573	0.138801
919.702769	0.138797
919.882947	0.138283
920.063106	0.137400
920.243247	0.137167
920.423370	0.136710
920.603475	0.136336
920.783562	0.135778
920.963630	0.135511
921.143680	0.135188
921.323712	0.135188
921.503725	0.135092
921.683721	0.135349
921.863698	0.134921
922.043657	0.134749
922.223598	0.135139
922.403520	0.135119
922.583424	0.135282
922.763311	0.134648
922.943178	0.134467
923.123028	0.133515
923.302859	0.132887
923.482673	0.132309
923.662467	0.131417
923.842244	0.130982
924.022003	0.131080
924.201743	0.129880
924.381465	0.129662
924.561169	0.129155
924.740854	0.129269
924.920522	0.128849
925.100171	0.128720
925.279802	0.129344
925.459414	0.128780
925.639009	0.128293
925.818585	0.128495
925.998143	0.128128
926.177683	0.127988
926.357205	0.127862
926.536708	0.127412
926.716193	0.126945
926.895660	0.126161
927.075109	0.125492
927.254539	0.125198
927.433951	0.125207
927.613345	0.125115
927.792721	0.124790
927.972079	0.124480
928.151418	0.124434
928.330739	0.124703
928.510042	0.124900
928.689327	0.125121
928.868593	0.124872
929.047841	0.124073
929.227071	0.123011
929.406283	0.122318
929.585476	0.122096
929.764652	0.121495
929.943809	0.120784
930.122948	0.120073
930.302068	0.118804
930.481171	0.118535
930.660255	0.117865
930.839321	0.117512
931.018369	0.117336
931.197398	0.116772
931.376409	0.116889
931.555402	0.116474
931.734377	0.116175
931.913334	0.116607
932.092272	0.115750
932.271192	0.114889
932.450094	0.115255
932.628978	0.115024
932.807844	0.114471
932.986691	0.113443
933.165520	0.112976
933.344331	0.112185
933.523123	0.111108
933.701898	0.110403
933.880654	0.111204
934.059392	0.110604
934.238111	0.110390
934.416813	0.110149
934.595496	0.110067
934.774161	0.109665
934.952808	0.109751
935.131437	0.110013
935.310047	0.109565
935.488639	0.108315
935.667213	0.108544
935.845769	0.107677
936.024306	0.107805
936.202825	0.107468
936.381326	0.107430
936.559809	0.106917
936.738274	0.106241
936.916720	0.106431
937.095148	0.106926
937.273558	0.105686
937.451950	0.104856
937.630323	0.103746
937.808678	0.103243
937.987015	0.102217
938.165334	0.101254
938.343635	0.101296
938.521917	0.100269
938.700181	0.098958
938.878427	0.099200
939.056655	0.099234
939.234864	0.098695
939.413055	0.098720
939.591228	0.098088
939.769383	0.097287
939.947519	0.096660
940.125638	0.097167
940.303738	0.097056
940.481820	0.096077
940.659883	0.095375
940.837929	0.094999
941.015956	0.094833
941.193965	0.094667
941.371955	0.094388
941.549928	0.094228
941.727882	0.093149
941.905818	0.092889
942.083736	0.092862
942.261636	0.092954
942.439517	0.092732
942.617380	0.091619
942.795225	0.091173
942.973052	0.091005
943.150860	0.089449
943.328651	0.089573
943.506423	0.088903
943.684176	0.088869
943.861912	0.088690
944.039629	0.088127
944.217328	0.087399
944.395009	0.086536
944.572672	0.086346
944.750317	0.087315
944.927943	0.087008
945.105551	0.086248
945.283141	0.085151
945.460712	0.084235
945.638265	0.084400
945.815801	0.084288
945.993317	0.083880
946.170816	0.083459
946.348297	0.081356
946.525759	0.081362
946.703203	0.082688
946.880629	0.081791
947.058036	0.082330
947.235425	0.081197
947.412797	0.081009
947.590149	0.080923
947.767484	0.080588
947.944800	0.081798
948.122099	0.080024
948.299379	0.077966
948.476640	0.077928
948.653884	0.076372
948.831109	0.075715
949.008316	0.073940
949.185505	0.073606
949.362676	0.073005
949.539828	0.072081
949.716962	0.071476
949.894078	0.071535
950.071176	0.069824
950.248256	0.070277
950.425317	0.071045
950.602360	0.072619
950.779385	0.071930
950.956391	0.072310
951.133380	0.072102
951.310350	0.072223
951.487302	0.072222
951.664235	0.073167
951.841151	0.072952
952.018048	0.071871
952.194927	0.070608
952.371788	0.070669
952.548631	0.069115
952.725455	0.069133
952.902261	0.068953
953.079049	0.068867
953.255819	0.069185
953.432570	0.068658
953.609303	0.068079
953.786018	0.067587
953.962715	0.067379
954.139394	0.067629
954.316054	0.068080
954.492696	0.068634
954.669320	0.068296
954.845926	0.068329
955.022513	0.067930
955.199083	0.068061
955.375634	0.069892
955.552166	0.068935
955.728681	0.069038
955.905177	0.067616
956.081655	0.066569
956.258115	0.065824
956.434557	0.064924
956.610980	0.063604
956.787385	0.063531
956.963772	0.061450
957.140141	0.061468
957.316492	0.060706
957.492824	0.060824
957.669138	0.060650
957.845434	0.060402
958.021712	0.058786
958.197971	0.059917
958.374212	0.059093
958.550435	0.058208
958.726640	0.060193
958.902826	0.061767
959.078995	0.060657
959.255145	0.060663
959.431277	0.060182
959.607390	0.060882
959.783486	0.059787
959.959563	0.060766
960.135622	0.061640
960.311662	0.061132
960.487685	0.059004
960.663689	0.059327
960.839675	0.059722
961.015643	0.059410
961.191593	0.059301
961.367524	0.059321
961.543437	0.058425
961.719332	0.059669
961.895209	0.058941
962.071067	0.059046
962.246907	0.059288
962.422730	0.056920
962.598533	0.057437
962.774319	0.059235
962.950086	0.060575
963.125835	0.061119
963.301566	0.059695
963.477279	0.058507
963.652973	0.059325
963.828650	0.060232
964.004308	0.061981
964.179947	0.063701
964.355569	0.062097
964.531172	0.061183
964.706757	0.060040
964.882324	0.059747
965.057873	0.060985
965.233403	0.061669
965.408916	0.059845
965.584410	0.060220
965.759885	0.057348
965.935343	0.056565
966.110782	0.056550
966.286203	0.058198
966.461606	0.056516
966.636991	0.054784
966.812357	0.054266
966.987705	0.054436
967.163035	0.052510
967.338347	0.052448
967.513641	0.051528
967.688916	0.050226
967.864173	0.047924
968.039412	0.050652
968.214632	0.051706
968.389835	0.051149
968.565019	0.051768
968.740185	0.053412
968.915333	0.054201
969.090462	0.057048
969.265573	0.059416
969.440667	0.059872
969.615741	0.059050
969.790798	0.060015
969.965836	0.060282
970.140856	0.060196
970.315858	0.059843
970.490842	0.059583
970.665808	0.060488
970.840755	0.058680
971.015684	0.060165
971.190595	0.060143
971.365487	0.059919
971.540362	0.057913
971.715218	0.056903
971.890056	0.055308
972.064875	0.055516
972.239677	0.053896
972.414460	0.055833
972.589225	0.055139
972.763972	0.053888
972.938700	0.052993
973.113411	0.053176
973.288103	0.053359
973.462777	0.055749
973.637432	0.053851
973.812070	0.053207
973.986689	0.051847
974.161290	0.051596
974.335873	0.052354
974.510437	0.052358
974.684984	0.056268
974.859512	0.057401
975.034022	0.056400
975.208513	0.058188
975.382987	0.057864
975.557442	0.056423
975.731879	0.057365
975.906298	0.058379
976.080698	0.057631
976.255080	0.055050
976.429445	0.055798
976.603790	0.055020
976.778118	0.056223
976.952427	0.056006
977.126719	0.056622
977.300992	0.055633
977.475246	0.055327
977.649483	0.057459
977.823701	0.057994
977.997901	0.056502
978.172083	0.057809
978.346247	0.058612
978.520392	0.058451
978.694519	0.060069
978.868628	0.059795
979.042719	0.059438
979.216791	0.058670
979.390845	0.057295
979.564882	0.056270
979.738899	0.055804
979.912899	0.054020
980.086880	0.052990
980.260843	0.054344
980.434788	0.054956
980.608715	0.055178
980.782623	0.055443
980.956514	0.057915
981.130386	0.058409
981.304240	0.057964
981.478075	0.057738
981.651892	0.060305
981.825692	0.057121
981.999472	0.058064
982.173235	0.056275
982.346980	0.055909
982.520706	0.053642
982.694414	0.054371
982.868104	0.055524
983.041775	0.057265
983.215428	0.056921
983.389064	0.056554
983.562680	0.056632
983.736279	0.058384
983.909860	0.057000
984.083422	0.057332
984.256966	0.056881
984.430491	0.056656
984.603999	0.056757
984.777488	0.056935
984.950959	0.057540
985.124412	0.056323
985.297847	0.055904
985.471263	0.056835
985.644661	0.057307
985.818041	0.057734
985.991403	0.056541
986.164747	0.055039
986.338072	0.055521
986.511379	0.055811
986.684668	0.055854
986.857938	0.055915
987.031191	0.056153
987.204425	0.055277
987.377641	0.055076
987.550839	0.055227
987.724018	0.057022
987.897179	0.057389
988.070322	0.056769
988.243447	0.057397
988.416554	0.056584
988.589642	0.055643
988.762712	0.055691
988.935764	0.056460
989.108798	0.055909
989.281813	0.055505
989.454811	0.055522
989.627790	0.055578
989.800751	0.055783
989.973693	0.057634
990.146617	0.057536
990.319524	0.056964
990.492412	0.055681
990.665281	0.056481
990.838133	0.054101
991.010966	0.054103
991.183781	0.055298
991.356578	0.056112
991.529356	0.055161
991.702117	0.055800
991.874859	0.056437
992.047583	0.056476
992.220288	0.057586
992.392976	0.057936
992.565645	0.057640
992.738296	0.056399
992.910929	0.053492
993.083543	0.053331
993.256139	0.053915
993.428718	0.053687
993.601277	0.055221
993.773819	0.053961
993.946342	0.055150
994.118848	0.053317
994.291335	0.053459
994.463803	0.055622
994.636254	0.055652
994.808686	0.054330
994.981100	0.054713
995.153496	0.053956
995.325874	0.054894
995.498233	0.053495
995.670574	0.053705
995.842897	0.054683
996.015202	0.055021
996.187488	0.055251
996.359757	0.055547
996.532007	0.055312
996.704239	0.055225
996.876452	0.054710
997.048648	0.055572
997.220825	0.057118
997.392984	0.055734
997.565124	0.052790
997.737247	0.053904
997.909351	0.054007
998.081437	0.055050
998.253505	0.054796
998.425554	0.054582
998.597586	0.054412
998.769599	0.054300
998.941594	0.054599
999.113571	0.056517
999.285529	0.055286
999.457469	0.055527
999.629391	0.055461
999.801295	0.053700
999.973181	0.053498
1000.145048	0.053526
1000.316897	0.052522
1000.488728	0.051336
1000.660541	0.052734
1000.832335	0.053084
1001.004111	0.052988
1001.175869	0.052419
1001.347609	0.053589
1001.519331	0.054288
1001.691034	0.055337
1001.862719	0.056078
1002.034386	0.058908
1002.206035	0.057012
1002.377665	0.056022
1002.549277	0.056827
1002.720871	0.055288
1002.892447	0.055778
1003.064004	0.056057
1003.235544	0.055226
1003.407065	0.054931
1003.578568	0.053673
1003.750052	0.053616
1003.921519	0.054198
1004.092967	0.053004
1004.264397	0.054718
1004.435809	0.055264
1004.607202	0.056185
1004.778577	0.056919
1004.949934	0.056843
1005.121273	0.056734
1005.292594	0.057335
1005.463896	0.058320
1005.635180	0.059006
1005.806446	0.057410
1005.977694	0.056326
1006.148923	0.054260
1006.320135	0.052637
1006.491328	0.052299
1006.662503	0.051151
1006.833659	0.051714
1007.004798	0.050592
1007.175918	0.050774
1007.347020	0.051364
1007.518103	0.051205
1007.689169	0.050228
1007.860216	0.050962
1008.031245	0.049521
1008.202256	0.051018
1008.373248	0.051193
1008.544223	0.050022
1008.715179	0.049672
1008.886117	0.049812
1009.057036	0.051640
1009.227938	0.053117
1009.398821	0.053533
1009.569686	0.054609
1009.740533	0.054058
1009.911361	0.053361
1010.082172	0.053366
1010.252964	0.052581
1010.423738	0.053314
1010.594493	0.053414
1010.765231	0.052554
1010.935950	0.052724
1011.106651	0.051598
1011.277334	0.050350
1011.447998	0.049318
1011.618645	0.049222
1011.789273	0.049725
1011.959882	0.047064
1012.130474	0.046071
1012.301048	0.045734
1012.471603	0.045718
1012.642140	0.046628
1012.812658	0.048967
1012.983159	0.049657
1013.153641	0.050971
1013.324105	0.052354
1013.494551	0.055033
1013.664979	0.054553
1013.835388	0.056131
1014.005779	0.056420
1014.176152	0.057747
1014.346507	0.057052
1014.516843	0.056271
1014.687162	0.055643
1014.857462	0.053690
1015.027744	0.053039
1015.198007	0.052844
1015.368252	0.053214
1015.538480	0.051285
1015.708689	0.051423
1015.878879	0.049629
1016.049052	0.051696
1016.219206	0.051966
1016.389342	0.052926
1016.559460	0.054177
1016.729559	0.055184
1016.899641	0.053362
1017.069704	0.054258
1017.239749	0.052490
1017.409775	0.053716
1017.579784	0.051056
1017.749774	0.050957
1017.919746	0.050937
1018.089700	0.049862
1018.259635	0.049241
1018.429553	0.050439
1018.599452	0.050147
1018.769333	0.050565
1018.939195	0.050514
1019.109040	0.052721
1019.278866	0.052382
1019.448674	0.050894
1019.618464	0.050658
1019.788235	0.050574
1019.957989	0.050780
1020.127724	0.050936
1020.297441	0.051561
1020.467139	0.051283
1020.636820	0.050238
1020.806482	0.050439
1020.976126	0.051206
1021.145752	0.051849
1021.315359	0.053258
1021.484948	0.052545
1021.654519	0.053156
1021.824072	0.053200
1021.993607	0.054163
1022.163123	0.053649
1022.332621	0.053656
1022.502101	0.055018
1022.671563	0.055040
1022.841007	0.053816
1023.010432	0.054911
1023.179839	0.054713
1023.349228	0.053060
1023.518598	0.053171
1023.687951	0.054942
1023.857285	0.056078
1024.026601	0.054404
1024.195899	0.053425
1024.365178	0.052317
1024.534439	0.051225
1024.703682	0.050253
1024.872907	0.052448
1025.042114	0.051824
1025.211302	0.051421
1025.380472	0.050561
1025.549624	0.051656
1025.718758	0.052566
1025.887873	0.054377
1026.056970	0.055453
1026.226049	0.057257
1026.395110	0.054940
1026.564153	0.055113
1026.733177	0.055988
1026.902183	0.056809
1027.071171	0.056017
1027.240141	0.056085
1027.409092	0.054745
1027.578026	0.054427
1027.746940	0.053482
1027.915837	0.054495
1028.084716	0.054688
1028.253576	0.054353
1028.422418	0.053556
1028.591242	0.054109
1028.760048	0.053055
1028.928835	0.054189
1029.097604	0.053002
1029.266355	0.052560
1029.435088	0.054419
1029.603803	0.053843
1029.772499	0.053821
1029.941177	0.053044
1030.109837	0.053095
1030.278478	0.052288
1030.447102	0.051036
1030.615707	0.050844
1030.784294	0.051464
1030.952863	0.051261
1031.121413	0.050612
1031.289945	0.048248
1031.458460	0.048354
1031.626955	0.048390
1031.795433	0.049313
1031.963892	0.048953
1032.132334	0.048776
1032.300756	0.048130
1032.469161	0.047566
1032.637548	0.049489
1032.805916	0.050097
1032.974266	0.051050
1033.142598	0.050704
1033.310911	0.051755
1033.479207	0.051926
1033.647484	0.052639
1033.815743	0.053314
1033.983983	0.052864
1034.152206	0.052087
1034.320410	0.053217
1034.488596	0.053000
1034.656764	0.053214
1034.824914	0.053973
1034.993045	0.054257
1035.161158	0.054627
1035.329253	0.053770
1035.497330	0.053889
1035.665388	0.052877
1035.833428	0.052521
1036.001450	0.052581
1036.169454	0.052562
1036.337440	0.050166
1036.505407	0.050780
1036.673356	0.050985
1036.841287	0.052644
1037.009200	0.051410
1037.177094	0.051381
1037.344970	0.051610
1037.512828	0.051694
1037.680668	0.051802
1037.848489	0.053521
1038.016293	0.053402
1038.184078	0.053141
1038.351845	0.050703
1038.519593	0.051687
1038.687324	0.051813
1038.855036	0.050759
1039.022730	0.050164
1039.190406	0.048521
1039.358063	0.046754
1039.525702	0.046558
1039.693323	0.048017
1039.860926	0.050388
1040.028511	0.049250
1040.196077	0.049339
1040.363625	0.049191
1040.531155	0.048536
1040.698667	0.049308
1040.866161	0.050822
1041.033636	0.051158
1041.201093	0.049522
1041.368532	0.048002
1041.535952	0.049719
1041.703355	0.050609
1041.870739	0.051399
1042.038105	0.052185
1042.205452	0.052667
1042.372782	0.052463
1042.540093	0.050490
1042.707386	0.049369
1042.874661	0.048361
1043.041918	0.047077
1043.209156	0.047863
1043.376376	0.046784
1043.543578	0.046822
1043.710762	0.048420
1043.877927	0.047882
1044.045074	0.049869
1044.212203	0.051350
1044.379314	0.051192
1044.546407	0.050425
1044.713481	0.049187
1044.880537	0.049365
1045.047575	0.049558
1045.214595	0.047852
1045.381596	0.048341
1045.548579	0.047493
1045.715544	0.046865
1045.882491	0.048589
1046.049420	0.050634
1046.216330	0.050984
1046.383222	0.049579
1046.550096	0.048245
1046.716951	0.048424
1046.883789	0.047818
1047.050608	0.047612
1047.217409	0.048777
1047.384192	0.047623
1047.550956	0.046120
1047.717703	0.045380
1047.884431	0.047327
1048.051140	0.049430
1048.217832	0.048160
1048.384505	0.048696
1048.551161	0.047478
1048.717798	0.045613
1048.884416	0.046246
1049.051017	0.047336
1049.217599	0.046811
1049.384163	0.046722
1049.550709	0.044427
1049.717237	0.045098
1049.883746	0.044552
1050.050237	0.046661
1050.216710	0.047654
1050.383165	0.046508
1050.549601	0.047256
1050.716019	0.049203
1050.882420	0.048584
1051.048801	0.049517
1051.215165	0.049778
1051.381510	0.050516
1051.547837	0.049891
1051.714146	0.050095
1051.880437	0.052219
1052.046709	0.051427
1052.212964	0.051103
1052.379200	0.052003
1052.545417	0.052689
1052.711617	0.052374
1052.877798	0.051747
1053.043961	0.052324
1053.210106	0.053588
1053.376233	0.052503
1053.542341	0.052870
1053.708432	0.052605
1053.874504	0.052192
1054.040557	0.051197
1054.206593	0.051221
1054.372610	0.052730
1054.538609	0.051762
1054.704590	0.050949
1054.870553	0.051101
1055.036497	0.051168
1055.202424	0.049713
1055.368331	0.050892
1055.534221	0.051666
1055.700093	0.051759
1055.865946	0.050529
1056.031781	0.051580
1056.197598	0.050889
1056.363397	0.051513
1056.529177	0.050276
1056.694939	0.053139
1056.860683	0.051618
1057.026409	0.051520
1057.192116	0.052892
1057.357806	0.052934
1057.523477	0.052664
1057.689130	0.053318
1057.854764	0.052488
1058.020381	0.053094
1058.185979	0.050767
1058.351559	0.052669
1058.517120	0.053738
1058.682664	0.052175
1058.848189	0.054265
1059.013696	0.053607
1059.179185	0.053206
1059.344656	0.054468
1059.510108	0.055084
1059.675542	0.055080
1059.840958	0.055139
1060.006356	0.053487
1060.171735	0.054424
1060.337096	0.050928
1060.502439	0.051709
1060.667764	0.050179
1060.833071	0.048264
1060.998359	0.047184
1061.163629	0.046746
1061.328881	0.045374
1061.494115	0.046227
1061.659330	0.046142
1061.824527	0.049054
1061.989706	0.048702
1062.154867	0.049067
1062.320010	0.050074
1062.485134	0.049335
1062.650240	0.050723
1062.815328	0.052074
1062.980398	0.051224
1063.145449	0.051279
1063.310482	0.050843
1063.475497	0.050926
1063.640494	0.051972
1063.805473	0.052552
1063.970433	0.054930
1064.135375	0.054079
1064.300299	0.052368
1064.465204	0.053126
1064.630092	0.054317
1064.794961	0.052831
1064.959812	0.051796
1065.124645	0.050729
1065.289459	0.051309
1065.454256	0.051502
1065.619034	0.053600
1065.783793	0.053089
1065.948535	0.052950
1066.113258	0.050583
1066.277964	0.050768
1066.442651	0.052270
1066.607319	0.054179
1066.771970	0.052151
1066.936602	0.050157
1067.101216	0.048059
1067.265812	0.049933
1067.430389	0.050381
1067.594949	0.048673
1067.759490	0.047719
1067.924013	0.048543
1068.088518	0.046838
1068.253004	0.047939
1068.417472	0.049274
1068.581922	0.048385
1068.746354	0.049420
1068.910768	0.051497
1069.075163	0.054189
1069.239540	0.057214
1069.403899	0.057031
1069.568240	0.058215
1069.732562	0.059127
1069.896866	0.056952
1070.061152	0.056986
1070.225420	0.054294
1070.389670	0.050217
1070.553901	0.049372
1070.718114	0.047873
1070.882309	0.049146
1071.046486	0.049045
1071.210644	0.048777
1071.374784	0.052104
1071.538906	0.051011
1071.703010	0.051520
1071.867096	0.054632
1072.031163	0.056493
1072.195212	0.056540
1072.359243	0.053149
1072.523256	0.053259
1072.687250	0.052981
1072.851226	0.050738
1073.015184	0.053635
1073.179124	0.053575
1073.343045	0.051969
1073.506949	0.051792
1073.670834	0.051542
1073.834701	0.053592
1073.998549	0.053817
1074.162380	0.053439
1074.326192	0.053907
1074.489986	0.052711
1074.653761	0.052537
1074.817519	0.052883
1074.981258	0.052088
1075.144979	0.051999
1075.308682	0.051197
1075.472367	0.049539
1075.636033	0.050717
1075.799681	0.050146
1075.963311	0.050145
1076.126923	0.054430
1076.290516	0.052902
1076.454092	0.052832
1076.617649	0.051124
1076.781187	0.053041
1076.944708	0.053171
1077.108210	0.053442
1077.271695	0.055002
1077.435160	0.054822
1077.598608	0.050177
1077.762038	0.051915
1077.925449	0.051539
1078.088842	0.056128
1078.252217	0.053579
1078.415573	0.053165
1078.578912	0.051448
1078.742232	0.051498
1078.905534	0.054703
1079.068817	0.055879
1079.232083	0.055475
1079.395330	0.056632
1079.558559	0.054080
1079.721770	0.052495
1079.884962	0.053966
1080.048136	0.056148
1080.211293	0.055312
1080.374430	0.054208
1080.537550	0.054121
1080.700651	0.054527
1080.863735	0.056291
1081.026800	0.057859
1081.189846	0.061674
1081.352875	0.061422
1081.515885	0.060065
1081.678877	0.058240
1081.841851	0.057869
1082.004807	0.057335
1082.167744	0.058195
1082.330663	0.054469
1082.493564	0.051697
1082.656447	0.051537
1082.819312	0.051795
1082.982158	0.051548
1083.144986	0.051771
1083.307796	0.049899
1083.470587	0.050658
1083.633361	0.049415
1083.796116	0.052348
1083.958853	0.052822
1084.121571	0.050552
1084.284272	0.051229
1084.446954	0.051184
1084.609618	0.053617
1084.772264	0.053371
1084.934892	0.054285
1085.097501	0.053976
1085.260092	0.054295
1085.422665	0.053545
1085.585220	0.056692
1085.747756	0.056594
1085.910274	0.057866
1086.072774	0.058880
1086.235256	0.060673
1086.397720	0.059912
1086.560165	0.061471
1086.722592	0.057420
1086.885001	0.060292
1087.047392	0.056849
1087.209764	0.055908
1087.372119	0.054900
1087.534455	0.053555
1087.696772	0.052770
1087.859072	0.052925
1088.021353	0.053434
1088.183616	0.055416
1088.345861	0.053239
1088.508088	0.053921
1088.670296	0.057146
1088.832486	0.055602
1088.994658	0.057518
1089.156812	0.058748
1089.318948	0.055497
1089.481065	0.053553
1089.643164	0.052708
1089.805245	0.053749
1089.967308	0.054181
1090.129352	0.050305
1090.291378	0.050801
1090.453386	0.048961
1090.615376	0.048486
1090.777347	0.050195
1090.939301	0.050734
1091.101236	0.052730
1091.263153	0.053311
1091.425051	0.053068
1091.586932	0.056138
1091.748794	0.054305
1091.910638	0.054023
1092.072463	0.055029
1092.234271	0.059745
1092.396060	0.059409
1092.557831	0.060891
1092.719584	0.059973
1092.881319	0.060677
1093.043035	0.056107
1093.204733	0.056988
1093.366413	0.056672
1093.528075	0.055621
1093.689718	0.050225
1093.851343	0.051043
1094.012950	0.047434
1094.174539	0.047544
1094.336110	0.049453
1094.497662	0.053237
1094.659196	0.056129
1094.820712	0.056713
1094.982210	0.058671
1095.143689	0.059408
1095.305151	0.057591
1095.466594	0.060230
1095.628018	0.059160
1095.789425	0.057044
1095.950813	0.056221
1096.112183	0.053764
1096.273535	0.053828
1096.434869	0.053386
1096.596184	0.053433
1096.757482	0.055598
1096.918761	0.054973
1097.080021	0.055965
1097.241264	0.056766
1097.402488	0.056241
1097.563694	0.059479
1097.724882	0.058992
1097.886052	0.058193
1098.047203	0.060665
1098.208336	0.059320
1098.369451	0.058437
1098.530548	0.058968
1098.691627	0.059752
1098.852687	0.060762
1099.013729	0.058644
1099.174753	0.058826
1099.335758	0.056992
1099.496746	0.054152
1099.657715	0.060334
1099.818666	0.062751
1099.979599	0.062311
1100.140513	0.061236
1100.301409	0.062277
1100.462287	0.063832
1100.623147	0.063836
1100.783989	0.061737
1100.944812	0.062559
1101.105617	0.058277
1101.266404	0.060391
1101.427173	0.059190
1101.587923	0.057202
1101.748656	0.055355
1101.909370	0.053593
1102.070066	0.055063
1102.230743	0.057655
1102.391403	0.059082
1102.552044	0.059384
1102.712667	0.055564
1102.873271	0.056949
1103.033858	0.060587
1103.194426	0.062041
1103.354976	0.064224
1103.515508	0.063737
1103.676021	0.064233
1103.836517	0.065630
1103.996994	0.064603
1104.157453	0.066087
1104.317893	0.067085
1104.478316	0.066246
1104.638720	0.063387
1104.799106	0.061767
1104.959474	0.059103
1105.119823	0.062107
1105.280155	0.062512
1105.440468	0.060160
1105.600763	0.059641
1105.761039	0.059130
1105.921298	0.058772
1106.081538	0.061943
1106.241760	0.064919
1106.401964	0.067223
1106.562149	0.065463
1106.722316	0.061957
1106.882465	0.064941
1107.042596	0.064384
1107.202709	0.065422
1107.362803	0.062504
1107.522879	0.064227
1107.682937	0.063137
1107.842977	0.061268
1108.002999	0.059555
1108.163002	0.060150
1108.322987	0.060740
1108.482954	0.058490
1108.642902	0.057432
1108.802833	0.057963
1108.962745	0.056188
1109.122639	0.056460
1109.282515	0.058447
1109.442372	0.060571
1109.602211	0.062746
1109.762032	0.060279
1109.921835	0.062837
1110.081620	0.062768
1110.241386	0.061870
1110.401134	0.061252
1110.560864	0.058403
1110.720576	0.057996
1110.880269	0.058823
1111.039945	0.055668
1111.199602	0.055700
1111.359240	0.055180
1111.518861	0.052912
1111.678463	0.056316
1111.838047	0.054200
1111.997613	0.057088
1112.157161	0.056688
1112.316690	0.053268
1112.476202	0.057607
1112.635695	0.061012
1112.795169	0.061683
1112.954626	0.066643
1113.114064	0.068063
1113.273484	0.071031
1113.432886	0.069146
1113.592270	0.067475
1113.751635	0.069956
1113.910983	0.065461
1114.070312	0.063783
1114.229622	0.061747
1114.388915	0.059750
1114.548189	0.055963
1114.707445	0.054878
1114.866683	0.054492
1115.025903	0.055981
1115.185104	0.056568
1115.344287	0.063374
1115.503452	0.062829
1115.662599	0.069185
1115.821727	0.070149
1115.980838	0.074169
1116.139930	0.073763
1116.299004	0.072212
1116.458059	0.076957
1116.617097	0.075355
1116.776116	0.069657
1116.935117	0.067180
1117.094099	0.063409
1117.253064	0.059810
1117.412010	0.056299
1117.570938	0.054798
1117.729848	0.056836
1117.888740	0.053016
1118.047613	0.053480
1118.206468	0.050962
1118.365305	0.053864
1118.524124	0.052826
1118.682924	0.058509
1118.841707	0.061691
1119.000471	0.064063
1119.159216	0.067213
1119.317944	0.067496
1119.476653	0.065370
1119.635344	0.070300
1119.794017	0.068723
1119.952672	0.070398
1120.111308	0.067075
1120.269927	0.066926
1120.428527	0.067081
1120.587108	0.061295
1120.745672	0.061670
1120.904217	0.059615
1121.062744	0.057221
1121.221253	0.055980
1121.379744	0.053598
1121.538216	0.051215
1121.696671	0.050776
1121.855107	0.050799
1122.013524	0.052427
1122.171924	0.047121
1122.330305	0.049526
1122.488668	0.055121
1122.647013	0.055396
1122.805340	0.059131
1122.963648	0.060095
1123.121938	0.058405
1123.280210	0.057162
1123.438464	0.057609
1123.596700	0.067966
1123.754917	0.070202
1123.913116	0.067884
1124.071297	0.069599
1124.229459	0.067489
1124.387604	0.069603
1124.545730	0.067395
1124.703838	0.065403
1124.861928	0.064725
1125.019999	0.060901
1125.178052	0.058118
1125.336088	0.058090
1125.494104	0.059260
1125.652103	0.062867
1125.810083	0.061957
1125.968045	0.065916
1126.125989	0.064644
1126.283915	0.064264
1126.441823	0.060059
1126.599712	0.061718
1126.757583	0.063033
1126.915436	0.060509
1127.073270	0.056116
1127.231087	0.056804
1127.388885	0.057575
1127.546665	0.064015
1127.704426	0.068624
1127.862170	0.070513
1128.019895	0.071502
1128.177602	0.069676
1128.335291	0.069213
1128.492961	0.065576
1128.650614	0.065844
1128.808248	0.064945
1128.965864	0.059265
1129.123461	0.054848
1129.281041	0.055935
1129.438602	0.054190
1129.596145	0.051003
1129.753670	0.053628
1129.911176	0.057886
1130.068665	0.055568
1130.226135	0.052117
1130.383587	0.055179
1130.541020	0.055336
1130.698436	0.052950
1130.855833	0.053670
1131.013212	0.055420
1131.170573	0.052430
1131.327915	0.052305
1131.485239	0.053979
1131.642545	0.053675
1131.799833	0.052979
1131.957103	0.057594
1132.114354	0.061444
1132.271588	0.062275
1132.428803	0.065643
1132.585999	0.069748
1132.743178	0.071441
1132.900338	0.076046
1133.057480	0.081194
1133.214604	0.078467
1133.371710	0.079010
1133.528797	0.076312
1133.685866	0.077336
1133.842917	0.072882
1133.999950	0.073176
1134.156964	0.076452
1134.313960	0.072192
1134.470938	0.074276
1134.627898	0.081111
1134.784840	0.078085
1134.941763	0.077123
1135.098668	0.078539
1135.255555	0.077888
1135.412424	0.073983
1135.569274	0.072730
1135.726107	0.074503
1135.882921	0.068784
1136.039716	0.062791
1136.196494	0.063769
1136.353253	0.063181
1136.509995	0.057792
1136.666717	0.057965
1136.823422	0.062173
1136.980109	0.059003
1137.136777	0.057295
1137.293427	0.057784
1137.450059	0.060777
1137.606672	0.060339
1137.763267	0.061618
1137.919844	0.069617
1138.076403	0.068953
1138.232944	0.063886
1138.389466	0.059442
1138.545971	0.059073
1138.702457	0.057989
1138.858924	0.059449
1139.015374	0.052878
1139.171805	0.056173
1139.328218	0.046964
1139.484613	0.051123
1139.640990	0.053452
1139.797348	0.054328
1139.953688	0.054820
1140.110010	0.061164
1140.266314	0.061977
1140.422600	0.065542
1140.578867	0.060184
1140.735116	0.064054
1140.891347	0.060412
1141.047559	0.063461
1141.203754	0.067480
1141.359930	0.066799
1141.516088	0.065062
1141.672228	0.058731
1141.828349	0.067039
1141.984452	0.067728
1142.140537	0.068854
1142.296604	0.069000
1142.452653	0.066322
1142.608683	0.060193
1142.764695	0.060715
1142.920689	0.058625
1143.076665	0.061343
1143.232622	0.051177
1143.388562	0.060257
1143.544483	0.060979
1143.700385	0.061296
1143.856270	0.061947
1144.012136	0.064608
1144.167985	0.064909
1144.323814	0.066558
1144.479626	0.060103
1144.635420	0.062053
1144.791195	0.050527
1144.946952	0.052635
1145.102691	0.053329
1145.258411	0.052953
1145.414113	0.054508
1145.569798	0.055873
1145.725463	0.057396
1145.881111	0.054782
1146.036741	0.055367
1146.192352	0.060403
1146.347945	0.049105
1146.503519	0.048026
1146.659076	0.049472
1146.814614	0.047695
1146.970134	0.048386
1147.125636	0.044639
1147.281120	0.053307
1147.436585	0.056766
1147.592032	0.056578
1147.747461	0.065946
1147.902872	0.069748
1148.058265	0.066763
1148.213639	0.069184
1148.368995	0.070185
1148.524333	0.063559
1148.679653	0.065002
1148.834954	0.064395
1148.990237	0.059581
1149.145502	0.054942
1149.300749	0.045649
1149.455977	0.048823
1149.611188	0.048518
1149.766380	0.041210
1149.921553	0.053230
1150.076709	0.049605
1150.231846	0.047154
1150.386966	0.049229
1150.542066	0.051589
1150.697149	0.055178
1150.852214	0.053307
1151.007260	0.051810
1151.162288	0.057594
1151.317298	0.047891
1151.472289	0.054034
1151.627263	0.051949
1151.782218	0.051236
1151.937155	0.055638
1152.092073	0.060249
1152.246974	0.059952
1152.401856	0.059374
1152.556720	0.059001
1152.711566	0.062367
1152.866393	0.065199
1153.021203	0.068905
1153.175994	0.069378
1153.330767	0.065808
1153.485521	0.069752
1153.640258	0.062256
1153.794976	0.065290
1153.949676	0.065254
1154.104358	0.062757
1154.259021	0.057501
1154.413667	0.058490
1154.568294	0.060316
1154.722903	0.062616
1154.877493	0.051262
1155.032066	0.057100
1155.186620	0.055056
1155.341156	0.058647
1155.495674	0.061994
1155.650173	0.061446
1155.804654	0.056452
1155.959118	0.054118
1156.113562	0.042717
1156.267989	0.052198
1156.422397	0.050473
1156.576788	0.048857
1156.731160	0.048697
1156.885513	0.049542
1157.039849	0.046928
1157.194166	0.048519
1157.348465	0.040521
1157.502746	0.051024
1157.657009	0.040096
1157.811253	0.040725
1157.965479	0.042401
1158.119687	0.039307
1158.273877	0.040142
1158.428048	0.041310
1158.582201	0.038139
1158.736337	0.048329
1158.890453	0.049367
1159.044552	0.051539
1159.198632	0.057799
1159.352694	0.061765
1159.506738	0.061733
1159.660764	0.058881
1159.814771	0.057608
1159.968761	0.059237
1160.122732	0.050149
1160.276685	0.052792
1160.430619	0.059481
1160.584535	0.055032
1160.738434	0.054549
1160.892313	0.051031
1161.046175	0.049875
1161.200019	0.054862
1161.353844	0.058447
1161.507651	0.075257
1161.661440	0.079738
1161.815210	0.084439
1161.968962	0.081938
1162.122697	0.076353
1162.276412	0.075071
1162.430110	0.075058
1162.583789	0.076589
1162.737451	0.076591
1162.891094	0.063105
1163.044718	0.055133
1163.198325	0.047867
1163.351913	0.057459
1163.505483	0.058241
1163.659035	0.066882
1163.812569	0.075578
1163.966084	0.077120
1164.119581	0.084175
1164.273060	0.089056
1164.426521	0.095383
1164.579964	0.102019
1164.733388	0.097697
1164.886794	0.103192
1165.040182	0.097069
1165.193551	0.090657
1165.346903	0.082617
1165.500236	0.075359
1165.653551	0.072271
1165.806848	0.070417
1165.960126	0.067231
1166.113386	0.070860
1166.266628	0.063227
1166.419852	0.056520
1166.573058	0.052154
1166.726245	0.053745
1166.879414	0.050583
1167.032565	0.058523
1167.185698	0.061670
1167.338812	0.060903
1167.491909	0.057739
1167.644987	0.053143
1167.798046	0.062993
1167.951088	0.060588
1168.104111	0.062449
1168.257117	0.062864
1168.410103	0.053150
1168.563072	0.038305
1168.716023	0.035235
1168.868955	0.028972
1169.021869	0.037765
1169.174765	0.027628
1169.327642	0.029917
1169.480501	0.019341
1169.633343	0.022248
1169.786165	0.027985
1169.938970	0.029021
1170.091757	0.033172
1170.244525	0.037269
1170.397275	0.040272
1170.550007	0.048660
1170.702720	0.052996
1170.855415	0.072568
1171.008092	0.076827
1171.160751	0.084128
1171.313392	0.095415
1171.466014	0.137584
1171.618619	0.117880
1171.771205	0.117880
1171.923772	0.117880
