sample name	sample
index	1146
start time	 04-22-2021  03:17:35 PM
880	0.289315
Peak Time (s)	102.537
Peak Height 	0.2893
calc peak height	100,103
Baseline Time (s)	8.535
Baseline Value 	-0.005109
subtract baseline	10,4
Abs	0.162326
Peak Time (s)	102.037
Peak Height 	0.1623
calc peak height	100,103
Baseline Time (s)	11.537
Baseline Value 	0.002489
subtract baseline	10,3
PK_550	0.105512
Peak Time (s)	102.537
Peak Height 	0.1055
calc peak height	100,103
Baseline Time (s)	9.036
Baseline Value 	2.5582E-4
subtract baseline	10,2
PK_880	0.152433
Peak Time (s)	101.536
Peak Height 	0.1524
calc peak height	100,103
Baseline Time (s)	11.039
Baseline Value 	0.001823
subtract baseline	10,1


Time (s)	A880-A510	A880-A775	A880-A975	A880	I510	I775	I975	I880	
0.035500	-0.000812	-0.000362	0.002442	0.001528	6276.906960	43213.950047	3925.429069	22730.967114
0.536500	-0.001444	-0.000910	-0.003389	0.003496	6257.049160	42981.683596	3907.591317	22641.501222
1.036000	-0.003961	-0.000121	-0.001136	0.006517	6215.157067	42776.805910	3905.854104	22505.038796
1.539000	0.001263	0.000213	-0.000939	0.001407	6293.767397	43278.438902	3917.935347	22736.477071
2.037000	-0.001647	0.000403	0.004249	0.000755	6276.428835	43356.627183	3931.398736	22766.196012
2.537500	-0.000906	0.000194	-0.002861	0.000576	6283.479767	43353.778554	3915.437268	22774.357335
3.037500	-0.000884	-0.000024	-0.005845	0.006129	6241.309801	42821.283188	3896.125260	22522.511338
3.535000	0.000615	0.000668	0.005948	0.000813	6293.352613	43375.820088	3935.215614	22763.554362
4.035500	0.002222	0.000817	0.002863	0.001104	6303.492956	43362.654088	3927.380491	22750.277523
4.535000	-0.000192	0.000869	0.003168	0.000540	6289.244399	43419.888838	3929.391558	22776.008400
5.036000	-0.000834	-0.000040	0.003707	-0.000067	6288.970133	43391.769403	3932.048624	22803.707486
5.536000	-0.001249	-0.000615	0.002149	-0.000880	6292.030739	43413.934699	3930.319983	22840.924956
6.036500	0.001802	0.000128	0.005550	0.000174	6307.435850	43385.024354	3935.778659	22792.717438
6.539500	-0.001259	0.000481	0.005241	0.000676	6280.005611	43371.164671	3933.889000	22769.782072
7.037000	-0.001064	0.000425	-0.001508	0.000161	6285.456401	43413.822986	3919.485929	22793.303412
7.534500	0.001448	0.000471	-0.002183	0.000007	6305.990801	43432.471093	3918.290347	22800.355299
8.034500	0.000723	0.000694	0.000343	0.000220	6298.745348	43433.357861	3923.602826	22790.602860
8.535000	0.001540	0.000480	-0.002392	0.000000	6306.748924	43433.893027	3917.828054	22800.662125
9.035500	0.000762	0.000000	-0.000091	-0.000293	6303.010681	43416.560469	3923.786153	22814.070897
9.536000	-0.000028	0.000051	0.001292	0.000014	6294.542961	43392.697205	3926.266726	22800.002998
10.036000	0.001439	-0.000313	0.003822	-0.000368	6308.815877	43394.406892	3933.016486	22817.479450
10.536000	-0.002126	-0.000608	-0.000236	0.000603	6273.922591	43276.899505	3921.390392	22773.129685
11.039000	0.000000	-0.000501	0.005161	-0.000706	6300.311398	43408.290029	3936.921877	22832.943150
11.537000	-0.000439	0.000230	0.000000	0.000147	6290.363846	43397.002980	3922.982304	22793.939314
12.037000	-0.001651	-0.000485	0.006631	-0.000641	6287.098837	43403.720014	3940.206970	22829.958456
12.537500	-0.000618	0.000207	-0.000214	0.001328	6279.923741	43285.268803	3919.777376	22740.074295
13.035000	-0.000340	0.000039	-0.001230	0.000056	6291.820654	43387.693831	3920.362506	22798.084394
13.535500	-0.001734	-0.000200	0.003793	-0.000441	6284.927533	43411.711087	3933.118064	22820.815392
14.036000	0.000521	0.000211	0.004828	0.002277	6281.379314	43197.609598	3929.212742	22696.863835
14.536000	-0.002309	-0.000568	-0.006411	0.002540	6257.747202	43101.412288	3902.920998	22684.925918
15.036000	-0.000169	-0.000688	0.002876	-0.001036	6301.555898	43421.633937	3932.368921	22848.053281
15.536500	0.000538	-0.000639	0.004862	-0.000721	6304.586217	43396.948652	3936.261540	22833.651609
16.036500	0.000999	0.000197	0.007991	-0.000179	6303.962880	43424.279848	3942.313092	22808.864209
16.536500	0.000813	-0.000117	0.000008	0.000796	6295.005671	43304.522939	3921.509476	22764.323250
17.037500	0.002329	0.001314	-0.002187	-0.002025	6328.569772	43700.914465	3922.946775	22893.419769
17.534500	-0.001190	-0.000011	0.000286	0.000716	6280.232149	43321.753819	3922.331055	22767.968272
18.034500	-0.000154	0.000836	-0.002849	0.001399	6282.940325	43337.034116	3913.586890	22736.840598
18.535500	0.000069	0.000560	0.006018	0.001619	6282.959100	43290.944509	3933.502740	22726.808828
19.035500	-0.001911	-0.000219	0.002694	0.000708	6274.765697	43303.247618	3927.906492	22768.343829
19.536000	0.000160	0.000884	-0.000528	0.001264	6286.380537	43353.985538	3919.201334	22742.960533
20.036000	-0.001029	-0.000131	-0.002738	0.000679	6281.746765	43314.002908	3915.482196	22769.648483
20.539500	0.002874	0.000619	0.001140	0.001567	6304.952877	43301.242618	3922.337665	22729.176624
21.036500	-0.001631	0.000325	0.003133	0.000932	6275.189424	43332.821159	3928.401164	22758.090515
21.537000	-0.000702	-0.000354	0.004170	0.000643	6284.532661	43296.681885	3931.476043	22771.309178
22.034000	-0.000942	-0.000578	0.001731	0.000457	6284.116098	43293.108026	3926.258463	22779.766374
22.535000	-0.002456	0.000712	0.002977	0.001186	6266.946463	43345.183650	3927.453219	22746.519701
23.038000	0.000790	-0.000010	0.002398	0.000920	6293.868042	43302.860952	3926.728864	22758.647909
23.535500	-0.000411	-0.000500	0.002545	0.000237	6289.888586	43320.831327	3928.648199	22789.821095
24.036000	0.000467	0.000038	0.001682	0.000780	6292.469437	43320.440211	3925.402026	22765.066063
24.536500	0.000634	0.000346	0.000917	0.000928	6292.612820	43335.206033	3923.296731	22758.299816
25.036500	-0.001142	0.000060	0.006198	0.001412	6275.265710	43263.802498	3934.401557	22736.224784
25.537000	-0.000126	-0.000064	0.001592	0.000873	6287.187920	43302.219932	3924.977070	22760.794221
26.037500	-0.000669	0.000265	-0.000483	0.001106	6281.231880	43311.148383	3919.668429	22750.156030
26.537000	0.000980	0.000385	-0.000069	0.001278	6292.577147	43306.329306	3920.223660	22742.315963
27.035000	0.001144	0.000113	0.001838	-0.001834	6317.882773	43570.681449	3931.811281	22884.656052
27.536000	0.001423	0.000028	0.000327	-0.001244	6315.476680	43507.767917	3926.946601	22857.613809
28.035500	0.001408	-0.000316	-0.002720	-0.000363	6308.539882	43393.709786	3917.907857	22817.269820
28.536000	0.001465	0.000562	0.000919	-0.000146	6307.302447	43455.212059	3925.775806	22807.338248
29.036500	0.000287	-0.000042	-0.000495	0.003359	6271.304338	43074.352328	3914.487136	22647.741870
29.536000	0.000979	0.000733	0.005054	0.000360	6299.639048	43424.021173	3934.188330	22784.214607
30.039500	0.001761	0.001027	0.002452	0.000226	6306.716660	43463.817382	3928.460070	22790.349703
30.537000	-0.000604	0.000230	-0.002302	0.002706	6269.485465	43159.781915	3911.855168	22677.388675
31.037500	-0.002951	-0.000108	-0.002027	0.002622	6252.234701	43136.233742	3912.673666	22681.182020
31.534500	0.001571	-0.000051	0.002548	-0.000011	6307.080158	43385.556462	3929.230851	22801.162123
32.035000	-0.001154	-0.000338	0.001237	-0.000599	6290.597845	43413.477299	3927.557053	22828.041119
32.535500	-0.001548	-0.001192	0.004539	0.000923	6275.903968	43193.142928	3931.682883	22758.535529
33.035500	-0.000701	-0.000274	0.000327	0.001306	6279.449618	43242.649179	3921.068150	22741.046620
33.535500	0.001365	0.000404	0.002198	-0.000106	6306.216005	43436.769800	3928.640539	22805.510822
34.036000	0.000761	-0.000614	-0.000043	0.000731	6295.104587	43264.390858	3921.540737	22767.267152
34.536500	0.000882	0.000788	0.005027	0.002683	6281.030392	43213.472029	3928.733029	22678.415746
35.037000	-0.002143	0.000039	-0.000728	0.001867	6264.138581	43219.645107	3917.362834	22715.513520
35.534000	-0.001980	0.000447	0.001177	0.001768	6266.133151	43266.587205	3921.959668	22720.009525
36.037500	-0.000415	-0.000253	-0.001338	0.001814	6277.757675	43197.571127	3916.089790	22717.932968
36.535000	-0.001993	-0.000379	-0.002512	0.001653	6266.920623	43200.855367	3913.776603	22725.262980
37.035000	-0.001854	-0.000093	0.004040	0.002154	6264.148018	43180.840605	3927.673435	22702.441414
37.535000	-0.001319	-0.000568	-0.001872	0.001496	6273.267682	43197.804350	3915.596547	22732.411826
38.035500	-0.002048	-0.000160	0.004796	0.001546	6267.309418	43230.931041	3930.833280	22730.121789
38.536000	-0.003937	-0.000875	-0.002487	0.001571	6252.727155	43162.500666	3914.020041	22728.976319
39.036500	-0.000960	-0.000291	0.006487	0.001408	6276.685660	43231.609342	3935.085787	22736.406834
39.539500	-0.001560	-0.000101	0.002322	0.001560	6270.934565	43235.170768	3925.076927	22729.498398
40.036500	-0.000167	-0.000560	0.005192	0.001841	6279.445171	43166.725727	3931.068593	22716.710733
40.536500	-0.000240	0.000917	0.000620	0.003191	6268.562614	43178.466351	3917.418814	22655.364601
41.037000	-0.000825	0.000621	0.004893	0.001629	6276.027737	43295.655078	3930.864765	22726.353228
41.535000	-0.000810	-0.000246	-0.001881	0.000501	6284.791462	43319.927786	3917.852257	22777.786172
42.035000	0.000258	0.000994	0.001569	0.001889	6282.339864	43306.163173	3922.585303	22714.514395
42.535500	-0.002351	-0.001107	-0.001318	0.000809	6270.623934	43211.486162	3918.433927	22763.698897
43.035500	-0.001274	0.001133	-0.002240	0.001473	6273.783555	43357.693487	3914.808552	22733.452980
43.536500	0.000164	0.000151	0.000557	0.001063	6287.959779	43304.632730	3922.158091	22752.148811
44.039000	0.003009	0.000466	0.005251	-0.001780	6331.948371	43598.638523	3939.643253	22882.175242
44.537500	-0.000835	-0.000147	0.000235	0.001494	6276.991300	43237.060302	3920.427195	22732.504837
45.037000	0.000759	0.001118	-0.000920	0.000700	6295.329593	43428.227685	3919.597130	22768.704975
45.537000	0.000021	-0.000080	0.005156	-0.000375	6297.927638	43416.791678	3936.140802	22817.828475
46.034500	-0.001810	0.000415	0.003135	0.000324	6278.484177	43397.723706	3929.814862	22785.864741
46.535000	-0.000228	-0.000260	0.000233	0.001851	6278.903506	43193.501744	3919.601640	22716.250589
47.035500	-0.003116	0.000601	0.003160	0.001791	6257.293732	43278.748444	3926.476716	22718.949605
47.535500	-0.001919	0.000724	0.005107	0.001763	6266.640724	43292.828092	3931.051018	22720.262201
48.036000	0.000647	0.000062	-0.002287	0.002595	6279.904769	43154.387241	3912.141950	22682.396586
48.537000	-0.001523	0.000968	0.001880	0.002375	6264.987072	43258.667562	3922.182518	22692.400471
49.036500	-0.000754	0.001280	-0.000631	0.002017	6273.601782	43320.851926	3917.241047	22708.685400
49.537000	-0.000040	0.000501	0.001927	0.000466	6290.976906	43392.520452	3926.690322	22779.364497
50.037000	0.000706	0.000480	0.002702	-0.002541	6319.969934	43671.185870	3935.469190	22917.163073
50.534500	-0.002154	0.001290	0.002341	0.012412	6184.567010	42368.239083	3900.397150	22241.376168
51.035000	-0.003543	-0.004261	0.009613	0.012213	6175.720773	41886.262933	3917.351646	22250.239968
51.535000	0.014765	-0.010780	-0.009359	0.272488	4798.120094	24042.319497	3445.872863	13549.959639
52.035500	-0.009962	-0.027105	-0.023557	-0.144719	7511.547593	55948.764751	4245.129155	30650.562533
52.535500	-0.014210	-0.045011	-0.020665	-0.203887	8126.359047	61225.120350	4448.184418	34693.480639
53.036000	0.000548	-0.075953	-0.003639	-0.263144	9088.042490	65147.163553	4741.000263	39333.983118
53.539000	0.004888	-0.028797	0.004951	-0.187155	8154.634121	61155.704349	4479.699973	33493.822068
54.036500	0.009854	-0.018610	0.007362	-0.155238	7841.509539	58317.943734	4377.466104	31329.633278
54.537000	0.007454	-0.010266	0.006660	-0.112892	7362.690501	54152.902009	4240.237949	28693.205218
55.037000	0.007451	-0.008593	0.007286	-0.114086	7374.807281	54491.614805	4245.765669	28764.043293
55.534500	0.017192	-0.004650	0.013860	-0.118924	7525.838444	55543.109506	4280.980842	29053.226656
56.035000	0.022963	0.001389	0.019297	-0.090217	7290.487163	52871.521978	4210.144871	27383.632332
56.535500	0.027191	0.008929	0.023756	-0.028828	6755.287399	47056.930890	4052.041664	24162.975014
57.035500	0.027342	0.010339	0.023087	-0.020136	6681.197597	46324.546106	4027.972494	23742.675216
57.535500	0.037858	0.013639	0.029692	-0.023540	6802.697971	46998.305151	4053.728235	23906.252168
58.036000	0.037098	0.018472	0.035151	0.036731	6297.703225	41726.828872	3919.688793	21190.880932
58.536500	0.043447	0.023672	0.039178	0.037550	6340.584277	42119.317586	3927.076203	21156.495556
59.037000	0.052339	0.027753	0.046870	0.059648	6239.064879	40530.039085	3894.325991	20253.345793
59.536500	0.057171	0.032262	0.052141	0.087684	6067.980554	38551.509308	3844.735410	19171.653336
60.037000	0.064327	0.037016	0.057014	0.108141	5973.954244	37289.403335	3812.255523	18425.322152
60.534500	0.071765	0.042094	0.064801	0.126770	5897.044455	36236.244213	3790.336868	17775.564739
61.035000	0.073026	0.045440	0.076972	0.142817	5798.425777	35278.649766	3782.633069	17237.810258
61.535000	0.083252	0.046649	0.082580	0.154294	5790.234054	34524.630806	3771.096607	16865.198092
62.035500	0.089902	0.051238	0.097034	0.184199	5642.180985	32740.110393	3741.463567	15939.318866
62.535500	0.089942	0.051450	0.098241	0.152480	5846.382164	35008.359031	3805.907032	16923.433768
63.039000	0.095540	0.052738	0.098949	0.149624	5903.297786	35315.125315	3813.181072	17015.614167
63.536500	0.100768	0.055606	0.106748	0.201418	5603.103692	31873.240305	3727.447445	15434.437182
64.036500	0.099524	0.054398	0.106559	0.206971	5561.908901	31427.325223	3716.882752	15275.813822
64.537000	0.103658	0.055556	0.111355	0.246673	5356.581456	29013.945966	3655.593572	14199.082442
65.034000	0.105147	0.057730	0.117177	0.252365	5333.410423	28804.174586	3655.813409	14052.622752
65.534500	0.110517	0.056925	0.117175	0.269511	5269.665269	27759.685094	3627.450867	13622.858056
66.035500	0.106844	0.056305	0.113847	0.320764	4994.168879	24973.204999	3544.285345	12434.884391
66.535000	0.105609	0.054590	0.119541	0.347874	4865.063062	23562.781304	3514.404444	11860.974682
67.036000	0.101972	0.058371	0.123605	0.355397	4816.493763	23386.450039	3509.714810	11707.956542
67.536500	0.110641	0.056604	0.130831	0.353654	4861.764208	23385.324774	3521.951648	11743.161947
68.039000	0.108137	0.059842	0.125505	0.356381	4838.889725	23409.322511	3510.954047	11688.145411
68.539500	0.113477	0.063938	0.136384	0.362337	4836.211639	23322.144108	3517.653387	11569.134927
69.037000	0.115164	0.064951	0.136381	0.365565	4829.527960	23218.773956	3513.246714	11505.302509
69.537000	0.118899	0.067965	0.129971	0.368435	4833.278506	23225.536419	3500.775166	11448.974278
70.035000	0.114994	0.069574	0.135757	0.369340	4812.538864	23258.291843	3507.300803	11431.268040
70.535000	0.119934	0.070417	0.134293	0.369115	4834.812688	23308.112708	3505.636541	11435.661618
71.035500	0.121743	0.073452	0.132250	0.370716	4835.721952	23375.316597	3500.772377	11404.451672
71.535500	0.122532	0.073828	0.132503	0.368705	4847.910078	23487.534176	3503.790158	11443.682827
72.036000	0.130645	0.075810	0.132775	0.366758	4892.373139	23673.627285	3506.764732	11481.847021
72.539000	0.129678	0.077791	0.136005	0.364300	4899.048024	23885.929841	3514.456137	11530.257609
73.036500	0.126657	0.079019	0.143366	0.354166	4931.220930	24439.312400	3538.758209	11732.807022
73.537000	0.128013	0.080496	0.140673	0.345428	4977.793880	24949.295611	3547.385613	11911.289225
74.037000	0.132752	0.081454	0.140783	0.337679	5036.927102	25393.630077	3558.782092	12072.608562
74.534500	0.128525	0.082217	0.134791	0.330526	5051.031485	25805.340646	3560.483243	12224.091208
75.035000	0.129668	0.083761	0.136632	0.320394	5106.269937	26426.518052	3578.295071	12442.962546
75.535500	0.131391	0.085339	0.136388	0.313573	5149.102124	26883.818383	3588.291021	12593.230230
76.035500	0.131132	0.084910	0.134590	0.306046	5186.201794	27277.226183	3597.121427	12761.801620
76.536000	0.132303	0.086302	0.142042	0.300140	5222.928925	27688.492901	3618.171319	12896.141915
77.038500	0.129864	0.087630	0.134674	0.295243	5235.823889	28044.694264	3614.227610	13008.901463
77.536000	0.131714	0.089095	0.139537	0.290876	5268.767023	28383.154575	3629.068393	13110.547575
78.036500	0.133550	0.089005	0.139495	0.287046	5299.210436	28602.612304	3635.252784	13200.542106
78.536500	0.130843	0.088722	0.136739	0.285974	5290.385247	28649.168010	3632.496395	13225.874925
79.037000	0.128853	0.089696	0.138674	0.281097	5305.991252	28996.903631	3643.709634	13341.908512
79.534500	0.127970	0.091153	0.130359	0.279130	5311.878170	29202.628461	3633.254782	13389.083751
80.035000	0.129093	0.091320	0.134458	0.277482	5326.992068	29312.340846	3642.712990	13428.771529
80.535000	0.128675	0.091127	0.134172	0.278852	5317.224659	29217.856226	3639.974642	13395.765167
81.037500	0.129529	0.092089	0.134626	0.276888	5332.634167	29394.999222	3643.976654	13443.108617
81.536000	0.131314	0.091316	0.139115	0.276187	5346.309488	29390.626888	3652.640568	13460.060227
82.036500	0.130881	0.091832	0.141470	0.277033	5339.263991	29370.661199	3655.181475	13439.621190
82.536500	0.130328	0.092325	0.139597	0.281613	5311.196136	29123.661976	3644.384551	13329.571063
83.036500	0.133255	0.092595	0.138389	0.280121	5335.339082	29229.868947	3644.857207	13365.298034
83.537000	0.131071	0.092177	0.137992	0.280022	5323.919801	29210.614609	3644.362603	13367.683007
84.037000	0.131200	0.091379	0.142662	0.279313	5328.501545	29205.215156	3653.349293	13384.689241
84.535000	0.133098	0.093436	0.144454	0.281781	5325.379672	29180.461701	3652.213064	13325.559359
85.038000	0.133122	0.093360	0.137343	0.282590	5321.096157	29127.191982	3639.040140	13306.264531
85.535500	0.132592	0.093195	0.142916	0.282118	5320.781425	29145.687488	3649.072893	13317.529427
86.035500	0.135196	0.093773	0.148896	0.282453	5333.194064	29160.268941	3658.567854	13309.525273
86.539000	0.133887	0.094813	0.136503	0.287013	5301.210194	28949.183184	3630.417625	13201.325613
87.036000	0.136247	0.093880	0.148138	0.283841	5331.346484	29083.308592	3654.945182	13276.481432
87.537000	0.140130	0.095916	0.143614	0.285894	5341.401993	29082.248385	3643.948251	13227.784112
88.036500	0.140854	0.096293	0.151561	0.286234	5343.509560	29084.454492	3656.680140	13219.725516
88.534500	0.142748	0.097260	0.148937	0.290384	5331.114610	28894.083459	3645.330757	13122.079376
89.035000	0.143218	0.097114	0.148350	0.287821	5347.800437	29038.521148	3648.623528	13182.277870
89.535000	0.144177	0.098115	0.153447	0.289137	5345.825236	29019.622569	3654.966372	13151.315247
90.035500	0.143056	0.099589	0.156671	0.289995	5334.937540	29056.549622	3658.961998	13131.182854
90.536000	0.144301	0.098999	0.150427	0.292175	5329.809239	28890.946767	3644.829338	13080.213398
91.035500	0.147041	0.100161	0.156284	0.290877	5352.033655	29037.973732	3656.816508	13110.535874
91.536000	0.144870	0.099340	0.153083	0.290429	5342.530235	29015.673999	3652.181735	13121.029232
92.036000	0.146291	0.099421	0.158241	0.290141	5351.956578	29037.710882	3661.379689	13127.761186
92.536500	0.146480	0.101223	0.151000	0.295312	5324.569077	28836.614003	3640.582838	13007.308482
93.039500	0.148455	0.102426	0.156731	0.292225	5352.400463	29092.992139	3655.296050	13079.041816
93.534500	0.150399	0.103245	0.155682	0.291573	5366.798530	29181.503743	3654.627966	13094.269864
94.037500	0.150570	0.102746	0.158789	0.291162	5370.037996	29176.189453	3660.576529	13103.868413
94.535500	0.145694	0.102312	0.151513	0.293103	5332.362421	29033.492798	3645.093121	13058.600977
95.035000	0.148673	0.102687	0.154085	0.289087	5371.029969	29297.902107	3656.126494	13152.492993
95.535500	0.151713	0.102769	0.156900	0.288661	5390.425652	29328.704276	3661.615827	13162.515589
96.041500	0.150036	0.103668	0.158968	0.288085	5384.244507	29418.264349	3666.124079	13176.061258
96.536000	0.144673	0.102380	0.157068	0.291563	5335.209928	29129.993498	3656.982173	13094.503500
97.036500	0.150384	0.104321	0.154551	0.287149	5391.452755	29515.049212	3660.194090	13198.131776
97.536500	0.151692	0.103553	0.155166	0.285522	5408.002561	29567.511118	3664.007078	13236.575148
98.037000	0.149170	0.103433	0.156089	0.285456	5394.150506	29564.241856	3665.697022	13238.155313
98.534500	0.147063	0.103937	0.154736	0.290292	5355.394319	29300.663651	3655.191545	13124.231944
99.035000	0.149395	0.102903	0.151861	0.283390	5407.069433	29658.243331	3662.009144	13287.188781
99.534000	0.148415	0.102783	0.157909	0.283708	5399.739788	29631.405644	3671.821011	13279.627143
100.035500	0.146933	0.104354	0.155795	0.283907	5390.275994	29715.660931	3667.845525	13274.895401
100.536000	0.145055	0.105177	0.155470	0.288347	5355.048163	29494.214040	3659.720608	13169.896956
101.036000	0.149778	0.105364	0.155293	0.284426	5403.376793	29745.904367	3666.097105	13262.573082
101.536000	0.152433	0.105455	0.158915	0.284457	5418.242216	29749.531347	3672.264145	13261.828467
102.037000	0.150323	0.104997	0.162326	0.284307	5407.130848	29730.626633	3678.432458	13265.402497
102.537000	0.151687	0.105512	0.158011	0.289315	5386.609344	29455.593725	3662.393976	13147.143006
103.038000	0.150726	0.106028	0.163346	0.284977	5405.617714	29752.846294	3679.039674	13249.491018
103.535000	0.150167	0.105333	0.162569	0.284029	5407.822319	29768.467042	3679.339228	13272.012294
104.035000	0.151355	0.104979	0.162242	0.283683	5416.517416	29767.892874	3679.371383	13280.226079
104.535500	0.149892	0.104755	0.157299	0.288892	5378.925637	29435.321954	3661.901559	13157.087479
105.035500	0.153506	0.106625	0.170949	0.284901	5421.816670	29794.302054	3692.522358	13251.294561
105.538000	0.156888	0.104892	0.165618	0.283714	5447.953494	29760.627270	3685.216250	13279.487420
106.036500	0.156263	0.105937	0.161940	0.284172	5441.733168	29796.858994	3677.995779	13268.608339
106.536500	0.155685	0.106367	0.167409	0.288019	5416.479075	29586.875118	3680.818889	13177.611010
107.037000	0.156492	0.106273	0.162998	0.283351	5447.766384	29868.310978	3681.268254	13288.137466
107.537000	0.158010	0.106652	0.164144	0.282689	5460.329718	29932.755136	3684.430957	13303.903173
108.034000	0.156189	0.105956	0.169810	0.282545	5450.652777	29898.515834	3694.681224	13307.320181
108.535000	0.156191	0.106770	0.154415	0.288471	5416.791336	29583.925616	3657.724259	13166.984940
109.034500	0.157019	0.107708	0.164884	0.282976	5452.959410	29980.513139	3685.224289	13297.069456
109.541000	0.156778	0.108142	0.160904	0.281896	5457.792743	30074.642587	3680.153818	13322.821512
110.038500	0.155582	0.108175	0.158572	0.281771	5451.620886	30084.507355	3676.316042	13325.798500
110.536000	0.153272	0.108857	0.158450	0.287584	5405.273732	29766.502123	3666.095005	13187.857466
