sample name	sample
index	245
start time	 02-22-2021  11:41:00 AM
880	0.174359
Peak Time (s)	91.535
Peak Height 	0.1744
calc peak height	90,93
Baseline Time (s)	8.765
Baseline Value 	-0.002725
subtract baseline	10,4
Abs	0.151598
Peak Time (s)	92.035
Peak Height 	0.1516
calc peak height	90,93
Baseline Time (s)	9.535
Baseline Value 	0.003172
subtract baseline	10,3
PK_550	0.076399
Peak Time (s)	91.035
Peak Height 	0.0764
calc peak height	90,93
Baseline Time (s)	8.765
Baseline Value 	-2.8107E-4
subtract baseline	10,2
PK_880	0.147556
Peak Time (s)	92.035
Peak Height 	0.1476
calc peak height	90,93
Baseline Time (s)	9.071
Baseline Value 	0.001966
subtract baseline	10,1


Time (s)	A880-A510	A880-A775	A880-A975	A880	I510	I775	I975	I880	
0.035000	-0.004758	-0.001043	-0.006155	0.005046	6832.809112	46286.895121	3988.246814	24490.760282
0.535000	-0.002917	-0.000185	-0.001825	0.003344	6865.154009	46543.408829	4004.125260	24575.681288
1.035000	-0.000806	-0.000066	-0.004390	0.002948	6888.207993	46595.199741	3998.391973	24595.486974
1.536000	-0.001977	-0.000478	-0.002022	-0.000249	6906.924656	46876.232802	4013.163264	24755.992994
2.036000	-0.003477	-0.000174	-0.000255	0.002990	6863.264778	46580.064189	4009.236527	24593.364606
2.535500	-0.000172	0.000679	0.002486	0.000545	6916.300700	46913.151195	4023.128470	24716.044658
3.037000	0.000429	0.000028	-0.004060	-0.002180	6947.300699	47123.794474	4012.878359	24853.555388
3.537000	0.000371	0.000596	-0.002356	0.000345	6923.204099	46924.995054	4010.685462	24726.093513
4.037000	-0.003758	0.000155	-0.005917	0.000296	6885.434697	46885.138384	4001.361142	24728.543703
4.545000	0.000206	0.000827	-0.003481	0.000820	6917.257100	46900.149643	4006.427016	24702.175925
5.037500	-0.001373	0.000441	-0.000913	0.000319	6907.256384	46911.860219	4014.610615	24727.398319
5.538500	-0.001288	0.000187	-0.006702	0.000544	6905.965391	46863.334504	3998.634429	24716.093179
6.035500	-0.000930	0.000246	-0.001582	-0.000116	6915.398897	46936.270642	4013.984756	24749.322256
6.536500	-0.002065	-0.000273	-0.000430	-0.000526	6908.671097	46925.163641	4018.167616	24769.964606
7.046500	0.000615	0.000718	-0.004338	0.000354	6925.390472	46936.422382	4005.389215	24725.626961
7.537000	-0.001157	0.000088	-0.004294	-0.000239	6914.435581	46932.695830	4007.083532	24755.527344
8.327000	-0.000772	-0.000063	-0.004386	-0.000094	6916.663407	46902.678055	4006.452338	24748.198744
8.765500	-0.001062	0.000000	-0.007768	0.000000	6913.097007	46899.502195	3997.255297	24743.463810
9.070500	0.000000	0.000608	0.000772	0.002900	6896.084689	46667.892310	4012.214785	24597.881096
9.535000	0.001033	-0.000297	0.000000	-0.000647	6938.612371	46934.990231	4019.645917	24776.060804
10.035000	0.000149	-0.000465	0.002272	-0.000583	6929.784711	46911.467674	4025.595444	24772.874666
10.535500	0.001604	0.000699	-0.000638	0.000084	6937.121125	46961.841578	4015.972396	24739.215255
11.036000	-0.001541	0.000236	0.001158	0.001013	6899.288728	46820.849628	4018.298871	24692.516703
11.536000	-0.001077	-0.000088	-0.003284	-0.000165	6914.490325	46907.255944	4009.571697	24751.775180
12.036000	-0.000842	-0.000086	-0.002274	0.000030	6914.853428	46887.730370	4011.743111	24741.931533
12.536500	0.000104	0.000222	-0.002571	-0.000047	6924.369298	46926.732957	4011.160149	24745.838075
13.036500	0.000963	0.000597	-0.000185	0.000192	6930.141885	46940.623804	4016.899375	24733.807598
13.537000	0.001021	-0.000247	-0.001179	-0.000207	6934.404254	46895.502777	4015.307015	24753.911930
14.037500	-0.004255	-0.000640	-0.000823	0.001108	6873.394499	46722.768150	4012.741320	24687.732383
14.535000	-0.000784	0.000067	-0.002250	0.001947	6897.647577	46709.448157	4006.707498	24645.632855
15.037000	-0.001517	-0.001453	-0.001068	-0.000394	6912.532120	46792.311960	4016.104098	24763.335195
15.535500	0.001085	0.000116	0.000605	-0.000319	6936.043675	46943.581894	4020.391911	24759.531440
16.036000	-0.001127	-0.000068	0.001852	-0.000788	6919.809639	46972.492460	4025.014153	24783.198697
16.536500	0.000615	0.000032	0.001929	-0.000710	6935.302302	46974.729054	4025.010916	24779.256389
17.036500	-0.000183	-0.000302	0.001045	-0.000945	6930.054778	46964.619784	4023.259725	24791.097117
17.536500	0.000762	-0.000343	0.002303	-0.002183	6950.448660	47086.330424	4030.007385	24853.706246
18.036500	-0.002700	-0.000073	-0.004710	0.000575	6892.624812	46833.915762	4003.817667	24714.529076
18.534500	-0.001802	0.000155	-0.004051	0.000974	6897.229087	46816.642494	4004.508886	24694.461267
19.037500	-0.001217	0.000396	-0.002536	0.001140	6901.105921	46824.215149	4008.092035	24686.138318
19.535000	-0.001088	-0.001003	-0.003749	0.000245	6910.585872	46773.194293	4007.244619	24731.105969
20.035500	-0.001928	-0.000114	-0.002836	0.000716	6898.454911	46815.560333	4008.420216	24707.449572
20.535500	0.000375	-0.000934	-0.000943	0.000388	6922.836895	46765.741536	4014.343440	24723.916337
21.036000	-0.000607	-0.000138	-0.007183	0.000678	6911.033660	46816.936032	3997.012083	24709.356919
21.536000	-0.001918	-0.000695	0.000122	0.000342	6901.999621	46794.540242	4017.319442	24726.235672
22.036500	-0.000051	0.000384	0.000992	0.001573	6907.888516	46779.172638	4016.352854	24664.381691
22.536500	-0.002157	-0.000014	0.002216	0.001009	6893.624247	46795.925316	4021.151503	24692.683952
23.034000	-0.000401	0.000477	-0.004625	0.001376	6906.469407	46808.508835	4001.922759	24674.263297
23.535000	-0.000646	0.000111	-0.001942	0.001241	6905.451741	46785.134778	4009.400471	24681.025061
24.034500	-0.000157	-0.000758	-0.004819	0.000611	6915.827960	46760.987681	4003.434420	24712.718011
24.535000	-0.001472	-0.000519	-0.001767	0.000735	6902.485405	46772.592934	4011.216799	24706.470145
25.035500	-0.001180	-0.001000	-0.002237	0.000882	6903.831341	46709.215373	4009.572523	24699.096057
25.535500	-0.002657	-0.000275	-0.003923	0.001188	6887.355500	46751.508389	4004.279047	24683.680520
26.036500	0.000999	-0.000049	-0.001440	0.001316	6920.020119	46761.446986	4010.540229	24677.272081
26.536000	-0.000303	0.000564	0.000571	0.001632	6905.004841	46791.396994	4015.066143	24661.404008
27.036500	-0.002234	0.000007	-0.001835	0.001819	6885.441910	46716.297211	4008.149736	24652.024476
27.536500	0.000747	0.000228	0.003012	-0.001663	6945.433455	47091.523515	4030.517756	24827.372851
28.037500	-0.001671	0.000367	-0.002167	-0.000262	6909.875230	46963.281932	4012.810141	24756.646286
28.535000	0.001174	-0.000263	-0.004200	-0.000450	6938.095510	46918.412109	4007.892115	24766.125382
29.035000	-0.001406	-0.000362	-0.005302	0.001618	6894.935646	46699.372633	3999.494240	24662.125221
29.535000	-0.000818	0.000007	-0.000485	-0.000299	6918.142647	46930.494209	4017.410211	24758.523410
30.035500	-0.001234	-0.000276	-0.000706	-0.000259	6913.911456	46897.844053	4016.711469	24756.527285
30.535000	0.000687	0.000115	0.000354	-0.000294	6932.099992	46940.971689	4019.650359	24758.269589
31.036000	-0.002210	0.000654	-0.003041	0.003711	6868.270942	46590.859963	3999.937976	24557.330480
31.536000	-0.000880	-0.000915	-0.006959	-0.000351	6918.053070	46842.426932	4000.318521	24761.169483
32.037000	-0.000565	0.001143	-0.001948	0.000851	6909.819448	46929.131876	4010.427686	24700.658717
32.535000	0.000365	0.000538	0.000062	-0.000010	6926.449196	46955.048719	4018.101877	24743.942514
33.037000	-0.001667	0.000069	0.002408	0.001937	6889.583376	46710.639248	4019.175896	24646.124070
33.535000	-0.000142	-0.001199	-0.003584	-0.000578	6927.018184	46836.596134	4009.875158	24772.603156
34.035000	0.000079	0.000046	-0.001400	0.001533	6909.464547	46749.073673	4010.068400	24666.366650
34.536500	-0.000800	0.000443	-0.003202	0.001813	6898.732932	46760.909458	4004.533381	24652.322817
35.036000	-0.001004	-0.000475	-0.002096	0.001386	6900.793116	46711.281587	4008.606022	24673.743144
35.536000	-0.001953	-0.000470	-0.003631	0.001105	6894.618839	46740.148224	4005.273436	24687.863018
36.036500	-0.002468	-0.000220	-0.003116	0.001506	6886.179776	46724.963838	4005.577500	24667.757066
36.536500	-0.000257	0.000013	-0.002262	0.001829	6903.607372	46715.818497	4006.985035	24651.518040
37.037000	-0.000660	-0.000489	-0.000073	0.001830	6899.877776	46665.196631	4012.817198	24651.482304
37.535500	-0.003308	-0.000437	0.000654	0.001738	6876.299420	46679.649194	4015.006032	24656.075705
38.034500	-0.000362	-0.000355	-0.003029	0.001804	6902.874843	46681.328759	4005.017691	24652.791233
38.535500	-0.002515	0.000206	-0.002820	0.001520	6885.617459	46766.596553	4006.325817	24667.052067
39.035500	-0.001425	-0.000873	-0.001757	0.002132	6890.022370	46596.116776	4007.524033	24636.339445
39.535500	-0.002475	0.000176	-0.001798	0.001732	6884.025469	46742.098037	4008.477538	24656.379309
40.035500	-0.005351	-0.000144	-0.002604	0.001413	6860.547264	46742.107504	4007.185490	24672.428050
40.536500	-0.002538	-0.000411	-0.001134	0.001536	6885.253071	46702.748224	4010.769603	24666.250597
41.036500	-0.001699	-0.000724	-0.001455	0.002082	6887.949538	46616.126228	4008.460410	24638.835568
41.535000	-0.001045	-0.000829	0.000651	0.001290	6901.303950	46685.293497	4016.197862	24678.583807
42.037000	0.001675	0.000465	-0.000129	0.002431	6915.944119	46700.843291	4011.064509	24621.373283
42.535000	-0.000532	-0.000478	-0.002713	0.001600	6903.182559	46689.497245	4006.398476	24663.022742
43.035000	-0.002129	0.000439	-0.001672	0.002664	6878.628435	46674.627729	4006.334458	24609.680520
43.541000	0.000618	0.000434	-0.002517	-0.001435	6942.105846	47089.269599	4015.011213	24815.876848
44.035500	0.000701	-0.000684	0.001516	-0.001910	6947.319623	47023.953065	4027.137023	24839.901944
44.538000	-0.001538	-0.000272	-0.002567	-0.000831	6916.388104	46956.155911	4013.260177	24785.349822
45.035500	-0.002274	-0.000378	-0.005341	0.001484	6888.162142	46711.213068	3999.743374	24668.819636
45.536500	-0.001119	0.000305	-0.007176	0.001619	6897.573019	46766.496284	3994.553079	24662.048486
46.036500	-0.000407	-0.000624	-0.000219	-0.000393	6922.831608	46876.069617	4018.375886	24763.258551
46.537000	0.000447	0.000828	0.002115	0.000016	6926.969961	46981.781723	4023.552514	24742.642673
47.037500	-0.001868	-0.000488	-0.002649	0.001979	6887.338207	46650.230342	4005.559391	24643.981132
47.537000	-0.001877	0.000386	0.000970	0.003232	6875.730630	46612.069643	4011.859630	24581.285278
48.035500	-0.000419	0.000522	-0.002381	0.000197	6917.241487	46932.499283	4011.015674	24733.565600
48.535000	-0.000450	0.000531	-0.003215	-0.000074	6919.470104	46960.826873	4009.513996	24747.202293
49.037500	-0.002464	-0.000377	0.000805	0.001811	6883.404257	46678.422195	4015.216556	24652.452496
49.536000	-0.000130	0.000313	-0.001122	0.001456	6908.247172	46783.905582	4011.016500	24670.266662
50.036000	0.001306	0.000023	0.001846	0.000578	6929.741825	46843.250216	4021.316721	24714.358246
50.536500	0.001507	0.000035	-0.000863	-0.009776	7029.268481	47904.890864	4042.066164	25241.481754
51.036000	-0.028994	-0.017363	0.016070	0.188106	5333.984401	30312.331819	3636.844541	17053.342885
51.537000	-0.025463	-0.022639	0.004335	0.054485	6243.850532	39739.413673	3890.851632	22164.080025
52.037500	-0.023839	-0.026374	0.002586	-0.078003	7459.462438	52454.411425	4255.460791	29047.634787
52.534500	-0.014985	-0.065310	0.001695	-0.208936	9196.829871	64147.536377	4745.098517	38259.658310
53.035000	-0.022449	-0.029238	0.002763	-0.114581	7877.488131	56455.050413	4379.334348	31348.198528
53.535000	-0.020585	-0.024525	0.003628	-0.105682	7797.252115	55941.356104	4351.356550	30770.566100
54.035500	-0.009808	-0.017506	0.004507	-0.096820	7818.952752	55716.628763	4324.061037	30206.902565
54.535500	0.006727	-0.009924	0.012259	-0.097564	8019.271168	56739.028345	4353.126143	30253.788643
55.036000	0.015358	-0.004366	0.018759	-0.086840	7994.581616	56102.417180	4338.606105	29585.825322
55.536500	0.026918	-0.000811	0.027278	-0.078173	8028.742571	55479.851202	4338.098505	29057.918934
56.037000	0.037894	0.005239	0.036498	-0.054702	7882.827604	53412.126301	4290.154834	27680.015767
56.537000	0.046632	0.011558	0.045650	-0.032628	7731.650191	51612.346923	4248.015302	26450.334230
57.033500	0.054894	0.019969	0.047687	-0.008058	7552.998320	49833.041648	4177.474755	25153.163225
57.537500	0.061038	0.023387	0.061302	0.014403	7380.825675	47819.322060	4150.769553	24029.858940
58.034500	0.075690	0.030934	0.070991	0.039750	7271.438475	46015.240331	4104.806602	22830.063083
58.536000	0.082392	0.035979	0.083986	0.058162	7154.717332	44708.262577	4089.288940	22001.421619
59.035500	0.090561	0.043600	0.093449	0.069951	7119.264939	44308.917172	4082.682449	21488.981971
59.536000	0.100175	0.049387	0.103588	0.086701	7050.238170	43276.556143	4064.102543	20784.434828
60.036500	0.108468	0.054748	0.112852	0.107919	6928.074191	41828.709248	4031.220095	19930.099637
60.536500	0.108747	0.057499	0.106373	0.106323	6945.576542	42220.342378	4018.045829	19992.931450
61.037000	0.112397	0.060448	0.119243	0.115758	6891.832251	41637.447950	4027.297421	19624.876773
61.543000	0.118522	0.065075	0.121559	0.117002	6937.118705	41940.364927	4030.199645	19576.927139
62.037500	0.120549	0.068383	0.122366	0.117834	6948.290845	42163.543386	4030.129241	19544.937865
62.535500	0.121605	0.072991	0.120446	0.120453	6933.692624	42343.842411	4017.891731	19444.674859
63.035500	0.126364	0.074304	0.125933	0.122514	6958.930757	42276.020171	4027.119586	19366.206232
63.542000	0.128681	0.077233	0.123281	0.127163	6937.109811	42120.323428	4007.544018	19190.526222
64.039000	0.128701	0.079357	0.127141	0.131394	6897.999365	41930.475256	4006.556774	19032.265421
64.536000	0.130491	0.079822	0.131680	0.134770	6883.360481	41669.706385	4009.650053	18907.087054
65.039000	0.129441	0.080619	0.123571	0.141588	6811.557944	41135.797087	3970.564968	18657.224336
65.536500	0.130589	0.079774	0.129330	0.141630	6821.571061	41057.850598	3985.375471	18655.712001
66.036500	0.130210	0.081514	0.128606	0.146945	6770.282420	40745.005992	3969.738363	18463.663797
66.537500	0.132033	0.081445	0.132417	0.150699	6753.044552	40413.244642	3969.884335	18329.443886
67.038000	0.130561	0.079921	0.129997	0.155583	6696.834285	39863.724667	3951.256644	18156.527769
67.535000	0.127994	0.081083	0.125277	0.162418	6615.172737	39383.959001	3922.417159	17917.783755
68.035500	0.131754	0.080450	0.134413	0.159390	6673.947747	39585.704610	3952.796639	18023.067245
68.535500	0.132531	0.080163	0.130574	0.161018	6666.529414	39424.301235	3939.037243	17966.364028
69.036500	0.130742	0.079253	0.133763	0.162278	6640.065160	39242.254693	3943.871713	17922.619216
69.536000	0.130300	0.079552	0.131090	0.164352	6618.363139	39093.958450	3932.010375	17850.877488
70.036500	0.132238	0.078966	0.134711	0.165218	6627.591403	38973.131392	3938.877654	17821.026650
70.537000	0.132457	0.079082	0.131293	0.166471	6618.695510	38878.761982	3927.259083	17777.949413
71.037000	0.131219	0.078919	0.139182	0.171234	6567.444320	38472.995719	3935.023577	17615.330381
71.537500	0.129604	0.078539	0.136091	0.174771	6524.005645	38153.483517	3918.631747	17495.694460
72.038000	0.133427	0.078830	0.137433	0.170536	6592.175277	38522.906893	3932.405655	17639.036292
72.535500	0.135165	0.079685	0.140865	0.172543	6589.882378	38428.532063	3935.956047	17570.945451
73.035500	0.131000	0.077751	0.134459	0.175537	6529.290175	38027.561293	3912.763367	17469.921438
73.535500	0.131921	0.079469	0.141293	0.180667	6494.133295	37752.613291	3916.929994	17298.439178
74.035500	0.136359	0.078712	0.141680	0.176070	6570.025319	38062.242652	3929.213723	17452.017630
74.539000	0.134978	0.076568	0.138568	0.176029	6558.663104	37892.319574	3921.627890	17453.384583
75.037000	0.132786	0.077694	0.137737	0.181153	6497.282490	37571.680076	3907.072753	17282.300533
75.537000	0.133744	0.077487	0.140521	0.184379	6478.462268	37298.632576	3905.998958	17175.608275
76.034500	0.135677	0.076470	0.140851	0.178695	6542.060728	37670.318712	3920.685058	17364.110425
76.537000	0.136230	0.077300	0.139044	0.179964	6536.036059	37635.144723	3913.148955	17321.810744
77.035000	0.137787	0.077544	0.143432	0.180617	6543.647975	37602.485833	3922.308436	17300.101165
77.535000	0.135032	0.076532	0.142230	0.186540	6471.248584	37052.710460	3904.906606	17104.606442
78.035000	0.138459	0.077923	0.144657	0.182261	6535.456992	37501.477246	3921.274164	17245.559781
78.536000	0.136344	0.077285	0.146672	0.181719	6522.262712	37493.853943	3927.585300	17263.525828
79.036000	0.139392	0.077599	0.145160	0.185517	6515.984034	37217.463206	3914.523802	17138.170406
79.542000	0.136646	0.075962	0.144269	0.186886	6481.734886	36980.680774	3909.014931	17093.255187
80.044500	0.140127	0.077266	0.143583	0.181652	6554.665565	37497.764482	3920.133580	17265.758622
80.536500	0.140930	0.076930	0.150653	0.181463	6563.057888	37486.036437	3938.123174	17272.024146
81.037000	0.141133	0.076936	0.148609	0.184918	6535.606354	37212.355022	3924.466630	17157.874931
81.534000	0.141928	0.076428	0.149496	0.180813	6577.035588	37497.777446	3936.853280	17293.571532
82.035500	0.142768	0.076838	0.147106	0.180375	6587.922148	37565.447249	3931.993850	17308.150801
82.535000	0.141884	0.076181	0.149593	0.179855	6584.819049	37554.413399	3939.491032	17325.429203
83.035500	0.141323	0.076119	0.147220	0.182115	6560.857037	37369.595482	3927.961335	17250.389919
83.535000	0.141573	0.076680	0.143821	0.178310	6595.344088	37717.958483	3928.966154	17376.961321
84.036000	0.144329	0.076588	0.146991	0.177863	6622.821264	37746.425674	3937.966219	17391.913407
84.537000	0.142371	0.075968	0.149795	0.176909	6614.192177	37773.293133	3947.395509	17423.854641
85.036500	0.139339	0.074928	0.148855	0.179147	6569.201038	37511.062923	3939.417099	17349.040148
85.536500	0.144088	0.076766	0.150535	0.176122	6635.765043	37900.839075	3951.253941	17450.272232
86.034500	0.143623	0.075670	0.146860	0.174168	6648.647704	37970.052267	3946.908497	17516.029746
86.534500	0.143503	0.074821	0.151770	0.173164	6656.318910	37982.534163	3961.906769	17549.917560
87.035500	0.140546	0.076149	0.147828	0.177197	6596.084869	37764.715038	3941.729614	17414.211244
87.535500	0.139145	0.075560	0.144318	0.178433	6573.616671	37618.479918	3929.896077	17372.878358
88.035500	0.142529	0.076857	0.146165	0.172786	6651.140805	38178.103872	3948.639703	17562.705767
88.536000	0.144479	0.075214	0.146514	0.171504	6679.289097	38148.787323	3952.764484	17606.159128
89.036000	0.142241	0.075747	0.147398	0.170862	6665.358730	38244.347457	3956.634639	17627.952965
89.536500	0.138874	0.075605	0.147165	0.176019	6591.874181	37815.679296	3943.021662	17453.734302
90.037000	0.145355	0.076215	0.150154	0.170602	6694.849202	38303.613923	3964.325802	17636.783313
90.537500	0.144891	0.076336	0.149987	0.170326	6693.208495	38336.027999	3964.606576	17646.189164
91.034500	0.144042	0.076399	0.146848	0.174136	6652.559125	38031.544396	3946.959811	17517.106393
91.535000	0.144845	0.074740	0.146004	0.174359	6657.591771	37879.652833	3944.274653	17509.585937
92.035500	0.147556	0.076220	0.151598	0.169673	6722.421193	38379.905749	3970.415983	17668.437249
92.536000	0.146828	0.075431	0.151508	0.168859	6723.181244	38381.862245	3972.280991	17696.190869
93.035500	0.149016	0.075132	0.149272	0.169052	6740.850990	38341.663202	3966.037402	17689.597828
93.536000	0.144659	0.074252	0.148220	0.173650	6662.135075	37897.361218	3951.647482	17533.488151
94.036500	0.148819	0.075311	0.149408	0.169962	6731.035310	38282.150109	3964.054651	17658.581932
94.539500	0.147618	0.074976	0.148811	0.168858	6730.174170	38344.822361	3965.351588	17696.222634
95.034500	0.148837	0.074518	0.149064	0.169096	6738.878062	38288.071142	3965.393211	17688.119756
95.534500	0.146159	0.073747	0.144350	0.173813	6673.791962	37843.651073	3941.494749	17528.014955
96.035000	0.148173	0.074842	0.152045	0.169839	6726.402329	38253.919016	3971.138754	17662.766178
