sample name	sample
index	813
start time	 03-31-2021  03:27:37 PM


Wavelength (nm)	Absorbance
494.344910	-0.376641
494.563924	-0.376641
494.782919	-0.376641
495.001897	-0.536243
495.220856	-0.108400
495.439797	0.036183
495.658719	0.169480
495.877624	0.604437
496.096510	NaN
496.315378	0.590147
496.534227	NaN
496.753059	NaN
496.971872	0.536503
497.190667	0.106304
497.409444	0.095759
497.628203	0.093158
497.846943	0.093393
498.065665	0.094994
498.284369	0.096449
498.503055	0.097066
498.721723	0.097491
498.940372	0.098804
499.159003	0.098966
499.377616	0.100522
499.596210	0.100899
499.814787	0.101153
500.033345	0.100874
500.251885	0.101394
500.470406	0.101372
500.688910	0.100683
500.907395	0.100394
501.125862	0.101115
501.344311	0.100089
501.562742	0.100698
501.781154	0.101107
501.999548	0.101234
502.217924	0.100258
502.436282	0.099976
502.654621	0.100788
502.872942	0.100977
503.091245	0.100612
503.309530	0.101823
503.527797	0.101899
503.746045	0.101793
503.964275	0.102506
504.182487	0.103323
504.400681	0.102411
504.618856	0.101386
504.837013	0.101697
505.055152	0.101507
505.273273	0.100401
505.491376	0.100896
505.709460	0.100558
505.927526	0.100244
506.145574	0.099298
506.363604	0.100762
506.581615	0.101334
506.799608	0.100501
507.017583	0.101007
507.235540	0.101392
507.453478	0.100597
507.671399	0.101572
507.889301	0.100161
508.107185	0.101165
508.325050	0.100322
508.542898	0.100873
508.760727	0.101216
508.978538	0.100675
509.196330	0.100742
509.414105	0.101464
509.631861	0.100836
509.849599	0.101257
510.067319	0.100737
510.285021	0.101783
510.502704	0.102252
510.720369	0.102361
510.938016	0.102784
511.155645	0.101659
511.373255	0.101032
511.590848	0.101654
511.808422	0.102690
512.025977	0.102647
512.243515	0.101336
512.461034	0.100456
512.678536	0.100308
512.896018	0.100713
513.113483	0.102100
513.330930	0.103029
513.548358	0.103000
513.765768	0.102993
513.983160	0.103499
514.200533	0.104449
514.417889	0.104711
514.635226	0.104990
514.852545	0.104405
515.069845	0.103930
515.287128	0.103419
515.504392	0.103518
515.721638	0.103548
515.938866	0.103308
516.156075	0.102981
516.373267	0.102702
516.590440	0.102823
516.807594	0.102685
517.024731	0.103213
517.241850	0.103864
517.458950	0.103649
517.676032	0.103494
517.893095	0.103558
518.110141	0.103566
518.327168	0.103522
518.544177	0.103280
518.761168	0.103885
518.978141	0.103494
519.195095	0.103275
519.412031	0.103866
519.628949	0.104524
519.845849	0.105176
520.062731	0.105030
520.279594	0.105559
520.496439	0.106314
520.713266	0.105875
520.930074	0.106397
521.146865	0.106910
521.363637	0.106478
521.580391	0.105881
521.797127	0.105699
522.013844	0.106159
522.230543	0.106002
522.447224	0.105569
522.663887	0.105640
522.880532	0.105743
523.097158	0.105322
523.313766	0.105524
523.530356	0.106146
523.746928	0.106232
523.963481	0.106454
524.180017	0.106988
524.396534	0.106804
524.613032	0.106956
524.829513	0.107058
525.045975	0.107528
525.262420	0.107049
525.478845	0.107116
525.695253	0.107313
525.911643	0.107570
526.128014	0.107399
526.344367	0.107762
526.560702	0.107910
526.777018	0.108034
526.993316	0.108344
527.209597	0.109113
527.425858	0.109073
527.642102	0.108704
527.858328	0.108932
528.074535	0.108654
528.290724	0.108812
528.506894	0.108726
528.723047	0.109112
528.939181	0.108639
529.155297	0.108445
529.371395	0.108251
529.587475	0.108484
529.803536	0.108656
530.019579	0.109458
530.235604	0.108919
530.451611	0.108999
530.667600	0.108541
530.883570	0.108723
531.099522	0.109097
531.315456	0.109586
531.531372	0.110031
531.747269	0.109839
531.963148	0.109430
532.179009	0.110059
532.394852	0.110378
532.610676	0.110454
532.826482	0.110818
533.042271	0.111020
533.258040	0.110988
533.473792	0.110704
533.689525	0.110952
533.905240	0.111181
534.120937	0.111608
534.336616	0.111940
534.552277	0.112578
534.767919	0.112331
534.983543	0.113370
535.199149	0.113663
535.414736	0.113910
535.630306	0.114122
535.845857	0.114334
536.061390	0.113960
536.276904	0.114046
536.492401	0.114136
536.707879	0.114516
536.923339	0.114138
537.138781	0.114337
537.354204	0.114434
537.569610	0.114749
537.784997	0.114841
538.000366	0.115737
538.215716	0.116059
538.431049	0.116764
538.646363	0.116648
538.861659	0.116910
539.076937	0.116711
539.292196	0.117048
539.507438	0.116420
539.722661	0.116515
539.937866	0.116224
540.153052	0.116335
540.368221	0.116079
540.583371	0.116748
540.798503	0.116600
541.013617	0.116918
541.228712	0.117244
541.443789	0.117671
541.658848	0.117546
541.873889	0.117085
542.088912	0.117454
542.303916	0.117574
542.518902	0.117191
542.733870	0.117139
542.948820	0.117028
543.163752	0.116874
543.378665	0.117131
543.593560	0.117709
543.808437	0.118790
544.023295	0.118471
544.238136	0.118904
544.452958	0.119607
544.667762	0.119838
544.882548	0.120848
545.097315	0.120765
545.312064	0.121428
545.526795	0.121841
545.741508	0.121925
545.956203	0.122634
546.170879	0.122481
546.385537	0.122889
546.600177	0.122815
546.814799	0.122132
547.029402	0.122230
547.243988	0.122093
547.458555	0.121966
547.673103	0.122171
547.887634	0.122231
548.102146	0.122556
548.316640	0.122431
548.531116	0.123002
548.745574	0.123483
548.960013	0.123874
549.174435	0.124405
549.388838	0.124462
549.603222	0.124511
549.817589	0.124534
550.031937	0.124196
550.246267	0.124262
550.460579	0.124200
550.674873	0.124273
550.889148	0.124686
551.103405	0.124528
551.317644	0.124897
551.531865	0.124781
551.746068	0.125076
551.960252	0.125348
552.174418	0.125181
552.388566	0.125540
552.602696	0.125480
552.816807	0.125513
553.030900	0.125659
553.244975	0.125532
553.459032	0.126071
553.673070	0.126076
553.887091	0.126050
554.101093	0.126360
554.315077	0.126605
554.529042	0.127122
554.742990	0.127351
554.956919	0.127483
555.170830	0.127655
555.384722	0.127603
555.598597	0.127370
555.812453	0.127590
556.026291	0.127640
556.240111	0.127413
556.453913	0.127283
556.667696	0.126997
556.881461	0.126965
557.095208	0.127278
557.308937	0.127322
557.522647	0.127792
557.736339	0.127721
557.950013	0.127904
558.163669	0.128278
558.377307	0.128339
558.590926	0.129039
558.804527	0.129289
559.018110	0.129551
559.231675	0.130061
559.445221	0.129687
559.658749	0.129671
559.872259	0.129718
560.085751	0.129374
560.299225	0.129709
560.512680	0.129664
560.726117	0.129524
560.939536	0.129279
561.152937	0.128991
561.366319	0.129393
561.579683	0.129682
561.793029	0.130166
562.006357	0.130240
562.219667	0.130325
562.432958	0.130193
562.646231	0.130133
562.859486	0.130453
563.072723	0.130353
563.285941	0.130673
563.499141	0.130933
563.712323	0.130676
563.925487	0.130961
564.138632	0.131204
564.351760	0.131181
564.564869	0.131475
564.777960	0.131637
564.991032	0.131715
565.204087	0.131962
565.417123	0.132289
565.630141	0.132493
565.843140	0.132742
566.056122	0.132585
566.269085	0.132951
566.482030	0.133486
566.694957	0.133474
566.907866	0.133769
567.120756	0.133558
567.333628	0.133924
567.546482	0.134127
567.759318	0.134179
567.972135	0.134106
568.184935	0.134306
568.397716	0.134233
568.610478	0.133977
568.823223	0.134286
569.035949	0.134745
569.248657	0.134278
569.461347	0.134124
569.674019	0.133950
569.886672	0.134627
570.099308	0.134442
570.311925	0.134614
570.524523	0.134791
570.737104	0.134935
570.949666	0.134697
571.162210	0.135124
571.374736	0.135147
571.587244	0.135701
571.799733	0.135401
572.012205	0.135735
572.224658	0.135494
572.437092	0.135895
572.649509	0.135788
572.861907	0.135863
573.074287	0.135855
573.286649	0.136293
573.498993	0.136229
573.711318	0.136656
573.923625	0.136744
574.135914	0.137026
574.348185	0.137043
574.560438	0.137362
574.772672	0.137606
574.984888	0.137631
575.197086	0.137370
575.409266	0.137797
575.621427	0.137723
575.833570	0.137740
576.045695	0.137930
576.257802	0.138303
576.469890	0.138044
576.681961	0.137923
576.894013	0.137842
577.106046	0.138239
577.318062	0.137868
577.530059	0.138205
577.742039	0.138813
577.954000	0.138933
578.165942	0.138778
578.377867	0.139078
578.589773	0.139233
578.801661	0.139495
579.013531	0.139527
579.225382	0.139893
579.437216	0.139938
579.649031	0.139363
579.860828	0.139148
580.072606	0.139464
580.284367	0.139861
580.496109	0.139889
580.707833	0.140196
580.919539	0.140431
581.131227	0.140648
581.342896	0.140641
581.554547	0.140816
581.766180	0.141296
581.977795	0.141304
582.189391	0.141218
582.400969	0.141323
582.612529	0.141380
582.824071	0.141472
583.035595	0.141295
583.247100	0.141158
583.458587	0.141379
583.670056	0.141589
583.881506	0.141474
584.092939	0.141769
584.304353	0.141947
584.515749	0.141974
584.727127	0.142071
584.938486	0.142417
585.149828	0.142903
585.361151	0.143053
585.572456	0.142756
585.783742	0.143082
585.995011	0.142482
586.206261	0.142822
586.417493	0.143275
586.628706	0.143243
586.839902	0.143388
587.051079	0.143415
587.262238	0.143736
587.473379	0.143977
587.684502	0.143996
587.895606	0.144445
588.106692	0.144572
588.317760	0.144568
588.528810	0.144818
588.739841	0.144898
588.950855	0.144891
589.161850	0.144494
589.372827	0.144721
589.583785	0.145108
589.794726	0.145337
590.005648	0.145463
590.216552	0.145439
590.427437	0.145442
590.638305	0.145279
590.849154	0.145467
591.059985	0.146027
591.270798	0.145936
591.481592	0.146043
591.692369	0.146070
591.903127	0.146113
592.113867	0.146174
592.324588	0.146514
592.535292	0.146643
592.745977	0.146748
592.956644	0.146903
593.167293	0.147495
593.377923	0.147091
593.588536	0.147398
593.799130	0.147696
594.009706	0.147992
594.220263	0.148305
594.430803	0.148648
594.641324	0.148774
594.851827	0.148477
595.062312	0.148216
595.272778	0.148873
595.483227	0.148607
595.693657	0.148179
595.904069	0.147764
596.114462	0.147317
596.324838	0.147855
596.535195	0.148299
596.745534	0.148450
596.955855	0.148916
597.166157	0.148985
597.376441	0.149480
597.586707	0.149883
597.796955	0.150460
598.007185	0.150992
598.217396	0.150420
598.427589	0.150341
598.637764	0.150906
598.847921	0.150617
599.058060	0.150610
599.268180	0.150715
599.478282	0.150814
599.688366	0.150500
599.898431	0.150495
600.108479	0.150644
600.318508	0.150428
600.528519	0.150235
600.738511	0.150374
600.948486	0.150286
601.158442	0.149921
601.368380	0.149785
601.578300	0.150379
601.788202	0.150439
601.998085	0.150746
602.207950	0.150761
602.417797	0.151123
602.627626	0.151176
602.837436	0.151334
603.047228	0.151661
603.257002	0.152218
603.466758	0.152220
603.676496	0.152206
603.886215	0.152211
604.095916	0.152463
604.305599	0.152692
604.515264	0.152617
604.724910	0.152567
604.934538	0.152547
605.144148	0.152285
605.353740	0.151952
605.563314	0.151936
605.772869	0.151853
605.982406	0.152037
606.191925	0.151678
606.401425	0.151883
606.610908	0.151949
606.820372	0.151991
607.029818	0.152094
607.239246	0.152553
607.448655	0.152200
607.658047	0.152636
607.867420	0.152518
608.076775	0.152596
608.286111	0.152968
608.495430	0.153339
608.704730	0.153735
608.914012	0.153886
609.123275	0.153660
609.332521	0.154354
609.541748	0.154257
609.750957	0.154191
609.960148	0.154488
610.169321	0.154223
610.378475	0.154386
610.587611	0.154021
610.796729	0.153929
611.005829	0.154299
611.214910	0.154127
611.423974	0.153794
611.633019	0.154077
611.842045	0.154092
612.051054	0.154253
612.260044	0.153884
612.469017	0.154380
612.677970	0.154655
612.886906	0.154550
613.095824	0.154820
613.304723	0.155178
613.513604	0.155215
613.722467	0.155181
613.931311	0.155397
614.140138	0.155900
614.348946	0.155893
614.557736	0.155803
614.766507	0.156110
614.975261	0.156552
615.183996	0.156604
615.392713	0.156849
615.601412	0.157056
615.810092	0.156998
616.018754	0.156863
616.227399	0.157048
616.436024	0.157467
616.644632	0.157286
616.853222	0.157231
617.061793	0.157457
617.270346	0.157531
617.478880	0.157720
617.687397	0.157969
617.895895	0.158024
618.104375	0.158011
618.312837	0.158115
618.521281	0.158219
618.729706	0.157988
618.938113	0.158496
619.146502	0.158414
619.354873	0.158358
619.563226	0.158809
619.771560	0.159189
619.979876	0.159416
620.188174	0.159480
620.396453	0.159808
620.604715	0.160015
620.812958	0.159584
621.021183	0.160163
621.229390	0.160393
621.437578	0.160172
621.645748	0.159890
621.853900	0.160111
622.062034	0.160068
622.270150	0.159930
622.478247	0.160389
622.686326	0.160695
622.894387	0.160639
623.102430	0.160613
623.310454	0.160679
623.518461	0.161087
623.726449	0.160883
623.934418	0.160960
624.142370	0.161075
624.350303	0.160665
624.558218	0.160557
624.766115	0.160452
624.973994	0.160455
625.181855	0.160480
625.389697	0.160624
625.597521	0.161114
625.805327	0.161554
626.013114	0.161726
626.220883	0.161974
626.428634	0.161936
626.636367	0.161976
626.844082	0.162173
627.051778	0.162508
627.259457	0.162321
627.467117	0.162060
627.674758	0.161718
627.882382	0.161922
628.089987	0.161952
628.297574	0.162550
628.505143	0.162847
628.712694	0.163065
628.920226	0.163039
629.127740	0.163476
629.335236	0.163799
629.542714	0.164153
629.750174	0.164434
629.957615	0.164608
630.165038	0.164580
630.372443	0.164650
630.579829	0.164817
630.787198	0.164972
630.994548	0.164891
631.201880	0.164875
631.409194	0.164864
631.616489	0.164624
631.823766	0.164828
632.031025	0.164752
632.238266	0.164603
632.445489	0.164423
632.652693	0.164451
632.859879	0.164460
633.067047	0.164485
633.274197	0.164605
633.481329	0.164750
633.688442	0.164876
633.895537	0.165064
634.102614	0.165328
634.309672	0.165457
634.516713	0.165660
634.723735	0.165876
634.930739	0.165781
635.137724	0.165825
635.344692	0.165701
635.551641	0.165626
635.758572	0.165438
635.965485	0.165884
636.172379	0.166004
636.379256	0.165844
636.586114	0.165848
636.792954	0.166120
636.999775	0.166279
637.206579	0.166820
637.413364	0.166879
637.620131	0.167314
637.826880	0.167165
638.033610	0.167667
638.240323	0.167841
638.447017	0.168105
638.653692	0.168357
638.860350	0.168250
639.066990	0.168414
639.273611	0.168731
639.480214	0.168866
639.686798	0.168706
639.893365	0.168590
640.099913	0.168786
640.306443	0.168891
640.512955	0.168847
640.719449	0.169113
640.925924	0.169038
641.132381	0.169164
641.338820	0.169353
641.545241	0.169621
641.751644	0.169482
641.958028	0.169642
642.164394	0.169762
642.370742	0.169922
642.577071	0.170071
642.783383	0.170495
642.989676	0.170537
643.195951	0.170417
643.402207	0.170623
643.608446	0.170770
643.814666	0.170741
644.020868	0.170774
644.227052	0.170774
644.433218	0.170897
644.639365	0.170694
644.845494	0.170707
645.051605	0.170672
645.257698	0.170752
645.463772	0.171132
645.669828	0.171095
645.875866	0.171375
646.081886	0.171654
646.287888	0.171792
646.493871	0.171935
646.699836	0.172287
646.905783	0.172760
647.111712	0.173036
647.317622	0.173083
647.523514	0.173339
647.729388	0.173399
647.935244	0.173330
648.141082	0.173282
648.346901	0.173021
648.552702	0.173055
648.758485	0.173028
648.964250	0.172904
649.169996	0.173013
649.375724	0.173126
649.581434	0.173097
649.787126	0.173442
649.992800	0.173682
650.198455	0.174102
650.404092	0.174101
650.609711	0.174027
650.815311	0.174028
651.020894	0.174101
651.226458	0.174399
651.432004	0.174589
651.637532	0.174690
651.843041	0.174847
652.048532	0.175053
652.254006	0.175189
652.459460	0.175577
652.664897	0.175842
652.870315	0.175715
653.075716	0.175618
653.281097	0.175707
653.486461	0.175832
653.691807	0.175942
653.897134	0.176119
654.102443	0.176141
654.307734	0.175957
654.513006	0.175950
654.718261	0.176424
654.923497	0.176564
655.128715	0.176761
655.333915	0.176760
655.539096	0.176811
655.744259	0.176870
655.949404	0.177170
656.154531	0.177406
656.359640	0.177617
656.564730	0.177553
656.769802	0.177657
656.974856	0.177596
657.179892	0.177687
657.384909	0.177828
657.589908	0.177781
657.794889	0.177827
657.999852	0.178051
658.204797	0.178191
658.409723	0.178265
658.614631	0.178473
658.819521	0.178517
659.024393	0.178955
659.229246	0.179230
659.434081	0.179670
659.638898	0.179846
659.843697	0.179870
660.048478	0.179971
660.253240	0.180363
660.457984	0.180495
660.662710	0.180674
660.867417	0.180547
661.072107	0.180394
661.276778	0.180221
661.481431	0.180185
661.686066	0.180404
661.890682	0.180518
662.095281	0.180431
662.299861	0.180321
662.504422	0.180587
662.708966	0.180749
662.913491	0.180959
663.117999	0.181196
663.322488	0.181431
663.526958	0.181402
663.731411	0.181593
663.935845	0.181887
664.140261	0.182328
664.344659	0.182295
664.549038	0.182351
664.753400	0.182596
664.957743	0.182604
665.162068	0.182981
665.366375	0.183309
665.570663	0.183446
665.774933	0.183290
665.979185	0.183357
666.183419	0.183517
666.387635	0.183590
666.591832	0.183635
666.796011	0.183782
667.000172	0.183614
667.204315	0.183894
667.408439	0.183734
667.612545	0.183930
667.816634	0.184051
668.020703	0.184131
668.224755	0.184428
668.428788	0.184501
668.632803	0.184763
668.836800	0.185062
669.040779	0.185105
669.244739	0.185342
669.448681	0.185475
669.652605	0.185579
669.856511	0.185993
670.060399	0.186222
670.264268	0.186614
670.468119	0.186763
670.671952	0.186940
670.875767	0.186854
671.079563	0.187115
671.283341	0.187358
671.487101	0.187481
671.690843	0.187481
671.894567	0.187415
672.098272	0.187487
672.301959	0.187508
672.505628	0.187374
672.709278	0.187788
672.912911	0.187911
673.116525	0.187991
673.320121	0.188185
673.523699	0.188356
673.727258	0.188536
673.930799	0.188566
674.134322	0.188691
674.337827	0.188784
674.541314	0.188583
674.744782	0.188691
674.948232	0.188821
675.151664	0.188986
675.355078	0.188999
675.558474	0.189172
675.761851	0.189185
675.965210	0.189384
676.168551	0.189525
676.371873	0.189847
676.575178	0.189994
676.778464	0.190114
676.981732	0.190253
677.184981	0.190414
677.388213	0.190513
677.591426	0.190684
677.794621	0.190670
677.997798	0.190966
678.200956	0.191056
678.404097	0.191460
678.607219	0.191646
678.810323	0.191725
679.013408	0.191835
679.216476	0.191878
679.419525	0.192117
679.622556	0.192331
679.825569	0.192488
680.028563	0.192657
680.231540	0.192330
680.434498	0.192261
680.637438	0.192554
680.840359	0.192618
681.043263	0.192727
681.246148	0.192690
681.449015	0.193020
681.651864	0.193182
681.854694	0.193210
682.057506	0.193465
682.260301	0.193837
682.463076	0.193705
682.665834	0.193973
682.868573	0.194301
683.071295	0.194585
683.273998	0.194570
683.476682	0.194580
683.679349	0.194580
683.881997	0.195054
684.084627	0.195248
684.287239	0.195236
684.489833	0.195417
684.692408	0.195418
684.894965	0.195438
685.097504	0.195694
685.300025	0.196076
685.502527	0.196544
685.705012	0.196145
685.907478	0.196100
686.109925	0.196420
686.312355	0.196550
686.514766	0.196551
686.717159	0.196762
686.919534	0.196795
687.121891	0.196739
687.324230	0.196588
687.526550	0.196980
687.728852	0.197092
687.931136	0.197062
688.133401	0.196880
688.335649	0.197131
688.537878	0.197134
688.740089	0.197146
688.942281	0.197047
689.144456	0.197125
689.346612	0.197303
689.548750	0.197252
689.750870	0.197444
689.952971	0.197422
690.155055	0.197247
690.357120	0.197335
690.559167	0.197401
690.761195	0.197538
690.963206	0.197896
691.165198	0.197790
691.367172	0.197965
691.569128	0.198013
691.771065	0.198344
691.972984	0.198644
692.174885	0.198811
692.376768	0.199281
692.578633	0.199489
692.780479	0.199425
692.982308	0.199520
693.184118	0.199625
693.385909	0.199700
693.587683	0.199839
693.789438	0.199947
693.991175	0.200234
694.192894	0.200252
694.394595	0.200383
694.596277	0.200580
694.797941	0.200805
694.999587	0.201172
695.201215	0.201393
695.402824	0.201664
695.604416	0.201776
695.805989	0.201735
696.007543	0.201504
696.209080	0.201575
696.410598	0.201709
696.612099	0.201896
696.813580	0.201852
697.015044	0.201983
697.216490	0.201990
697.417917	0.202027
697.619326	0.202178
697.820717	0.202408
698.022089	0.202555
698.223444	0.202728
698.424780	0.202846
698.626098	0.202842
698.827397	0.202524
699.028679	0.202539
699.229942	0.202551
699.431187	0.202721
699.632414	0.202817
699.833622	0.202778
700.034813	0.202795
700.235985	0.202774
700.437139	0.202887
700.638274	0.203329
700.839392	0.203674
701.040491	0.204082
701.241572	0.204177
701.442635	0.204357
701.643679	0.204473
701.844706	0.204643
702.045714	0.204578
702.246704	0.204554
702.447675	0.204873
702.648629	0.204905
702.849564	0.204843
703.050481	0.204710
703.251380	0.204700
703.452260	0.205178
703.653122	0.205231
703.853966	0.205581
704.054792	0.205877
704.255600	0.205777
704.456389	0.205577
704.657160	0.205754
704.857913	0.205919
705.058648	0.205930
705.259365	0.205583
705.460063	0.205307
705.660743	0.205017
705.861405	0.204723
706.062048	0.204600
706.262674	0.204630
706.463281	0.204607
706.663870	0.204758
706.864441	0.204819
707.064993	0.204681
707.265527	0.204678
707.466043	0.204937
707.666541	0.205215
707.867021	0.205499
708.067482	0.205675
708.267925	0.205392
708.468350	0.205171
708.668757	0.205350
708.869145	0.205541
709.069516	0.205780
709.269868	0.205799
709.470201	0.205794
709.670517	0.205502
709.870814	0.205534
710.071093	0.205675
710.271354	0.205589
710.471597	0.205449
710.671821	0.205579
710.872028	0.205514
711.072216	0.205557
711.272385	0.205697
711.472537	0.205766
711.672670	0.205602
711.872785	0.205803
712.072882	0.206110
712.272961	0.206180
712.473021	0.206009
712.673063	0.206177
712.873087	0.206270
713.073093	0.206130
713.273081	0.206151
713.473050	0.206347
713.673001	0.206596
713.872934	0.206294
714.072849	0.206184
714.272745	0.206469
714.472623	0.206353
714.672483	0.206093
714.872325	0.206244
715.072148	0.206375
715.271954	0.206301
715.471741	0.205922
715.671509	0.206049
715.871260	0.206324
716.070992	0.206112
716.270707	0.205961
716.470403	0.206087
716.670080	0.206008
716.869740	0.206054
717.069381	0.206012
717.269004	0.206002
717.468609	0.205846
717.668195	0.205626
717.867764	0.205744
718.067314	0.205808
718.266846	0.205703
718.466360	0.205581
718.665855	0.205466
718.865332	0.205236
719.064791	0.205155
719.264232	0.205321
719.463655	0.205281
719.663059	0.205185
719.862445	0.205159
720.061813	0.205205
720.261163	0.205351
720.460494	0.205157
720.659807	0.205358
720.859102	0.205469
721.058379	0.205337
721.257638	0.205202
721.456878	0.204972
721.656100	0.205044
721.855304	0.205062
722.054490	0.204923
722.253657	0.205097
722.452806	0.205123
722.651937	0.204934
722.851050	0.205040
723.050145	0.205097
723.249221	0.205069
723.448279	0.205156
723.647319	0.205169
723.846340	0.205090
724.045344	0.205084
724.244329	0.205004
724.443296	0.205265
724.642245	0.205195
724.841175	0.205090
725.040088	0.205296
725.238982	0.205170
725.437857	0.205213
725.636715	0.205394
725.835554	0.205293
726.034376	0.205540
726.233179	0.205172
726.431963	0.204924
726.630730	0.204989
726.829478	0.204941
727.028208	0.204805
727.226920	0.204710
727.425614	0.204712
727.624289	0.204693
727.822946	0.204508
728.021585	0.204832
728.220206	0.205009
728.418808	0.204846
728.617392	0.204557
728.815958	0.204564
729.014506	0.204574
729.213036	0.203988
729.411547	0.203801
729.610040	0.203571
729.808515	0.203351
730.006972	0.203327
730.205410	0.203490
730.403831	0.203574
730.602233	0.203415
730.800616	0.203258
730.998982	0.203477
731.197329	0.203559
731.395658	0.203934
731.593969	0.203701
731.792262	0.203623
731.990536	0.203641
732.188793	0.203685
732.387031	0.203775
732.585250	0.203777
732.783452	0.203859
732.981635	0.203845
733.179800	0.203208
733.377947	0.203423
733.576076	0.203438
733.774186	0.203351
733.972278	0.203038
734.170352	0.202834
734.368408	0.202618
734.566446	0.202338
734.764465	0.202121
734.962466	0.202127
735.160449	0.201999
735.358413	0.202031
735.556360	0.201791
735.754288	0.202038
735.952198	0.202072
736.150090	0.201821
736.347963	0.201766
736.545818	0.201676
736.743655	0.201663
736.941474	0.201375
737.139275	0.201090
737.337057	0.200982
737.534821	0.200923
737.732567	0.200905
737.930295	0.200979
738.128005	0.201045
738.325696	0.201009
738.523369	0.200900
738.721024	0.200954
738.918660	0.200723
739.116279	0.200527
739.313879	0.200166
739.511461	0.199979
739.709024	0.199871
739.906570	0.199703
740.104097	0.199440
740.301606	0.199202
740.499097	0.199107
740.696569	0.199119
740.894024	0.199245
741.091460	0.199219
741.288878	0.199140
741.486277	0.199060
741.683659	0.199020
741.881022	0.199166
742.078367	0.199325
742.275694	0.199451
742.473002	0.199412
742.670293	0.199246
742.867565	0.199141
743.064819	0.199014
743.262054	0.198894
743.459272	0.198760
743.656471	0.198994
743.853652	0.198741
744.050815	0.198346
744.247959	0.198677
744.445085	0.198831
744.642194	0.198885
744.839283	0.198825
745.036355	0.198828
745.233408	0.198598
745.430444	0.198002
745.627461	0.198087
745.824459	0.197978
746.021440	0.197502
746.218402	0.197116
746.415346	0.197030
746.612272	0.196912
746.809180	0.196928
747.006069	0.196870
747.202940	0.196875
747.399793	0.196587
747.596628	0.196414
747.793444	0.196389
747.990243	0.196295
748.187023	0.196262
748.383784	0.196153
748.580528	0.195845
748.777253	0.195798
748.973960	0.195849
749.170649	0.195753
749.367320	0.195921
749.563973	0.195533
749.760607	0.195252
749.957223	0.194969
750.153821	0.194852
750.350400	0.194885
750.546962	0.194584
750.743505	0.194386
750.940030	0.194680
751.136536	0.194434
751.333025	0.194392
751.529495	0.194655
751.725947	0.194682
751.922381	0.194646
752.118796	0.194448
752.315194	0.194507
752.511573	0.194324
752.707934	0.194026
752.904276	0.194046
753.100601	0.193928
753.296907	0.193682
753.493195	0.193608
753.689465	0.193751
753.885716	0.193640
754.081949	0.193671
754.278164	0.193640
754.474361	0.193557
754.670540	0.193519
754.866700	0.193557
755.062843	0.193598
755.258967	0.193662
755.455072	0.193312
755.651160	0.193297
755.847229	0.193298
756.043280	0.193628
756.239313	0.193562
756.435328	0.193372
756.631324	0.193231
756.827302	0.193020
757.023262	0.192560
757.219204	0.192500
757.415127	0.192576
757.611033	0.192412
757.806920	0.191949
758.002788	0.191680
758.198639	0.191755
758.394471	0.191788
758.590286	0.191778
758.786081	0.191864
758.981859	0.191853
759.177619	0.191535
759.373360	0.191349
759.569083	0.191292
759.764788	0.191511
759.960474	0.191336
760.156143	0.191147
760.351793	0.191112
760.547425	0.191055
760.743038	0.190797
760.938634	0.190853
761.134211	0.190862
761.329770	0.190862
761.525311	0.190706
761.720833	0.190487
761.916338	0.190284
762.111824	0.190190
762.307292	0.189924
762.502741	0.189982
762.698173	0.189779
762.893586	0.189647
763.088981	0.189313
763.284358	0.189167
763.479716	0.189096
763.675057	0.189083
763.870379	0.188838
764.065683	0.188967
764.260968	0.188815
764.456236	0.188857
764.651485	0.189007
764.846716	0.189054
765.041929	0.188837
765.237123	0.188776
765.432299	0.189102
765.627457	0.188966
765.822597	0.188552
766.017719	0.188255
766.212822	0.188004
766.407907	0.187813
766.602974	0.187506
766.798023	0.187627
766.993054	0.187428
767.188066	0.187114
767.383060	0.186912
767.578036	0.186918
767.772993	0.186936
767.967933	0.186856
768.162854	0.186793
768.357757	0.186866
768.552642	0.186560
768.747508	0.186605
768.942356	0.186694
769.137186	0.186766
769.331998	0.186751
769.526792	0.186504
769.721567	0.186362
769.916324	0.186098
770.111063	0.186100
770.305784	0.186150
770.500486	0.186128
770.695171	0.185766
770.889837	0.185906
771.084484	0.186130
771.279114	0.186368
771.473725	0.186436
771.668318	0.186289
771.862893	0.186216
772.057450	0.186168
772.251988	0.186366
772.446509	0.186271
772.641011	0.185977
772.835494	0.185739
773.029960	0.185636
773.224407	0.185540
773.418836	0.185461
773.613247	0.185368
773.807640	0.185200
774.002014	0.184905
774.196370	0.184773
774.390708	0.184726
774.585028	0.184701
774.779330	0.184835
774.973613	0.184778
775.167878	0.185083
775.362125	0.185287
775.556354	0.185002
775.750564	0.184931
775.944756	0.184965
776.138930	0.185130
776.333086	0.185059
776.527223	0.184765
776.721343	0.184855
776.915444	0.184726
777.109526	0.184536
777.303591	0.185028
777.497637	0.184826
777.691666	0.184869
777.885676	0.184690
778.079667	0.184758
778.273641	0.184747
778.467596	0.184754
778.661533	0.184674
778.855452	0.184436
779.049352	0.184293
779.243235	0.184098
779.437099	0.184026
779.630945	0.183926
779.824773	0.183757
780.018582	0.183692
780.212373	0.183524
780.406146	0.183232
780.599901	0.183423
780.793638	0.183170
780.987356	0.183302
781.181056	0.183358
781.374738	0.183313
781.568402	0.183262
781.762047	0.183488
781.955674	0.183418
782.149283	0.183674
782.342874	0.183548
782.536447	0.183609
782.730001	0.183574
782.923537	0.183418
783.117055	0.183602
783.310555	0.183342
783.504036	0.183254
783.697499	0.183085
783.890944	0.183142
784.084371	0.183423
784.277780	0.183450
784.471170	0.183551
784.664542	0.183548
784.857896	0.183516
785.051231	0.183945
785.244549	0.183874
785.437848	0.184184
785.631129	0.184131
785.824392	0.183864
786.017636	0.183885
786.210863	0.183954
786.404071	0.183939
786.597260	0.183922
786.790432	0.183816
786.983585	0.183642
787.176721	0.183172
787.369838	0.183163
787.562936	0.183147
787.756017	0.182983
787.949079	0.182920
788.142123	0.182949
788.335149	0.182999
788.528156	0.183017
788.721146	0.183240
788.914117	0.183814
789.107070	0.183956
789.300005	0.183627
789.492921	0.183587
789.685819	0.183468
789.878699	0.183438
790.071561	0.183035
790.264405	0.182967
790.457230	0.182702
790.650037	0.182356
790.842826	0.182298
791.035597	0.182754
791.228349	0.183076
791.421084	0.183007
791.613800	0.183005
791.806497	0.183084
791.999177	0.183103
792.191838	0.183214
792.384481	0.183554
792.577106	0.183523
792.769713	0.183374
792.962301	0.183308
793.154871	0.183515
793.347423	0.183838
793.539957	0.183936
793.732473	0.183837
793.924970	0.183934
794.117449	0.183831
794.309910	0.183331
794.502353	0.183448
794.694777	0.183070
794.887183	0.183172
795.079571	0.182935
795.271941	0.183203
795.464293	0.183433
795.656626	0.183755
795.848941	0.183669
796.041238	0.184045
796.233516	0.183969
796.425777	0.184232
796.618019	0.184398
796.810243	0.184611
797.002449	0.184506
797.194636	0.184240
797.386805	0.183880
797.578956	0.183885
797.771089	0.183920
797.963204	0.183896
798.155300	0.183929
798.347378	0.183740
798.539438	0.183235
798.731480	0.183273
798.923503	0.183451
799.115509	0.183458
799.307496	0.183711
799.499465	0.183623
799.691415	0.183606
799.883348	0.183939
800.075262	0.183971
800.267158	0.184336
800.459035	0.184601
800.650895	0.184693
800.842736	0.185059
801.034559	0.185140
801.226364	0.185302
801.418150	0.185863
801.609919	0.185935
801.801669	0.186034
801.993401	0.185884
802.185114	0.185928
802.376810	0.186097
802.568487	0.186028
802.760146	0.186082
802.951787	0.186266
803.143409	0.186193
803.335014	0.186346
803.526600	0.186271
803.718168	0.186603
803.909717	0.186615
804.101249	0.186786
804.292762	0.186514
804.484257	0.186500
804.675734	0.186571
804.867192	0.186564
805.058632	0.186344
805.250054	0.186634
805.441458	0.186646
805.632844	0.186423
805.824211	0.186166
806.015561	0.186338
806.206891	0.186505
806.398204	0.186586
806.589499	0.186465
806.780775	0.186723
806.972033	0.187042
807.163273	0.187336
807.354495	0.187760
807.545698	0.188204
807.736883	0.188641
807.928050	0.188735
808.119199	0.188662
808.310329	0.189060
808.501441	0.188929
808.692535	0.188829
808.883611	0.188774
809.074669	0.188694
809.265708	0.188554
809.456729	0.188383
809.647732	0.188326
809.838717	0.188500
810.029683	0.188503
810.220632	0.188653
810.411562	0.188354
810.602474	0.188510
810.793367	0.188711
810.984242	0.188675
811.175100	0.188738
811.365938	0.188784
811.556759	0.188943
811.747562	0.188789
811.938346	0.188966
812.129112	0.189264
812.319860	0.189239
812.510589	0.189225
812.701300	0.189477
812.891994	0.189859
813.082668	0.189933
813.273325	0.189787
813.463964	0.190124
813.654584	0.189998
813.845186	0.190336
814.035769	0.190703
814.226335	0.190777
814.416882	0.190990
814.607411	0.191220
814.797922	0.191173
814.988415	0.191567
815.178889	0.191563
815.369345	0.191786
815.559783	0.191901
815.750203	0.191875
815.940605	0.191988
816.130988	0.192004
816.321353	0.191683
816.511700	0.192392
816.702028	0.192386
816.892339	0.192596
817.082631	0.192928
817.272905	0.193309
817.463161	0.193403
817.653398	0.193433
817.843617	0.193604
818.033819	0.193993
818.224001	0.193930
818.414166	0.194286
818.604312	0.194269
818.794440	0.194139
818.984550	0.193776
819.174642	0.193950
819.364716	0.194166
819.554771	0.194075
819.744808	0.194105
819.934827	0.194193
820.124827	0.194158
820.314810	0.194681
820.504774	0.194642
820.694720	0.194829
820.884647	0.194730
821.074557	0.194942
821.264448	0.195253
821.454321	0.195223
821.644176	0.195279
821.834012	0.195222
822.023831	0.195151
822.213631	0.195315
822.403413	0.195392
822.593176	0.195438
822.782922	0.195353
822.972649	0.195476
823.162358	0.195534
823.352049	0.195475
823.541721	0.195836
823.731376	0.195638
823.921012	0.195696
824.110629	0.195883
824.300229	0.196001
824.489811	0.196352
824.679374	0.196350
824.868919	0.196884
825.058445	0.197006
825.247954	0.197024
825.437444	0.197204
825.626916	0.197652
825.816370	0.197766
826.005806	0.198299
826.195223	0.198312
826.384622	0.198648
826.574003	0.198447
826.763366	0.198671
826.952711	0.198792
827.142037	0.199243
827.331345	0.199307
827.520635	0.199444
827.709906	0.199622
827.899160	0.199729
828.088395	0.199746
828.277612	0.200147
828.466810	0.200306
828.655991	0.200475
828.845153	0.200332
829.034297	0.200438
829.223423	0.200589
829.412531	0.200623
829.601620	0.200956
829.790691	0.201302
829.979744	0.201548
830.168779	0.201888
830.357795	0.202363
830.546793	0.202673
830.735773	0.202840
830.924735	0.203244
831.113679	0.203716
831.302604	0.203932
831.491511	0.203938
831.680400	0.204071
831.869271	0.204356
832.058123	0.204476
832.246957	0.204723
832.435773	0.204932
832.624571	0.205179
832.813351	0.204895
833.002112	0.205151
833.190855	0.205644
833.379580	0.205938
833.568287	0.206015
833.756975	0.206066
833.945645	0.206117
834.134297	0.206395
834.322931	0.206422
834.511547	0.206783
834.700144	0.206689
834.888723	0.206736
835.077284	0.206596
835.265826	0.206551
835.454351	0.206897
835.642857	0.207206
835.831345	0.207441
836.019815	0.207894
836.208266	0.207999
836.396699	0.208355
836.585114	0.208692
836.773511	0.209167
836.961890	0.209670
837.150250	0.209716
837.338592	0.209814
837.526916	0.210168
837.715222	0.210284
837.903510	0.210608
838.091779	0.210799
838.280030	0.210928
838.468263	0.210876
838.656477	0.211152
838.844674	0.211372
839.032852	0.211817
839.221012	0.211673
839.409153	0.211778
839.597277	0.211739
839.785382	0.211869
839.973469	0.211883
840.161538	0.212347
840.349589	0.212212
840.537621	0.212248
840.725635	0.212425
840.913631	0.212940
841.101609	0.213288
841.289568	0.213751
841.477509	0.214003
841.665432	0.214327
841.853337	0.214077
842.041224	0.214508
842.229092	0.215046
842.416942	0.215315
842.604774	0.215170
842.792588	0.214994
842.980383	0.215153
843.168160	0.215693
843.355919	0.215984
843.543660	0.216476
843.731382	0.216453
843.919087	0.216561
844.106773	0.216494
844.294441	0.216995
844.482090	0.217320
844.669722	0.217748
844.857335	0.217931
845.044930	0.217936
845.232507	0.218226
845.420065	0.218625
845.607605	0.219048
845.795127	0.219501
845.982631	0.219577
846.170117	0.219933
846.357584	0.219827
846.545033	0.219923
846.732464	0.220154
846.919877	0.220460
847.107272	0.220387
847.294648	0.220354
847.482006	0.220659
847.669346	0.221209
847.856667	0.221264
848.043971	0.221457
848.231256	0.221876
848.418523	0.222124
848.605771	0.222505
848.793002	0.223260
848.980214	0.223828
849.167408	0.223819
849.354584	0.223774
849.541742	0.223979
849.728881	0.224529
849.916002	0.224533
850.103105	0.224850
850.290190	0.224814
850.477256	0.224774
850.664304	0.224648
850.851334	0.225048
851.038346	0.225401
851.225340	0.225562
851.412315	0.225813
851.599272	0.225823
851.786211	0.225975
851.973132	0.226525
852.160034	0.226665
852.346918	0.226916
852.533784	0.226910
852.720632	0.226718
852.907462	0.226831
853.094273	0.226710
853.281066	0.227171
853.467841	0.226835
853.654598	0.226773
853.841336	0.226847
854.028056	0.227014
854.214758	0.227041
854.401442	0.227126
854.588107	0.227537
854.774755	0.227816
854.961384	0.227673
855.147995	0.228028
855.334587	0.228413
855.521162	0.228855
855.707718	0.228994
855.894256	0.229358
856.080775	0.229793
856.267277	0.229839
856.453760	0.230046
856.640225	0.230456
856.826672	0.231281
857.013101	0.231358
857.199511	0.231370
857.385903	0.231466
857.572277	0.231378
857.758633	0.232032
857.944970	0.232487
858.131290	0.232670
858.317591	0.232734
858.503873	0.232766
858.690138	0.232859
858.876384	0.232839
859.062612	0.233370
859.248822	0.233488
859.435014	0.233233
859.621188	0.233237
859.807343	0.233542
859.993480	0.233510
860.179599	0.233484
860.365699	0.233275
860.551781	0.233728
860.737846	0.233836
860.923891	0.234242
861.109919	0.234434
861.295929	0.234699
861.481920	0.234586
861.667893	0.234682
861.853848	0.234739
862.039784	0.234940
862.225702	0.235015
862.411603	0.235110
862.597484	0.234902
862.783348	0.235004
862.969193	0.234515
863.155021	0.234758
863.340830	0.235458
863.526620	0.235601
863.712393	0.235917
863.898147	0.236041
864.083883	0.236313
864.269601	0.236819
864.455301	0.237004
864.640982	0.237767
864.826645	0.237521
865.012290	0.237608
865.197917	0.237685
865.383526	0.237626
865.569116	0.237743
865.754688	0.237686
865.940242	0.237774
866.125777	0.237655
866.311295	0.237596
866.496794	0.238197
866.682275	0.237823
866.867737	0.238138
867.053182	0.238681
867.238608	0.239036
867.424016	0.239013
867.609406	0.239201
867.794778	0.239732
867.980131	0.239601
868.165466	0.239503
868.350783	0.240146
868.536082	0.240030
868.721362	0.240059
868.906625	0.240138
869.091869	0.240386
869.277094	0.240319
869.462302	0.240493
869.647491	0.240999
869.832662	0.241328
870.017815	0.241148
870.202950	0.241488
870.388066	0.241214
870.573165	0.241038
870.758245	0.241102
870.943306	0.241272
871.128350	0.241039
871.313375	0.241168
871.498382	0.241184
871.683371	0.241474
871.868342	0.241579
872.053294	0.242390
872.238229	0.242611
872.423144	0.242447
872.608042	0.242921
872.792922	0.243275
872.977783	0.243287
873.162626	0.243057
873.347451	0.243168
873.532258	0.243174
873.717046	0.242839
873.901816	0.243034
874.086568	0.243539
874.271302	0.243636
874.456017	0.243463
874.640715	0.243553
874.825394	0.244127
875.010055	0.243936
875.194697	0.244223
875.379322	0.244128
875.563928	0.244121
875.748516	0.243763
875.933085	0.243406
876.117637	0.243235
876.302170	0.243075
876.486685	0.243182
876.671182	0.243252
876.855661	0.243048
877.040121	0.243317
877.224563	0.243316
877.408987	0.243320
877.593393	0.243643
877.777780	0.244121
877.962150	0.244326
878.146501	0.244399
878.330833	0.244541
878.515148	0.244865
878.699444	0.244977
878.883722	0.245460
879.067982	0.245871
879.252224	0.245528
879.436447	0.245557
879.620653	0.245797
879.804840	0.246050
879.989008	0.246582
880.173159	0.246566
880.357291	0.246881
880.541405	0.246897
880.725501	0.246461
880.909579	0.246990
881.093638	0.247074
881.277680	0.247190
881.461703	0.247125
881.645707	0.246627
881.829694	0.246678
882.013662	0.246449
882.197612	0.246219
882.381544	0.246607
882.565458	0.246965
882.749353	0.247449
882.933230	0.247293
883.117089	0.247236
883.300930	0.247072
883.484753	0.247011
883.668557	0.246929
883.852343	0.247132
884.036111	0.247183
884.219861	0.246832
884.403592	0.246200
884.587305	0.246405
884.771000	0.246278
884.954677	0.246381
885.138335	0.246235
885.321976	0.246391
885.505598	0.246597
885.689201	0.246722
885.872787	0.246840
886.056354	0.247042
886.239904	0.246998
886.423434	0.247419
886.606947	0.247835
886.790442	0.248254
886.973918	0.248345
887.157376	0.247993
887.340816	0.247834
887.524237	0.247715
887.707641	0.247818
887.891026	0.247864
888.074393	0.247810
888.257741	0.247559
888.441072	0.247081
888.624384	0.247048
888.807678	0.247036
888.990954	0.246872
889.174211	0.246790
889.357451	0.246807
889.540672	0.246975
889.723875	0.246628
889.907059	0.246735
890.090226	0.246748
890.273374	0.246539
890.456504	0.246335
890.639616	0.246411
890.822709	0.245883
891.005785	0.245617
891.188842	0.245055
891.371881	0.245053
891.554901	0.244662
891.737904	0.244949
891.920888	0.244690
892.103854	0.244788
892.286802	0.245009
892.469731	0.245424
892.652643	0.245104
892.835536	0.245176
893.018410	0.245084
893.201267	0.245250
893.384106	0.245387
893.566926	0.245635
893.749728	0.245236
893.932511	0.245026
894.115277	0.245106
894.298024	0.245730
894.480753	0.245560
894.663464	0.245157
894.846157	0.245359
895.028831	0.244714
895.211487	0.244821
895.394125	0.244856
895.576745	0.244604
895.759346	0.244302
895.941930	0.243664
896.124495	0.243822
896.307041	0.243826
896.489570	0.243649
896.672080	0.243845
896.854573	0.243269
897.037046	0.243525
897.219502	0.243587
897.401940	0.243795
897.584359	0.243751
897.766760	0.243277
897.949143	0.243317
898.131507	0.242863
898.313854	0.242530
898.496182	0.242784
898.678492	0.242519
898.860783	0.242212
899.043057	0.242044
899.225312	0.242195
899.407549	0.242308
899.589768	0.242151
899.771968	0.241996
899.954151	0.241426
900.136315	0.241177
900.318461	0.240630
900.500588	0.240563
900.682698	0.240440
900.864789	0.240159
901.046862	0.240418
901.228917	0.240132
901.410953	0.240235
901.592971	0.240674
901.774972	0.240293
901.956953	0.240102
902.138917	0.239986
902.320862	0.239472
902.502790	0.238782
902.684699	0.238304
902.866589	0.237940
903.048462	0.237274
903.230316	0.236772
903.412152	0.236454
903.593970	0.236244
903.775770	0.236214
903.957551	0.236039
904.139314	0.236147
904.321059	0.235434
904.502786	0.235266
904.684494	0.235440
904.866185	0.235374
905.047857	0.234910
905.229510	0.234863
905.411146	0.234690
905.592763	0.234176
905.774363	0.233732
905.955943	0.233892
906.137506	0.233882
906.319051	0.233616
906.500577	0.233282
906.682085	0.233725
906.863575	0.233845
907.045046	0.233639
907.226500	0.233876
907.407935	0.233961
907.589352	0.233881
907.770750	0.233709
907.952131	0.233359
908.133493	0.233315
908.314837	0.233026
908.496163	0.232924
908.677470	0.232565
908.858760	0.232328
909.040031	0.232068
909.221284	0.231241
909.402518	0.230858
909.583735	0.231337
909.764933	0.231010
909.946113	0.230848
910.127275	0.230495
910.308418	0.230201
910.489544	0.229874
910.670651	0.229620
910.851740	0.229828
911.032810	0.229578
911.213863	0.228297
911.394897	0.228060
911.575913	0.227533
911.756911	0.226784
911.937890	0.226462
912.118851	0.226520
912.299794	0.226753
912.480719	0.226498
912.661626	0.226227
912.842514	0.226233
913.023384	0.226815
913.204236	0.226835
913.385070	0.227253
913.565886	0.227271
913.746683	0.226882
913.927462	0.226129
914.108223	0.225690
914.288965	0.225606
914.469690	0.225191
914.650396	0.223872
914.831084	0.223611
915.011754	0.222896
915.192405	0.222337
915.373038	0.221777
915.553653	0.221706
915.734250	0.221417
915.914829	0.220713
916.095389	0.220579
916.275931	0.220367
916.456455	0.220093
916.636961	0.220429
916.817448	0.219979
916.997917	0.219912
917.178368	0.220149
917.358801	0.220582
917.539216	0.220108
917.719612	0.220082
917.899990	0.219928
918.080350	0.219233
918.260692	0.218369
918.441015	0.218296
918.621320	0.217369
918.801607	0.216282
918.981876	0.215028
919.162127	0.215332
919.342359	0.214730
919.522573	0.214118
919.702769	0.214333
919.882947	0.213658
920.063106	0.213584
920.243247	0.213451
920.423370	0.213456
920.603475	0.213942
920.783562	0.213135
920.963630	0.213239
921.143680	0.212854
921.323712	0.212047
921.503725	0.211604
921.683721	0.210912
921.863698	0.211092
922.043657	0.210292
922.223598	0.209570
922.403520	0.209543
922.583424	0.208828
922.763311	0.208223
922.943178	0.207805
923.123028	0.207741
923.302859	0.206862
923.482673	0.205937
923.662467	0.205857
923.842244	0.205366
924.022003	0.204763
924.201743	0.204461
924.381465	0.204592
924.561169	0.203777
924.740854	0.203089
924.920522	0.202967
925.100171	0.202378
925.279802	0.201853
925.459414	0.200939
925.639009	0.200436
925.818585	0.199900
925.998143	0.199058
926.177683	0.198747
926.357205	0.198616
926.536708	0.198136
926.716193	0.197918
926.895660	0.197146
927.075109	0.196811
927.254539	0.196261
927.433951	0.195100
927.613345	0.195116
927.792721	0.194623
927.972079	0.194061
928.151418	0.193132
928.330739	0.192599
928.510042	0.192086
928.689327	0.191643
928.868593	0.191987
929.047841	0.191746
929.227071	0.190696
929.406283	0.190897
929.585476	0.190379
929.764652	0.190217
929.943809	0.190057
930.122948	0.189638
930.302068	0.189401
930.481171	0.188101
930.660255	0.188252
930.839321	0.188567
931.018369	0.187378
931.197398	0.187108
931.376409	0.187017
931.555402	0.186264
931.734377	0.185828
931.913334	0.185285
932.092272	0.184936
932.271192	0.184571
932.450094	0.183485
932.628978	0.183578
932.807844	0.183676
932.986691	0.182326
933.165520	0.181679
933.344331	0.180796
933.523123	0.180671
933.701898	0.180658
933.880654	0.180186
934.059392	0.180025
934.238111	0.178616
934.416813	0.176844
934.595496	0.177017
934.774161	0.176309
934.952808	0.176184
935.131437	0.174747
935.310047	0.173460
935.488639	0.172732
935.667213	0.172174
935.845769	0.172299
936.024306	0.171226
936.202825	0.170578
936.381326	0.170145
936.559809	0.169703
936.738274	0.169907
936.916720	0.169783
937.095148	0.168930
937.273558	0.167582
937.451950	0.166387
937.630323	0.166774
937.808678	0.166757
937.987015	0.165965
938.165334	0.165446
938.343635	0.164354
938.521917	0.164089
938.700181	0.163893
938.878427	0.164676
939.056655	0.165326
939.234864	0.164279
939.413055	0.163513
939.591228	0.162962
939.769383	0.162911
939.947519	0.161822
940.125638	0.160911
940.303738	0.160444
940.481820	0.158562
940.659883	0.156570
940.837929	0.156824
941.015956	0.156332
941.193965	0.155865
941.371955	0.154271
941.549928	0.154391
941.727882	0.153736
941.905818	0.152016
942.083736	0.151065
942.261636	0.152048
942.439517	0.151741
942.617380	0.150212
942.795225	0.149653
942.973052	0.149399
943.150860	0.148149
943.328651	0.147363
943.506423	0.147277
943.684176	0.147885
943.861912	0.145828
944.039629	0.144191
944.217328	0.144846
944.395009	0.143690
944.572672	0.142211
944.750317	0.141546
944.927943	0.141193
945.105551	0.140738
945.283141	0.139194
945.460712	0.139385
945.638265	0.139032
945.815801	0.139078
945.993317	0.139939
946.170816	0.140195
946.348297	0.140711
946.525759	0.140801
946.703203	0.139248
946.880629	0.139831
947.058036	0.139030
947.235425	0.138921
947.412797	0.135380
947.590149	0.134642
947.767484	0.134174
947.944800	0.133539
948.122099	0.133515
948.299379	0.134148
948.476640	0.134077
948.653884	0.132549
948.831109	0.132062
949.008316	0.131888
949.185505	0.131365
949.362676	0.129202
949.539828	0.128214
949.716962	0.125922
949.894078	0.123825
950.071176	0.123055
950.248256	0.123221
950.425317	0.122501
950.602360	0.122414
950.779385	0.121877
950.956391	0.121507
951.133380	0.121018
951.310350	0.119482
951.487302	0.120941
951.664235	0.120398
951.841151	0.119982
952.018048	0.118422
952.194927	0.119217
952.371788	0.118809
952.548631	0.120857
952.725455	0.120554
952.902261	0.120465
953.079049	0.120304
953.255819	0.118722
953.432570	0.118281
953.609303	0.118459
953.786018	0.117064
953.962715	0.117091
954.139394	0.113840
954.316054	0.113203
954.492696	0.114037
954.669320	0.111997
954.845926	0.113799
955.022513	0.113427
955.199083	0.111405
955.375634	0.111017
955.552166	0.108462
955.728681	0.110867
955.905177	0.111435
956.081655	0.110177
956.258115	0.111343
956.434557	0.109974
956.610980	0.109074
956.787385	0.110369
956.963772	0.111872
957.140141	0.111392
957.316492	0.108951
957.492824	0.105900
957.669138	0.104480
957.845434	0.102192
958.021712	0.099743
958.197971	0.099343
958.374212	0.098831
958.550435	0.095354
958.726640	0.096014
958.902826	0.095142
959.078995	0.097225
959.255145	0.098247
959.431277	0.098932
959.607390	0.099244
959.783486	0.099700
959.959563	0.098474
960.135622	0.099441
960.311662	0.097035
960.487685	0.097960
960.663689	0.097258
960.839675	0.096083
961.015643	0.097054
961.191593	0.096123
961.367524	0.095072
961.543437	0.097486
961.719332	0.096333
961.895209	0.096126
962.071067	0.096481
962.246907	0.094696
962.422730	0.095975
962.598533	0.094025
962.774319	0.094607
962.950086	0.096909
963.125835	0.095674
963.301566	0.096192
963.477279	0.097398
963.652973	0.097635
963.828650	0.099449
964.004308	0.098492
964.179947	0.099712
964.355569	0.099705
964.531172	0.099927
964.706757	0.099634
964.882324	0.098372
965.057873	0.099196
965.233403	0.098192
965.408916	0.096120
965.584410	0.095074
965.759885	0.093603
965.935343	0.094429
966.110782	0.091257
966.286203	0.091035
966.461606	0.093461
966.636991	0.092368
966.812357	0.092738
966.987705	0.095257
967.163035	0.095161
967.338347	0.095761
967.513641	0.094955
967.688916	0.094014
967.864173	0.093483
968.039412	0.092794
968.214632	0.097999
968.389835	0.098771
968.565019	0.096444
968.740185	0.095822
968.915333	0.093526
969.090462	0.094459
969.265573	0.096830
969.440667	0.098693
969.615741	0.099237
969.790798	0.093076
969.965836	0.093405
970.140856	0.094476
970.315858	0.096807
970.490842	0.098944
970.665808	0.098990
970.840755	0.097383
971.015684	0.097629
971.190595	0.095722
971.365487	0.099521
971.540362	0.097121
971.715218	0.097529
971.890056	0.096295
972.064875	0.097911
972.239677	0.095978
972.414460	0.098329
972.589225	0.096877
972.763972	0.098611
972.938700	0.095406
973.113411	0.096016
973.288103	0.097098
973.462777	0.096629
973.637432	0.095498
973.812070	0.097022
973.986689	0.094472
974.161290	0.095259
974.335873	0.092985
974.510437	0.094239
974.684984	0.095176
974.859512	0.094641
975.034022	0.096326
975.208513	0.094627
975.382987	0.093554
975.557442	0.092176
975.731879	0.092423
975.906298	0.091870
976.080698	0.091556
976.255080	0.090425
976.429445	0.088816
976.603790	0.087625
976.778118	0.088831
976.952427	0.089382
977.126719	0.089822
977.300992	0.088479
977.475246	0.091406
977.649483	0.091841
977.823701	0.092791
977.997901	0.090664
978.172083	0.090758
978.346247	0.089525
978.520392	0.090205
978.694519	0.092462
978.868628	0.093181
979.042719	0.092835
979.216791	0.091566
979.390845	0.091841
979.564882	0.096164
979.738899	0.097316
979.912899	0.097215
980.086880	0.096858
980.260843	0.095828
980.434788	0.094252
980.608715	0.094501
980.782623	0.095936
980.956514	0.095565
981.130386	0.094020
981.304240	0.094353
981.478075	0.097659
981.651892	0.098861
981.825692	0.098615
981.999472	0.096533
982.173235	0.095483
982.346980	0.095480
982.520706	0.094867
982.694414	0.093589
982.868104	0.091053
983.041775	0.089488
983.215428	0.087154
983.389064	0.088020
983.562680	0.090108
983.736279	0.091163
983.909860	0.089091
984.083422	0.089277
984.256966	0.088559
984.430491	0.089082
984.603999	0.088380
984.777488	0.087985
984.950959	0.087597
985.124412	0.087707
985.297847	0.087635
985.471263	0.089726
985.644661	0.088834
985.818041	0.089128
985.991403	0.089856
986.164747	0.088795
986.338072	0.088915
986.511379	0.090752
986.684668	0.092271
986.857938	0.091758
987.031191	0.090364
987.204425	0.091583
987.377641	0.094868
987.550839	0.095073
987.724018	0.096389
987.897179	0.095593
988.070322	0.093925
988.243447	0.092617
988.416554	0.092868
988.589642	0.091562
988.762712	0.090523
988.935764	0.089767
989.108798	0.090669
989.281813	0.091688
989.454811	0.092973
989.627790	0.092881
989.800751	0.093756
989.973693	0.093242
990.146617	0.092154
990.319524	0.092234
990.492412	0.091990
990.665281	0.089802
990.838133	0.089694
991.010966	0.090713
991.183781	0.090558
991.356578	0.088930
991.529356	0.087140
991.702117	0.090435
991.874859	0.090347
992.047583	0.087680
992.220288	0.088255
992.392976	0.087091
992.565645	0.085361
992.738296	0.086394
992.910929	0.086423
993.083543	0.087035
993.256139	0.086556
993.428718	0.088360
993.601277	0.088801
993.773819	0.089377
993.946342	0.088886
994.118848	0.089308
994.291335	0.088518
994.463803	0.090167
994.636254	0.090834
994.808686	0.091068
994.981100	0.089069
995.153496	0.089746
995.325874	0.089877
995.498233	0.091973
995.670574	0.094234
995.842897	0.095624
996.015202	0.093450
996.187488	0.094373
996.359757	0.094611
996.532007	0.095053
996.704239	0.097443
996.876452	0.097924
997.048648	0.097266
997.220825	0.095230
997.392984	0.094734
997.565124	0.095708
997.737247	0.094760
997.909351	0.094260
998.081437	0.094491
998.253505	0.094317
998.425554	0.092691
998.597586	0.090813
998.769599	0.090986
998.941594	0.090953
999.113571	0.090859
999.285529	0.089514
999.457469	0.090239
999.629391	0.089504
999.801295	0.085762
999.973181	0.087419
1000.145048	0.086951
1000.316897	0.087140
1000.488728	0.085640
1000.660541	0.086399
1000.832335	0.086858
1001.004111	0.084436
1001.175869	0.086508
1001.347609	0.087856
1001.519331	0.087211
1001.691034	0.088281
1001.862719	0.086041
1002.034386	0.086219
1002.206035	0.086924
1002.377665	0.086333
1002.549277	0.088352
1002.720871	0.086731
1002.892447	0.087247
1003.064004	0.085569
1003.235544	0.085754
1003.407065	0.087732
1003.578568	0.087548
1003.750052	0.087527
1003.921519	0.088979
1004.092967	0.087476
1004.264397	0.085544
1004.435809	0.085658
1004.607202	0.086034
1004.778577	0.084667
1004.949934	0.083865
1005.121273	0.084566
1005.292594	0.081806
1005.463896	0.080941
1005.635180	0.081001
1005.806446	0.083567
1005.977694	0.081972
1006.148923	0.083362
1006.320135	0.085834
1006.491328	0.085951
1006.662503	0.087888
1006.833659	0.087832
1007.004798	0.089111
1007.175918	0.089339
1007.347020	0.087705
1007.518103	0.089777
1007.689169	0.090067
1007.860216	0.090055
1008.031245	0.089127
1008.202256	0.086584
1008.373248	0.089654
1008.544223	0.089505
1008.715179	0.089110
1008.886117	0.089837
1009.057036	0.087441
1009.227938	0.086120
1009.398821	0.085209
1009.569686	0.084700
1009.740533	0.084704
1009.911361	0.084127
1010.082172	0.083711
1010.252964	0.086086
1010.423738	0.086387
1010.594493	0.087448
1010.765231	0.089413
1010.935950	0.086828
1011.106651	0.088937
1011.277334	0.089675
1011.447998	0.088154
1011.618645	0.087235
1011.789273	0.086754
1011.959882	0.086852
1012.130474	0.087271
1012.301048	0.085772
1012.471603	0.087409
1012.642140	0.087378
1012.812658	0.086420
1012.983159	0.086893
1013.153641	0.086543
1013.324105	0.083688
1013.494551	0.084443
1013.664979	0.084545
1013.835388	0.083300
1014.005779	0.082824
1014.176152	0.081392
1014.346507	0.081943
1014.516843	0.080773
1014.687162	0.083223
1014.857462	0.083952
1015.027744	0.082363
1015.198007	0.082969
1015.368252	0.084754
1015.538480	0.083900
1015.708689	0.083994
1015.878879	0.084734
1016.049052	0.084841
1016.219206	0.083990
1016.389342	0.085427
1016.559460	0.084849
1016.729559	0.084091
1016.899641	0.084714
1017.069704	0.085037
1017.239749	0.086153
1017.409775	0.085181
1017.579784	0.086598
1017.749774	0.086911
1017.919746	0.086621
1018.089700	0.087053
1018.259635	0.086021
1018.429553	0.084654
1018.599452	0.086534
1018.769333	0.085655
1018.939195	0.084776
1019.109040	0.083662
1019.278866	0.082992
1019.448674	0.083169
1019.618464	0.082266
1019.788235	0.082713
1019.957989	0.082256
1020.127724	0.082541
1020.297441	0.082902
1020.467139	0.082513
1020.636820	0.081222
1020.806482	0.079923
1020.976126	0.078924
1021.145752	0.081326
1021.315359	0.083266
1021.484948	0.084637
1021.654519	0.083760
1021.824072	0.083108
1021.993607	0.086169
1022.163123	0.088148
1022.332621	0.089440
1022.502101	0.090225
1022.671563	0.088607
1022.841007	0.086202
1023.010432	0.084677
1023.179839	0.085810
1023.349228	0.087437
1023.518598	0.084812
1023.687951	0.084995
1023.857285	0.084872
1024.026601	0.084309
1024.195899	0.083427
1024.365178	0.084555
1024.534439	0.083358
1024.703682	0.081691
1024.872907	0.081214
1025.042114	0.080821
1025.211302	0.078887
1025.380472	0.078674
1025.549624	0.078893
1025.718758	0.079967
1025.887873	0.077402
1026.056970	0.077555
1026.226049	0.076583
1026.395110	0.074787
1026.564153	0.076791
1026.733177	0.077997
1026.902183	0.077116
1027.071171	0.077069
1027.240141	0.077067
1027.409092	0.079717
1027.578026	0.080360
1027.746940	0.082028
1027.915837	0.083062
1028.084716	0.081023
1028.253576	0.080517
1028.422418	0.082302
1028.591242	0.082977
1028.760048	0.082350
1028.928835	0.082537
1029.097604	0.082741
1029.266355	0.081637
1029.435088	0.081310
1029.603803	0.081166
1029.772499	0.079183
1029.941177	0.077893
1030.109837	0.077737
1030.278478	0.077978
1030.447102	0.077992
1030.615707	0.078379
1030.784294	0.079137
1030.952863	0.079026
1031.121413	0.076998
1031.289945	0.080392
1031.458460	0.079933
1031.626955	0.077047
1031.795433	0.078777
1031.963892	0.077557
1032.132334	0.076803
1032.300756	0.074840
1032.469161	0.075269
1032.637548	0.077984
1032.805916	0.076709
1032.974266	0.076963
1033.142598	0.079414
1033.310911	0.077425
1033.479207	0.076839
1033.647484	0.077651
1033.815743	0.078666
1033.983983	0.079537
1034.152206	0.079414
1034.320410	0.080338
1034.488596	0.081531
1034.656764	0.079513
1034.824914	0.079613
1034.993045	0.080327
1035.161158	0.081874
1035.329253	0.083543
1035.497330	0.081944
1035.665388	0.081442
1035.833428	0.081618
1036.001450	0.080548
1036.169454	0.081589
1036.337440	0.081516
1036.505407	0.080760
1036.673356	0.078474
1036.841287	0.076069
1037.009200	0.076955
1037.177094	0.078550
1037.344970	0.076891
1037.512828	0.078630
1037.680668	0.079906
1037.848489	0.078183
1038.016293	0.077749
1038.184078	0.079706
1038.351845	0.080242
1038.519593	0.079001
1038.687324	0.075319
1038.855036	0.076777
1039.022730	0.076844
1039.190406	0.076020
1039.358063	0.078634
1039.525702	0.080774
1039.693323	0.079732
1039.860926	0.080749
1040.028511	0.080734
1040.196077	0.082044
1040.363625	0.081960
1040.531155	0.081150
1040.698667	0.080141
1040.866161	0.079401
1041.033636	0.077901
1041.201093	0.076669
1041.368532	0.077229
1041.535952	0.077376
1041.703355	0.079004
1041.870739	0.078306
1042.038105	0.077764
1042.205452	0.077746
1042.372782	0.077534
1042.540093	0.079081
1042.707386	0.079573
1042.874661	0.078869
1043.041918	0.078322
1043.209156	0.077661
1043.376376	0.078615
1043.543578	0.078554
1043.710762	0.076485
1043.877927	0.078338
1044.045074	0.077481
1044.212203	0.077008
1044.379314	0.078588
1044.546407	0.079260
1044.713481	0.081319
1044.880537	0.080002
1045.047575	0.081872
1045.214595	0.084678
1045.381596	0.082870
1045.548579	0.083746
1045.715544	0.084523
1045.882491	0.082551
1046.049420	0.081708
1046.216330	0.079374
1046.383222	0.080030
1046.550096	0.077155
1046.716951	0.079630
1046.883789	0.078359
1047.050608	0.076438
1047.217409	0.076963
1047.384192	0.075655
1047.550956	0.075069
1047.717703	0.074654
1047.884431	0.073883
1048.051140	0.074818
1048.217832	0.072671
1048.384505	0.073710
1048.551161	0.076184
1048.717798	0.076519
1048.884416	0.079163
1049.051017	0.081058
1049.217599	0.082105
1049.384163	0.083384
1049.550709	0.083471
1049.717237	0.085525
1049.883746	0.085600
1050.050237	0.083523
1050.216710	0.082673
1050.383165	0.081973
1050.549601	0.080570
1050.716019	0.079940
1050.882420	0.078654
1051.048801	0.077983
1051.215165	0.075698
1051.381510	0.075014
1051.547837	0.075102
1051.714146	0.075637
1051.880437	0.073899
1052.046709	0.075172
1052.212964	0.073534
1052.379200	0.072469
1052.545417	0.073096
1052.711617	0.071066
1052.877798	0.071871
1053.043961	0.073258
1053.210106	0.073817
1053.376233	0.076865
1053.542341	0.077613
1053.708432	0.079322
1053.874504	0.081595
1054.040557	0.080572
1054.206593	0.084779
1054.372610	0.084015
1054.538609	0.083612
1054.704590	0.082712
1054.870553	0.082626
1055.036497	0.081404
1055.202424	0.083259
1055.368331	0.082485
1055.534221	0.083163
1055.700093	0.080895
1055.865946	0.083768
1056.031781	0.084080
1056.197598	0.084801
1056.363397	0.083116
1056.529177	0.082811
1056.694939	0.081418
1056.860683	0.081480
1057.026409	0.083360
1057.192116	0.082926
1057.357806	0.080476
1057.523477	0.077815
1057.689130	0.077430
1057.854764	0.077228
1058.020381	0.079724
1058.185979	0.080646
1058.351559	0.080599
1058.517120	0.079108
1058.682664	0.079483
1058.848189	0.080692
1059.013696	0.084381
1059.179185	0.084758
1059.344656	0.084604
1059.510108	0.083945
1059.675542	0.083353
1059.840958	0.084113
1060.006356	0.085823
1060.171735	0.087072
1060.337096	0.086907
1060.502439	0.085083
1060.667764	0.084740
1060.833071	0.086424
1060.998359	0.087306
1061.163629	0.087504
1061.328881	0.087555
1061.494115	0.085145
1061.659330	0.084090
1061.824527	0.084188
1061.989706	0.083336
1062.154867	0.083657
1062.320010	0.084704
1062.485134	0.082357
1062.650240	0.082858
1062.815328	0.081072
1062.980398	0.082079
1063.145449	0.082812
1063.310482	0.082995
1063.475497	0.083183
1063.640494	0.083360
1063.805473	0.080335
1063.970433	0.081963
1064.135375	0.081360
1064.300299	0.081408
1064.465204	0.081238
1064.630092	0.082665
1064.794961	0.081798
1064.959812	0.081992
1065.124645	0.081673
1065.289459	0.082032
1065.454256	0.081629
1065.619034	0.081130
1065.783793	0.083751
1065.948535	0.084833
1066.113258	0.084098
1066.277964	0.085690
1066.442651	0.086449
1066.607319	0.087087
1066.771970	0.088582
1066.936602	0.089860
1067.101216	0.090045
1067.265812	0.088525
1067.430389	0.088004
1067.594949	0.086233
1067.759490	0.086672
1067.924013	0.086239
1068.088518	0.084629
1068.253004	0.084447
1068.417472	0.081585
1068.581922	0.082495
1068.746354	0.082990
1068.910768	0.082090
1069.075163	0.084296
1069.239540	0.080337
1069.403899	0.081049
1069.568240	0.082815
1069.732562	0.083399
1069.896866	0.087374
1070.061152	0.089508
1070.225420	0.089645
1070.389670	0.090059
1070.553901	0.091058
1070.718114	0.096125
1070.882309	0.095916
1071.046486	0.096282
1071.210644	0.093819
1071.374784	0.088534
1071.538906	0.085982
1071.703010	0.086519
1071.867096	0.086554
1072.031163	0.085523
1072.195212	0.084193
1072.359243	0.083796
1072.523256	0.081490
1072.687250	0.083186
1072.851226	0.087057
1073.015184	0.089479
1073.179124	0.089588
1073.343045	0.088674
1073.506949	0.087785
1073.670834	0.087533
1073.834701	0.090589
1073.998549	0.091422
1074.162380	0.090319
1074.326192	0.089311
1074.489986	0.088402
1074.653761	0.087456
1074.817519	0.089790
1074.981258	0.091576
1075.144979	0.092130
1075.308682	0.089263
1075.472367	0.085837
1075.636033	0.083593
1075.799681	0.082025
1075.963311	0.081910
1076.126923	0.082381
1076.290516	0.079988
1076.454092	0.078183
1076.617649	0.077868
1076.781187	0.078213
1076.944708	0.080741
1077.108210	0.081699
1077.271695	0.084140
1077.435160	0.083798
1077.598608	0.083902
1077.762038	0.086351
1077.925449	0.086697
1078.088842	0.086339
1078.252217	0.087866
1078.415573	0.087309
1078.578912	0.088193
1078.742232	0.086777
1078.905534	0.085182
1079.068817	0.087588
1079.232083	0.085996
1079.395330	0.088685
1079.558559	0.086416
1079.721770	0.082294
1079.884962	0.087088
1080.048136	0.088397
1080.211293	0.087291
1080.374430	0.089354
1080.537550	0.088757
1080.700651	0.088931
1080.863735	0.086667
1081.026800	0.086244
1081.189846	0.089148
1081.352875	0.087778
1081.515885	0.088688
1081.678877	0.090359
1081.841851	0.088638
1082.004807	0.084366
1082.167744	0.082833
1082.330663	0.082475
1082.493564	0.084701
1082.656447	0.084318
1082.819312	0.080495
1082.982158	0.077517
1083.144986	0.079030
1083.307796	0.078366
1083.470587	0.081790
1083.633361	0.084299
1083.796116	0.081637
1083.958853	0.081657
1084.121571	0.082949
1084.284272	0.084950
1084.446954	0.090868
1084.609618	0.089659
1084.772264	0.090930
1084.934892	0.090684
1085.097501	0.091244
1085.260092	0.094495
1085.422665	0.093049
1085.585220	0.090660
1085.747756	0.093986
1085.910274	0.089867
1086.072774	0.090281
1086.235256	0.091634
1086.397720	0.090549
1086.560165	0.090425
1086.722592	0.089605
1086.885001	0.093485
1087.047392	0.095183
1087.209764	0.093717
1087.372119	0.095303
1087.534455	0.097515
1087.696772	0.097667
1087.859072	0.095521
1088.021353	0.094072
1088.183616	0.095320
1088.345861	0.091739
1088.508088	0.092745
1088.670296	0.091909
1088.832486	0.091288
1088.994658	0.090222
1089.156812	0.090824
1089.318948	0.095465
1089.481065	0.096601
1089.643164	0.098915
1089.805245	0.099110
1089.967308	0.095331
1090.129352	0.093704
1090.291378	0.092292
1090.453386	0.092165
1090.615376	0.093060
1090.777347	0.092699
1090.939301	0.092524
1091.101236	0.089304
1091.263153	0.091665
1091.425051	0.095825
1091.586932	0.097654
1091.748794	0.100545
1091.910638	0.100061
1092.072463	0.096979
1092.234271	0.095163
1092.396060	0.094230
1092.557831	0.095432
1092.719584	0.095220
1092.881319	0.094160
1093.043035	0.090884
1093.204733	0.091148
1093.366413	0.091737
1093.528075	0.090738
1093.689718	0.092865
1093.851343	0.094592
1094.012950	0.091329
1094.174539	0.089149
1094.336110	0.089363
1094.497662	0.091293
1094.659196	0.092177
1094.820712	0.089599
1094.982210	0.089426
1095.143689	0.086600
1095.305151	0.087961
1095.466594	0.091046
1095.628018	0.092869
1095.789425	0.091757
1095.950813	0.092701
1096.112183	0.090570
1096.273535	0.093398
1096.434869	0.098551
1096.596184	0.101342
1096.757482	0.098470
1096.918761	0.095033
1097.080021	0.093434
1097.241264	0.096281
1097.402488	0.097821
1097.563694	0.096099
1097.724882	0.095044
1097.886052	0.091830
1098.047203	0.089649
1098.208336	0.090133
1098.369451	0.094669
1098.530548	0.095574
1098.691627	0.093169
1098.852687	0.093576
1099.013729	0.097830
1099.174753	0.099370
1099.335758	0.100911
1099.496746	0.105189
1099.657715	0.108341
1099.818666	0.105252
1099.979599	0.107321
1100.140513	0.111377
1100.301409	0.110514
1100.462287	0.108799
1100.623147	0.107118
1100.783989	0.105990
1100.944812	0.103175
1101.105617	0.103352
1101.266404	0.105503
1101.427173	0.104903
1101.587923	0.103054
1101.748656	0.106637
1101.909370	0.104662
1102.070066	0.105454
1102.230743	0.109588
1102.391403	0.108839
1102.552044	0.105691
1102.712667	0.105205
1102.873271	0.106884
1103.033858	0.103262
1103.194426	0.097960
1103.354976	0.100966
1103.515508	0.099313
1103.676021	0.096697
1103.836517	0.095414
1103.996994	0.096319
1104.157453	0.097287
1104.317893	0.097673
1104.478316	0.100025
1104.638720	0.100184
1104.799106	0.101382
1104.959474	0.098662
1105.119823	0.095682
1105.280155	0.097225
1105.440468	0.098401
1105.600763	0.100973
1105.761039	0.099471
1105.921298	0.099139
1106.081538	0.100859
1106.241760	0.097468
1106.401964	0.099008
1106.562149	0.103035
1106.722316	0.104125
1106.882465	0.103291
1107.042596	0.096331
1107.202709	0.095930
1107.362803	0.099716
1107.522879	0.096543
1107.682937	0.096868
1107.842977	0.099047
1108.002999	0.101448
1108.163002	0.100553
1108.322987	0.101170
1108.482954	0.106383
1108.642902	0.107464
1108.802833	0.101767
1108.962745	0.104955
1109.122639	0.104698
1109.282515	0.100814
1109.442372	0.094180
1109.602211	0.095564
1109.762032	0.096309
1109.921835	0.095346
1110.081620	0.093618
1110.241386	0.093551
1110.401134	0.091163
1110.560864	0.089239
1110.720576	0.094745
1110.880269	0.097637
1111.039945	0.097820
1111.199602	0.098830
1111.359240	0.099979
1111.518861	0.103937
1111.678463	0.101869
1111.838047	0.105148
1111.997613	0.108076
1112.157161	0.104411
1112.316690	0.104157
1112.476202	0.101003
1112.635695	0.101886
1112.795169	0.105191
1112.954626	0.102323
1113.114064	0.111970
1113.273484	0.113503
1113.432886	0.111998
1113.592270	0.116911
1113.751635	0.114543
1113.910983	0.113281
1114.070312	0.108328
1114.229622	0.100995
1114.388915	0.099510
1114.548189	0.093994
1114.707445	0.092517
1114.866683	0.095103
1115.025903	0.091580
1115.185104	0.092603
1115.344287	0.097078
1115.503452	0.098183
1115.662599	0.102451
1115.821727	0.104603
1115.980838	0.104487
1116.139930	0.100758
1116.299004	0.102286
1116.458059	0.107320
1116.617097	0.104853
1116.776116	0.104843
1116.935117	0.104851
1117.094099	0.102572
1117.253064	0.095398
1117.412010	0.094062
1117.570938	0.099731
1117.729848	0.097123
1117.888740	0.093253
1118.047613	0.095271
1118.206468	0.096611
1118.365305	0.099282
1118.524124	0.100418
1118.682924	0.105351
1118.841707	0.113125
1119.000471	0.109856
1119.159216	0.111778
1119.317944	0.116541
1119.476653	0.121060
1119.635344	0.114781
1119.794017	0.113605
1119.952672	0.111783
1120.111308	0.113562
1120.269927	0.110344
1120.428527	0.114266
1120.587108	0.113235
1120.745672	0.109233
1120.904217	0.108378
1121.062744	0.113841
1121.221253	0.113973
1121.379744	0.111438
1121.538216	0.116965
1121.696671	0.121027
1121.855107	0.114431
1122.013524	0.112277
1122.171924	0.111402
1122.330305	0.108888
1122.488668	0.105388
1122.647013	0.109705
1122.805340	0.114266
1122.963648	0.110114
1123.121938	0.107777
1123.280210	0.108654
1123.438464	0.110951
1123.596700	0.113649
1123.754917	0.113157
1123.913116	0.116003
1124.071297	0.110163
1124.229459	0.110124
1124.387604	0.111190
1124.545730	0.113319
1124.703838	0.118178
1124.861928	0.120457
1125.019999	0.120330
1125.178052	0.119268
1125.336088	0.116213
1125.494104	0.115789
1125.652103	0.118464
1125.810083	0.113551
1125.968045	0.110236
1126.125989	0.111008
1126.283915	0.106035
1126.441823	0.105360
1126.599712	0.107367
1126.757583	0.113208
1126.915436	0.111726
1127.073270	0.113593
1127.231087	0.120229
1127.388885	0.120964
1127.546665	0.119346
1127.704426	0.116857
1127.862170	0.114025
1128.019895	0.118286
1128.177602	0.116302
1128.335291	0.119711
1128.492961	0.116650
1128.650614	0.113920
1128.808248	0.111526
1128.965864	0.114888
1129.123461	0.119590
1129.281041	0.122161
1129.438602	0.113080
1129.596145	0.114903
1129.753670	0.113707
1129.911176	0.113252
1130.068665	0.114132
1130.226135	0.113178
1130.383587	0.109855
1130.541020	0.114839
1130.698436	0.120711
1130.855833	0.126478
1131.013212	0.125660
1131.170573	0.123686
1131.327915	0.123431
1131.485239	0.121615
1131.642545	0.124734
1131.799833	0.129926
1131.957103	0.130008
1132.114354	0.124683
1132.271588	0.123869
1132.428803	0.127236
1132.585999	0.127282
1132.743178	0.126292
1132.900338	0.127287
1133.057480	0.122644
1133.214604	0.118136
1133.371710	0.117514
1133.528797	0.120012
1133.685866	0.117089
1133.842917	0.113515
1133.999950	0.118068
1134.156964	0.116167
1134.313960	0.119516
1134.470938	0.116250
1134.627898	0.114192
1134.784840	0.107594
1134.941763	0.101460
1135.098668	0.104560
1135.255555	0.100846
1135.412424	0.097766
1135.569274	0.102613
1135.726107	0.097465
1135.882921	0.106546
1136.039716	0.104296
1136.196494	0.102860
1136.353253	0.110864
1136.509995	0.116504
1136.666717	0.120080
1136.823422	0.122279
1136.980109	0.125450
1137.136777	0.129003
1137.293427	0.124935
1137.450059	0.127882
1137.606672	0.132013
1137.763267	0.129826
1137.919844	0.119627
1138.076403	0.122283
1138.232944	0.119724
1138.389466	0.112421
1138.545971	0.111103
1138.702457	0.110653
1138.858924	0.113420
1139.015374	0.122529
1139.171805	0.121615
1139.328218	0.122970
1139.484613	0.114074
1139.640990	0.119448
1139.797348	0.129046
1139.953688	0.135610
1140.110010	0.134818
1140.266314	0.137521
1140.422600	0.128527
1140.578867	0.125661
1140.735116	0.125722
1140.891347	0.124282
1141.047559	0.124950
1141.203754	0.122772
1141.359930	0.108674
1141.516088	0.109033
1141.672228	0.105536
1141.828349	0.101847
1141.984452	0.103917
1142.140537	0.107894
1142.296604	0.113285
1142.452653	0.098568
1142.608683	0.099037
1142.764695	0.107877
1142.920689	0.104527
1143.076665	0.106461
1143.232622	0.106476
1143.388562	0.109076
1143.544483	0.109231
1143.700385	0.112339
1143.856270	0.126149
1144.012136	0.126720
1144.167985	0.126277
1144.323814	0.119863
1144.479626	0.121460
1144.635420	0.126940
1144.791195	0.123786
1144.946952	0.120236
1145.102691	0.119175
1145.258411	0.116439
1145.414113	0.106431
1145.569798	0.106101
1145.725463	0.123062
1145.881111	0.116711
1146.036741	0.121467
1146.192352	0.121090
1146.347945	0.122472
1146.503519	0.118972
1146.659076	0.122065
1146.814614	0.133792
1146.970134	0.134399
1147.125636	0.130818
1147.281120	0.131547
1147.436585	0.133968
1147.592032	0.134810
1147.747461	0.132640
1147.902872	0.139103
1148.058265	0.140275
1148.213639	0.138087
1148.368995	0.136058
1148.524333	0.138452
1148.679653	0.148381
1148.834954	0.141245
1148.990237	0.137580
1149.145502	0.143293
1149.300749	0.141270
1149.455977	0.138145
1149.611188	0.124202
1149.766380	0.116902
1149.921553	0.114131
1150.076709	0.095677
1150.231846	0.098199
1150.386966	0.101746
1150.542066	0.100222
1150.697149	0.100558
1150.852214	0.099018
1151.007260	0.107170
1151.162288	0.116107
1151.317298	0.114591
1151.472289	0.124071
1151.627263	0.117399
1151.782218	0.114712
1151.937155	0.122699
1152.092073	0.127308
1152.246974	0.124718
1152.401856	0.116875
1152.556720	0.118657
1152.711566	0.117768
1152.866393	0.115580
1153.021203	0.121287
1153.175994	0.126018
1153.330767	0.123452
1153.485521	0.120583
1153.640258	0.129270
1153.794976	0.129437
1153.949676	0.129267
1154.104358	0.127202
1154.259021	0.127195
1154.413667	0.126813
1154.568294	0.128739
1154.722903	0.119308
1154.877493	0.114821
1155.032066	0.116340
1155.186620	0.123133
1155.341156	0.122920
1155.495674	0.127093
1155.650173	0.133312
1155.804654	0.124876
1155.959118	0.119804
1156.113562	0.125780
1156.267989	0.124868
1156.422397	0.108580
1156.576788	0.106040
1156.731160	0.103973
1156.885513	0.100116
1157.039849	0.099061
1157.194166	0.107308
1157.348465	0.105976
1157.502746	0.105398
1157.657009	0.103698
1157.811253	0.119205
1157.965479	0.121439
1158.119687	0.117184
1158.273877	0.126409
1158.428048	0.123945
1158.582201	0.127010
1158.736337	0.139708
1158.890453	0.145447
1159.044552	0.151485
1159.198632	0.148051
1159.352694	0.148327
1159.506738	0.159973
1159.660764	0.153028
1159.814771	0.155396
1159.968761	0.154850
1160.122732	0.149467
1160.276685	0.139889
1160.430619	0.136861
1160.584535	0.147682
1160.738434	0.149142
1160.892313	0.141798
1161.046175	0.137500
1161.200019	0.135792
1161.353844	0.136686
1161.507651	0.128161
1161.661440	0.134503
1161.815210	0.137384
1161.968962	0.117114
1162.122697	0.119547
1162.276412	0.117590
1162.430110	0.121908
1162.583789	0.124031
1162.737451	0.115671
1162.891094	0.119979
1163.044718	0.123588
1163.198325	0.111927
1163.351913	0.115489
1163.505483	0.105859
1163.659035	0.115099
1163.812569	0.115233
1163.966084	0.115801
1164.119581	0.116343
1164.273060	0.116969
1164.426521	0.117183
1164.579964	0.129352
1164.733388	0.133381
1164.886794	0.138808
1165.040182	0.117672
1165.193551	0.118778
1165.346903	0.112625
1165.500236	0.117595
1165.653551	0.114208
1165.806848	0.094176
1165.960126	0.091065
1166.113386	0.095234
1166.266628	0.095667
1166.419852	0.111327
1166.573058	0.109842
1166.726245	0.110750
1166.879414	0.113721
1167.032565	0.103220
1167.185698	0.116069
1167.338812	0.124306
1167.491909	0.116857
1167.644987	0.115240
1167.798046	0.106647
1167.951088	0.104352
1168.104111	0.110113
1168.257117	0.115874
1168.410103	0.128179
1168.563072	0.138050
1168.716023	0.131276
1168.868955	0.137395
1169.021869	0.141514
1169.174765	0.152384
1169.327642	0.145467
1169.480501	0.141062
1169.633343	0.125025
1169.786165	0.125756
1169.938970	0.097780
1170.091757	0.095281
1170.244525	0.081730
1170.397275	0.085207
1170.550007	0.082763
1170.702720	0.080085
1170.855415	0.070899
1171.008092	0.079940
1171.160751	0.087312
1171.313392	0.114454
1171.466014	0.036210
1171.618619	0.202674
1171.771205	0.202674
1171.923772	0.202674
