sample name	sample
index	98
start time	 02-15-2021  10:57:51 AM
880	0.449155
Peak Time (s)	92.54
Peak Height 	0.4492
calc peak height	90,93
Baseline Time (s)	10.037
Baseline Value 	-0.003698
subtract baseline	10,4
Abs	0.340713
Peak Time (s)	92.54
Peak Height 	0.3407
calc peak height	90,93
Baseline Time (s)	11.037
Baseline Value 	0.01212
subtract baseline	10,3
PK_550	0.166797
Peak Time (s)	92.54
Peak Height 	0.1668
calc peak height	90,93
Baseline Time (s)	8.539
Baseline Value 	4.9957E-4
subtract baseline	10,2
PK_880	0.315840
Peak Time (s)	92.54
Peak Height 	0.3158
calc peak height	90,93
Baseline Time (s)	11.037
Baseline Value 	0.003402
subtract baseline	10,1


Time (s)	A880-A510	A880-A775	A880-A975	A880	I510	I775	I975	I880	
0.036000	-0.002071	0.000432	-0.012228	0.001438	4202.628432	15650.143363	3190.939757	8867.591487
0.536500	-0.006684	0.000165	-0.009194	0.003467	4183.041192	15583.163395	3191.674407	8839.766394
1.036500	-0.006881	0.000175	-0.012122	0.003744	4181.652469	15575.359201	3189.336433	8835.966940
1.538500	-0.000554	-0.001992	-0.002550	0.000199	4210.843575	15615.524334	3199.014634	8884.645036
2.035000	-0.002369	-0.000327	-0.003165	0.000240	4205.305332	15662.969755	3198.523266	8884.074948
2.537500	0.001663	0.001348	0.006888	0.001033	4214.988697	15688.866676	3205.523366	8873.162628
3.035500	-0.002471	-0.000015	-0.008539	0.001994	4199.789965	15620.836627	3193.236109	8859.953443
3.538000	-0.001897	0.000739	0.001414	0.001387	4203.295841	15660.618481	3201.100168	8868.284121
4.036000	-0.002698	0.001014	-0.006752	0.000279	4204.209206	15701.170335	3195.822925	8883.543965
4.536000	0.001442	0.001179	-0.004340	0.000736	4215.214345	15692.598538	3197.276060	8877.240359
5.036500	-0.001866	0.001928	-0.010042	0.001579	4202.818951	15689.839504	3192.437149	8865.654805
5.536500	-0.001135	0.000121	0.001367	0.000491	4208.236538	15668.754153	3201.740812	8880.617843
6.037000	-0.002304	0.000347	-0.009182	0.000355	4205.156217	15679.367755	3193.969484	8882.490751
6.537500	-0.008546	-0.001879	0.009118	-0.001509	4192.187734	15668.766348	3209.189159	8908.243349
7.035000	-0.000543	-0.000123	-0.012868	-0.000789	4213.834861	15699.157900	3192.101084	8898.284044
7.538000	0.000701	0.001079	-0.009644	0.000246	4214.462448	15704.066828	3193.709298	8883.997342
8.035500	-0.003031	0.000878	-0.007224	0.000284	4203.205621	15697.022764	3195.469354	8883.471591
8.538500	0.001137	0.000000	-0.014300	-0.000314	4217.452005	15688.802771	3190.705340	8891.714344
9.036000	0.000258	-0.000044	-0.009144	-0.000197	4214.460965	15684.095316	3194.404648	8890.103858
9.536500	0.004257	0.001948	0.011501	0.000807	4223.475142	15713.096043	3209.240405	8876.264904
10.036500	-0.002997	-0.000102	0.005124	0.000000	4204.151052	15676.607878	3204.964763	8887.388871
10.536500	-0.001663	-0.000184	0.000886	-0.001218	4211.767068	15709.970685	3202.669754	8904.211763
11.037000	0.000000	0.001795	0.000000	0.000256	4212.331708	15724.814035	3200.887010	8883.859811
11.537500	-0.000376	0.000818	-0.009417	0.000236	4211.267055	15696.673543	3193.884655	8884.136103
12.038000	-0.001335	0.001823	-0.002563	0.002259	4202.376053	15666.850374	3197.465997	8856.317205
12.538000	0.000347	-0.000312	-0.017801	-0.000672	4216.155280	15690.184367	3188.420643	8896.667601
13.035500	-0.002309	0.001214	0.000662	-0.002540	4213.791283	15790.162942	3203.502005	8922.523284
13.535500	-0.003597	0.001720	-0.006633	-0.000903	4205.052114	15756.769153	3196.789203	8899.860841
14.036000	-0.003513	-0.001181	-0.016301	0.000354	4201.564223	15634.649453	3188.763696	8882.503475
14.536500	-0.004047	0.000355	0.002084	0.001876	4195.473495	15635.086419	3201.236828	8861.573437
15.036500	0.002007	0.002263	0.010856	0.000792	4216.743389	15722.798322	3208.754219	8876.473633
15.566000	-0.001530	0.001251	0.000136	-0.001064	4211.703875	15747.683578	3201.985747	8902.084431
16.037500	-0.003528	0.000284	0.005887	0.001655	4197.660016	15639.459778	3204.284956	8864.599666
16.535000	-0.004002	0.000360	0.000391	-0.002024	4207.184830	15749.684037	3202.904997	8915.364127
17.035000	0.000536	-0.000109	-0.010786	-0.001855	4220.281874	15730.905448	3194.416750	8913.027523
17.538000	0.001469	0.001101	0.004685	-0.003520	4228.130357	15815.850278	3207.323548	8936.137325
18.035500	-0.000042	0.000264	0.004930	0.000263	4212.186200	15679.662960	3204.616597	8883.769420
18.536000	0.000227	0.000450	-0.007128	0.000549	4212.133432	15676.708312	3195.343883	8879.821940
19.036500	0.000459	0.000816	-0.013065	0.000642	4212.549550	15684.695704	3190.909031	8878.535480
19.537000	-0.001686	0.001405	0.000432	0.000242	4207.336069	15713.766140	3201.223453	8884.052027
20.037500	0.001101	0.001964	0.000472	0.001582	4211.657332	15690.794552	3200.243800	8865.603396
20.537000	-0.000350	0.002394	-0.000477	0.002046	4205.941318	15689.821339	3199.183604	8859.236109
21.037500	-0.002981	0.001540	0.005582	0.000807	4201.797628	15701.114047	3204.698637	8876.262498
21.539500	-0.001832	0.001502	0.005852	0.000486	4206.170622	15709.414809	3205.149276	8880.684710
22.035000	0.000613	0.000699	-0.021559	0.000685	4212.883600	15680.023918	3184.736139	8877.954020
22.538500	-0.001560	-0.000089	0.000364	-0.000558	4210.099582	15693.365408	3201.775757	8895.087917
23.035500	-0.002895	0.001096	-0.018323	0.000685	4202.417902	15691.664218	3187.061340	8877.946169
23.536000	-0.003044	0.001684	-0.005789	0.000714	4201.889676	15708.102043	3196.215348	8877.554610
24.036500	0.000811	0.002076	-0.004711	0.001558	4210.863388	15694.803364	3196.388449	8865.938345
24.536500	-0.002945	0.000203	-0.001592	-0.000207	4204.921478	15691.641659	3200.037941	8890.244154
25.037000	-0.002540	-0.000010	-0.015617	-0.000337	4206.516976	15689.200626	3189.763179	8892.042075
25.537500	-0.002374	0.000248	-0.015377	-0.000824	4208.463619	15711.090731	3190.292864	8898.769485
26.040000	-0.002297	0.001212	-0.003788	0.000545	4204.609612	15699.187233	3197.830171	8879.873257
26.538000	0.003162	0.002097	-0.008783	0.000462	4221.212235	15727.644957	3194.184588	8881.015358
27.035000	-0.003388	0.000059	-0.001451	-0.000163	4203.473217	15686.123626	3200.110290	8889.637038
27.537500	-0.001187	0.001472	-0.003813	0.000078	4209.314927	15720.556985	3198.160676	8886.318541
28.036500	0.002309	0.000918	-0.000887	-0.002700	4228.190537	15786.136570	3202.449693	8924.745400
28.539500	0.003908	0.001532	-0.006497	-0.001395	4229.082310	15765.709653	3197.256609	8906.657348
29.060500	-0.000371	0.001316	-0.002438	0.004141	4199.650288	15597.021722	3196.157939	8830.540334
29.537000	-0.000601	0.001245	0.007763	-0.001548	4215.937586	15761.777563	3208.173667	8908.777341
30.037000	-0.003479	0.003003	-0.013043	-0.000528	4204.288308	15783.591660	3191.781322	8894.680144
30.537000	-0.000914	0.000630	0.003762	-0.001792	4215.731998	15750.842371	3205.293391	8912.160958
31.061500	-0.002525	0.001312	-0.010667	0.005192	4190.183085	15566.311309	3189.341545	8816.199335
31.538000	-0.005229	0.001534	-0.012503	0.002050	4191.474375	15664.495327	3190.292193	8859.181545
32.035000	-0.001930	0.000491	-0.010932	0.001278	4203.523021	15656.533790	3192.004911	8869.788032
32.564000	-0.000665	0.001774	-0.003446	-0.000443	4212.433094	15744.791076	3198.824697	8893.505133
33.036000	-0.001469	0.000837	0.001982	0.004992	4193.884272	15558.341110	3198.818913	8818.926986
33.536000	-0.002230	0.001078	-0.005414	-0.001990	4212.379041	15769.896591	3198.508841	8914.898178
34.037000	0.001384	0.000067	0.000744	0.001114	4213.907047	15648.941358	3200.801130	8872.046006
34.539500	0.000835	0.001981	-0.002291	-0.001746	4220.854913	15789.378970	3200.669204	8911.523039
35.037000	-0.001515	0.000338	-0.006936	0.003064	4199.451567	15599.913528	3193.628531	8845.271179
35.537500	-0.003666	0.000380	0.012261	0.000728	4200.000050	15669.392354	3209.889019	8877.350212
36.034500	-0.001576	0.001359	-0.003724	0.001790	4203.052554	15666.963131	3196.949687	8862.746128
36.535500	-0.005670	-0.000819	0.006111	-0.000404	4197.415642	15667.434558	3206.027282	8892.963051
37.035500	-0.001344	0.000922	-0.004183	0.002157	4202.653037	15643.442717	3196.335861	8857.717701
37.535500	-0.004346	0.001261	0.003648	0.001318	4196.238091	15677.925734	3202.840531	8869.233348
38.036000	-0.001350	0.000305	-0.009214	0.001017	4206.026349	15658.734257	3193.458580	8873.377284
38.536500	-0.005561	0.000686	-0.000535	0.000385	4195.404125	15688.422568	3200.386554	8882.074675
39.036500	-0.005247	0.001731	-0.013669	0.000318	4196.532960	15721.119562	3190.705272	8883.010186
39.536500	-0.003245	0.000602	-0.003426	0.000388	4202.257572	15685.858487	3198.217774	8882.035120
40.037500	0.000882	0.000650	-0.013732	0.001279	4211.909661	15661.162015	3189.959055	8869.774979
40.537500	-0.002564	0.001573	-0.009270	0.001173	4201.948324	15691.327209	3193.301935	8871.228084
41.034500	0.002435	0.001432	-0.015100	0.001753	4215.141517	15670.170942	3188.619892	8863.253380
41.535500	-0.000182	0.000555	-0.000842	0.000620	4210.695745	15677.692053	3199.979259	8878.841131
42.036000	-0.005611	0.000740	-0.011396	0.000651	4194.471541	15682.224825	3192.124151	8878.415218
42.536000	-0.005578	-0.000102	-0.017934	0.000187	4195.940059	15671.112953	3187.701847	8884.804823
43.036500	-0.001923	0.000340	-0.004434	0.000664	4205.371440	15670.103302	3197.260137	8878.238644
43.536500	0.000641	0.001211	-0.004988	0.000834	4212.520201	15690.661140	3196.720830	8875.892898
44.037000	0.002681	0.000157	0.003364	0.000641	4219.224582	15665.421756	3203.139035	8878.554070
44.537000	-0.004451	0.000629	-0.007661	0.000236	4199.132191	15691.142327	3195.181592	8884.137997
45.037500	0.002271	0.002273	0.004036	-0.003275	4229.819632	15843.333068	3206.636908	8932.726603
45.535500	-0.000168	0.003447	-0.008227	0.000290	4211.727344	15772.539298	3194.722759	8883.393381
46.038500	0.001786	0.002628	-0.001828	0.003376	4208.340987	15657.665444	3197.180197	8841.000934
46.536000	-0.002519	0.001696	-0.012389	-0.001036	4208.662142	15759.956951	3192.633472	8901.690795
47.036000	-0.002073	0.001224	0.001413	0.005154	4191.627442	15564.878535	3198.272169	8816.724423
47.536000	0.002804	0.000638	-0.007018	-0.002286	4228.436640	15765.617752	3197.532494	8918.995699
48.036500	-0.001365	0.000451	-0.006857	-0.000857	4211.576055	15718.029031	3196.588301	8899.220304
48.537000	0.004773	0.002887	-0.009072	0.001666	4222.438701	15715.444772	3193.085471	8864.452603
49.034500	-0.003364	0.002113	0.004736	0.003519	4192.637944	15638.426250	3201.997849	8839.043585
49.540000	0.002389	0.000908	-0.005249	-0.001618	4225.160613	15753.897673	3198.354967	8909.751231
50.035000	0.003418	0.000722	-0.015891	0.001385	4219.201953	15660.158333	3188.313504	8868.312128
50.535000	0.001963	0.001034	-0.006149	-0.001810	4224.449230	15763.265562	3197.825214	8912.400130
51.036000	-0.001521	0.000366	-0.004447	0.001052	4205.412845	15659.488840	3196.961254	8872.892324
51.536000	0.001589	0.002302	-0.004498	-0.002740	4226.134947	15828.333675	3199.757924	8925.305261
52.036000	-0.000653	0.002024	0.012350	0.002281	4204.338507	15672.072506	3208.758126	8856.017213
52.536500	-0.047879	-0.035438	0.049985	0.266105	3543.430400	9304.281124	3072.748931	6143.219134
53.036500	-0.046386	-0.021632	0.016448	0.088649	3865.401072	12823.582786	3150.942255	7781.430672
53.536500	0.016291	0.000409	-0.004076	-0.093501	4587.337610	18753.930284	3275.925446	10326.337033
54.037500	0.001808	-0.010060	-0.005112	-0.062172	4419.617062	17303.245821	3247.042531	9809.306992
54.540500	0.000137	-0.015050	-0.004442	-0.033770	4318.751634	16240.591770	3223.949485	9371.749697
55.035000	0.013425	-0.007632	0.010432	-0.033957	4363.081737	16475.460040	3236.307663	9374.532636
55.538000	0.030669	-0.003109	0.036334	-0.035970	4428.873044	16680.615390	3260.377436	9404.615940
56.035500	0.037163	-0.000371	0.040406	0.003345	4318.463731	15571.102774	3230.240859	8841.434064
56.535500	0.054662	0.003383	0.047752	0.037792	4264.633865	14709.490817	3208.673452	8388.182772
57.036500	0.061491	0.009940	0.058112	0.072111	4181.668378	13980.954278	3190.696251	7970.996049
57.536000	0.072483	0.011645	0.082686	0.105750	4117.156256	13198.513025	3184.148977	7592.850221
58.036500	0.097795	0.024600	0.094300	0.128657	4123.847841	12966.184500	3176.181550	7351.608610
58.537000	0.112147	0.032613	0.107526	0.158225	4082.125120	12480.909316	3165.012257	7058.451776
59.037500	0.131159	0.045311	0.137772	0.208233	4001.521357	11695.790675	3152.054144	6605.872275
59.540000	0.161494	0.056527	0.166976	0.240508	3996.665445	11281.554752	3150.093255	6340.270078
60.035000	0.177016	0.071427	0.194536	0.268063	3967.025068	11042.104949	3150.096715	6128.619831
60.539500	0.198873	0.080600	0.196238	0.296976	3950.022236	10682.246742	3133.312171	5920.506136
61.035500	0.212011	0.092558	0.210406	0.321679	3922.747437	10458.475420	3127.091648	5753.356750
61.536000	0.223271	0.103645	0.236871	0.337739	3911.633994	10372.916560	3133.234106	5649.671474
62.036500	0.237443	0.110690	0.243840	0.351844	3911.790865	10253.125410	3129.005423	5561.725103
62.536500	0.247982	0.116695	0.275303	0.363587	3909.022362	10157.204280	3140.863972	5490.650805
63.036500	0.250482	0.118989	0.280095	0.360301	3922.392980	10250.463678	3145.878618	5510.341254
63.540500	0.253655	0.127382	0.277242	0.364310	3920.449499	10324.585451	3141.612736	5486.333725
64.052500	0.257830	0.129430	0.261969	0.356833	3947.873561	10488.255944	3136.847311	5531.293134
64.535000	0.257798	0.130937	0.268401	0.356252	3949.186245	10524.629924	3141.130321	5534.820659
65.062000	0.261559	0.133049	0.273853	0.357713	3954.692373	10535.994355	3143.598947	5525.961013
65.539500	0.276208	0.138109	0.277141	0.361995	3979.880554	10549.601954	3142.981730	5500.172228
66.035500	0.270085	0.137489	0.263467	0.364698	3958.397216	10491.622106	3133.017574	5484.022149
66.536000	0.271921	0.141746	0.282517	0.367980	3954.921282	10508.602166	3142.604646	5464.551290
67.036000	0.270198	0.141872	0.275307	0.371713	3941.899338	10446.031447	3135.914462	5442.580038
67.539500	0.273916	0.145521	0.291491	0.376073	3940.379386	10433.754247	3143.151011	5417.157125
68.037000	0.276137	0.144439	0.285985	0.377509	3942.237045	10390.446672	3138.878295	5408.836613
68.536500	0.278516	0.144276	0.293988	0.377827	3947.141032	10382.215180	3143.612322	5407.001244
69.035000	0.282385	0.147360	0.283032	0.385633	3937.797943	10301.764926	3132.200660	5362.293578
69.535000	0.279671	0.145089	0.260700	0.383256	3937.002269	10303.579733	3120.593880	5375.825591
70.035000	0.286601	0.148664	0.286508	0.390449	3936.380068	10242.503678	3131.404334	5335.111460
70.535500	0.283215	0.149301	0.293625	0.390324	3928.718448	10255.329320	3135.737677	5335.814595
71.035500	0.293129	0.148649	0.291345	0.392995	3945.816935	10199.606373	3132.767458	5320.863892
71.536000	0.287420	0.150113	0.293650	0.394339	3929.164804	10201.619962	3133.341555	5313.379952
72.036500	0.284421	0.152640	0.310046	0.399814	3909.507701	10152.497593	3139.952537	5283.110146
72.536500	0.289602	0.149772	0.299339	0.399336	3922.592245	10112.939735	3133.755529	5285.737720
73.037000	0.287912	0.151202	0.307065	0.400669	3915.582124	10114.544336	3137.611705	5278.419013
73.537000	0.292169	0.155984	0.300306	0.405000	3915.410578	10121.997862	3130.958566	5254.794649
74.035000	0.296175	0.153942	0.295901	0.407733	3918.357051	10043.522580	3126.765499	5240.006322
74.534500	0.293367	0.155099	0.306380	0.408303	3910.560101	10053.124608	3132.605322	5236.935421
75.035500	0.294183	0.155384	0.300661	0.410427	3907.556215	10023.087386	3127.972270	5225.521476
75.536000	0.295285	0.155020	0.299281	0.410107	3910.820187	10022.351462	3127.351903	5227.234628
76.036500	0.296122	0.154744	0.313744	0.413040	3906.012745	9970.257106	3134.175820	5211.555402
76.536000	0.295802	0.154545	0.308798	0.413850	3903.428337	9953.938354	3130.746389	5207.241209
77.036500	0.298589	0.159573	0.307349	0.419586	3896.719262	9942.524759	3126.529429	5176.934375
77.536500	0.304969	0.158851	0.312992	0.420031	3910.268047	9923.739413	3129.573047	5174.599123
78.040000	0.296963	0.157218	0.312816	0.418532	3895.423130	9921.584906	3130.353898	5182.474866
78.535000	0.304893	0.158187	0.314674	0.421046	3907.766004	9896.814879	3129.966743	5169.288150
79.034000	0.298891	0.159705	0.303449	0.424156	3887.089802	9871.370031	3121.646485	5153.072885
79.535000	0.304604	0.159870	0.311533	0.423008	3902.616506	9892.348007	3126.973011	5159.044612
80.035500	0.299948	0.158489	0.303132	0.424962	3887.655232	9839.190680	3121.006512	5148.893153
80.536000	0.305812	0.160649	0.311768	0.426718	3896.926975	9845.608371	3124.955023	5139.808502
81.036000	0.306273	0.164775	0.318311	0.431798	3886.507819	9830.464213	3125.802750	5113.732809
81.537000	0.300338	0.160967	0.304700	0.428325	3880.997838	9825.162356	3119.986733	5131.525681
82.036500	0.301876	0.160047	0.316936	0.428775	3883.427993	9803.493884	3126.761212	5129.212602
82.537000	0.308384	0.162505	0.328820	0.431194	3892.617422	9804.090812	3132.335823	5116.813578
83.037000	0.307302	0.158794	0.322925	0.429905	3893.085715	9765.952214	3129.608060	5123.414891
83.534500	0.309820	0.162697	0.330351	0.432985	3891.818487	9778.904034	3132.181949	5107.684408
84.035000	0.311109	0.162254	0.325879	0.433370	3893.858512	9765.882469	3129.307680	5105.725707
84.535500	0.307008	0.163306	0.320166	0.435864	3879.060829	9743.270227	3124.523009	5093.080653
85.036000	0.312269	0.162425	0.310535	0.436689	3888.989754	9716.606309	3118.556958	5088.911720
85.535500	0.314819	0.163350	0.342334	0.437259	3893.453413	9722.130860	3136.810043	5086.035380
86.036500	0.309792	0.162263	0.326320	0.435714	3885.616936	9729.298685	3128.189560	5093.837542
86.536000	0.305180	0.160404	0.323572	0.434129	3878.852424	9725.001499	3127.509082	5101.866182
87.036500	0.305348	0.161911	0.300447	0.438262	3870.065625	9684.131881	3112.070620	5080.987669
87.540000	0.309397	0.161312	0.324022	0.437619	3880.475047	9684.820564	3125.738955	5084.224887
88.037000	0.308290	0.160254	0.322844	0.437854	3877.484996	9664.768797	3124.920544	5083.040642
88.535000	0.306086	0.161013	0.315399	0.439111	3869.822486	9657.084446	3119.937295	5076.725244
89.037000	0.307683	0.159158	0.319937	0.437652	3876.586355	9650.962124	3123.361011	5084.059654
89.535500	0.305941	0.161595	0.328750	0.440504	3866.435487	9644.547197	3126.810650	5069.744914
90.036000	0.310183	0.158079	0.319223	0.440071	3876.766350	9597.163611	3121.566923	5071.914361
90.535500	0.309031	0.158330	0.317052	0.438757	3877.126686	9621.167867	3121.077811	5078.502078
91.036500	0.311555	0.160760	0.328931	0.442666	3874.050862	9598.457718	3125.658791	5058.956377
91.537000	0.303053	0.156318	0.318069	0.439068	3863.251063	9585.552059	3121.480441	5076.940381
92.040000	0.307599	0.160972	0.322370	0.444090	3862.206964	9579.922789	3121.068946	5051.881654
92.539500	0.315840	0.166797	0.340713	0.449155	3869.182400	9591.545053	3128.748163	5026.903092
93.034500	0.315865	0.159960	0.323932	0.443230	3882.386660	9577.604419	3122.452434	5056.152893
93.535000	0.309789	0.161029	0.325509	0.444922	3865.185552	9568.107879	3122.386918	5047.761449
94.035500	0.306825	0.161276	0.345695	0.447855	3852.329177	9527.252544	3132.463773	5033.285990
94.535500	0.312678	0.160235	0.335490	0.447091	3866.764597	9523.044420	3126.899680	5037.045768
95.036000	0.315429	0.164559	0.321769	0.448749	3869.171826	9563.569742	3118.091583	5028.893497
95.549500	0.316808	0.162228	0.336363	0.449465	3870.633032	9517.286573	3126.026339	5025.381102
96.033500	0.318821	0.163550	0.340916	0.449927	3874.064844	9530.319344	3128.414423	5023.121776
96.537000	0.311501	0.158773	0.336151	0.447566	3863.140092	9493.775753	3127.008024	5034.706368
97.037000	0.315645	0.161202	0.330713	0.449415	3868.180495	9502.543876	3122.794661	5025.630410
97.535000	0.318048	0.162505	0.327418	0.451571	3868.724877	9489.656931	3119.687782	5015.088866
98.035000	0.317780	0.161623	0.333812	0.451781	3867.671292	9473.221028	3123.214660	5014.063537
98.566500	0.314393	0.162862	0.330507	0.454840	3853.590575	9445.908856	3119.585377	4999.207709
99.036000	0.308707	0.160366	0.316939	0.450482	3850.716090	9473.845422	3114.426772	5020.404956
