sample name	sample
index	103
start time	 02-15-2021  11:18:17 AM
880	0.434701
Peak Time (s)	92.036
Peak Height 	0.4347
calc peak height	90,93
Baseline Time (s)	11.537
Baseline Value 	-4.312E-4
subtract baseline	10,4
Abs	0.319979
Peak Time (s)	91.535
Peak Height 	0.32
calc peak height	90,93
Baseline Time (s)	11.537
Baseline Value 	0.009072
subtract baseline	10,3
PK_550	0.157026
Peak Time (s)	92.036
Peak Height 	0.157
calc peak height	90,93
Baseline Time (s)	11.537
Baseline Value 	5.7249E-4
subtract baseline	10,2
PK_880	0.295999
Peak Time (s)	91.035
Peak Height 	0.296
calc peak height	90,93
Baseline Time (s)	10.039
Baseline Value 	0.001792
subtract baseline	10,1


Time (s)	A880-A510	A880-A775	A880-A975	A880	I510	I775	I975	I880	
0.035000	-0.001336	-0.000114	-0.005407	-0.000804	4138.790587	15083.664495	3203.593961	8669.478935
0.535500	-0.004103	-0.000899	-0.012296	0.003560	4119.802672	14941.468454	3196.348547	8612.319729
1.035500	0.001209	-0.000276	-0.001936	0.002441	4136.911781	14989.365508	3203.741225	8626.916352
1.536000	0.000362	0.000290	0.006617	-0.001451	4145.101232	15112.859278	3211.979735	8677.990610
2.036500	0.001258	-0.002333	-0.000202	-0.003276	4152.470009	15090.680579	3208.645652	8702.107937
2.536500	-0.001738	-0.000081	-0.004423	-0.000526	4136.963907	15076.829008	3204.053999	8665.810725
3.037000	-0.002548	-0.000545	-0.011437	-0.003206	4141.988154	15138.506588	3201.236983	8701.172037
3.540000	-0.002016	-0.002072	-0.008329	-0.002847	4142.455755	15086.017765	3203.021379	8696.431932
4.034000	-0.001947	-0.001015	-0.007492	-0.001740	4139.663634	15084.609234	3202.845197	8681.804294
4.535000	-0.005012	0.000035	0.013404	-0.000736	4128.781373	15085.888327	3216.085581	8668.572608
5.035500	0.000147	0.001527	-0.003687	0.000467	4139.357401	15093.923601	3203.886302	8652.763764
5.536000	-0.000701	-0.000088	-0.014492	-0.001005	4141.037090	15089.947621	3197.858195	8672.118692
6.036000	0.003292	0.001139	0.009940	0.000204	4148.549646	15090.461931	3213.102365	8656.225322
6.536500	0.000464	0.000181	0.002068	-0.000779	4143.562702	15091.135508	3208.494635	8669.137823
7.036000	-0.002517	-0.001024	-0.006351	-0.001884	4138.520076	15088.370266	3203.682474	8683.707194
7.537000	-0.000765	-0.001299	-0.021624	-0.001217	4141.434680	15062.223771	3193.471731	8674.918357
8.037500	-0.001078	0.000497	-0.009094	-0.000034	4137.414710	15079.231278	3200.701514	8659.344050
8.537500	-0.002948	0.000982	0.003521	0.000129	4131.977606	15088.173096	3208.856623	8657.210852
9.034500	0.000012	0.001017	-0.023845	0.000256	4139.563187	15085.620130	3191.157650	8655.533376
9.540500	-0.002138	-0.000261	0.000866	-0.001340	4138.074856	15094.459994	3208.069386	8676.529958
10.039000	0.000000	-0.000546	0.002102	-0.000974	4142.839857	15076.372157	3208.646478	8671.710109
10.536000	0.001637	0.000397	-0.000604	0.000243	4143.971508	15068.770424	3206.054033	8655.711935
11.036500	0.000523	-0.001585	-0.007831	-0.001655	4146.089154	15066.436966	3202.569380	8680.684303
11.536500	-0.002540	0.000000	0.000000	0.000000	4133.410352	15064.496107	3206.611810	8658.900303
12.036500	-0.002864	0.000749	-0.012994	-0.000306	4133.363118	15093.794401	3198.369324	8662.925541
12.537000	0.000733	0.000786	-0.006349	-0.000254	4142.874492	15093.363954	3202.622571	8662.240064
13.040000	0.001800	-0.000739	-0.005511	-0.002964	4153.094136	15126.351282	3204.937857	8697.969655
13.535000	0.005966	0.000332	-0.000714	-0.001530	4160.541966	15116.255213	3207.150515	8679.037386
14.035000	-0.001508	0.000453	0.002343	0.001317	4132.649759	15040.559052	3207.288759	8641.622590
14.535500	-0.000214	-0.001170	-0.007148	0.000825	4137.429434	15009.302138	3201.403922	8648.068690
15.035500	0.001718	0.000742	-0.007138	-0.000446	4146.049034	15097.477155	3202.234297	8664.762957
15.535500	0.002342	-0.000838	-0.016940	-0.002127	4152.295498	15100.294491	3197.012500	8686.918421
16.036000	-0.001972	-0.000053	0.001086	-0.001081	4137.826628	15093.030535	3208.043238	8673.115234
16.565000	0.003317	0.000492	-0.016667	-0.000751	4151.206239	15099.031182	3196.310540	8668.780253
17.037000	0.003110	0.001031	-0.012984	-0.002963	4156.657622	15175.753199	3200.081818	8697.957679
17.537000	0.002430	0.000297	-0.014225	-0.003044	4155.027439	15157.519517	3199.335446	8699.033516
18.336000	0.001686	0.001024	-0.003318	0.001742	4140.067697	15044.601244	3203.295388	8636.053976
18.721500	0.000731	-0.000369	0.009773	0.000571	4140.648542	15038.462937	3212.742408	8651.401141
19.038500	0.000640	0.000486	-0.013371	0.000865	4139.612546	15053.979095	3197.379446	8647.540624
19.538500	0.000280	-0.000444	0.014752	-0.000341	4141.890473	15061.648412	3216.735779	8663.381233
20.036000	-0.004104	-0.000458	0.002403	0.000509	4127.885252	15037.696306	3207.862924	8652.216145
20.535500	0.004528	0.002716	-0.017468	0.002510	4145.653520	15070.201348	3193.741006	8626.012339
21.036500	0.001387	-0.000263	-0.009080	-0.000328	4144.838033	15066.317874	3200.900385	8663.214015
21.536500	-0.002226	-0.000736	-0.008369	0.000225	4133.647217	15037.855974	3201.002118	8655.940881
22.036500	-0.000798	0.002297	0.006077	0.002060	4132.561861	15071.080829	3209.271957	8631.901526
22.537500	0.000080	-0.000918	-0.009135	-0.000259	4141.132202	15046.237047	3200.820444	8662.306030
23.034500	-0.002310	-0.000487	-0.012919	-0.000121	4134.351485	15054.346791	3198.298541	8660.491688
23.535000	-0.002144	-0.000544	-0.009714	0.000515	4133.092409	15035.149967	3199.947551	8652.134178
24.035500	0.000098	0.000310	-0.020727	0.001274	4137.061291	15037.793059	3192.470441	8642.188378
24.535500	-0.000703	-0.001351	-0.001499	-0.000095	4138.584603	15029.716219	3205.687982	8660.147024
25.036000	-0.000482	-0.000468	-0.008318	-0.000339	4139.834341	15060.916919	3201.400169	8663.358221
25.536000	0.006302	0.001231	-0.006241	0.001872	4152.186207	15046.718215	3201.313240	8634.352916
26.036500	0.002122	0.002058	-0.012175	0.002964	4137.958697	15039.393064	3196.804386	8620.091960
26.536500	0.001058	-0.000336	0.006641	0.000165	4142.623299	15050.621612	3210.912860	8656.734316
27.040000	0.002681	0.001503	-0.004335	0.001513	4143.361610	15064.208648	3202.782607	8639.055902
27.537500	-0.002219	-0.000171	-0.010011	-0.002752	4141.654498	15136.308501	3201.867196	8695.177298
28.035000	0.000454	0.001541	-0.003305	0.000460	4140.201347	15094.507163	3204.140705	8652.858699
28.535500	0.005288	0.001380	-0.007166	0.000159	4154.087197	15098.404279	3201.823921	8656.814572
29.035000	0.000260	0.001020	0.003926	-0.000172	4141.379689	15097.597071	3209.325527	8661.156529
29.535500	-0.003523	0.000405	-0.003826	-0.000311	4131.615986	15084.373191	3204.303891	8662.986604
30.036000	-0.002200	0.001232	-0.007108	0.002574	4127.455497	15027.324899	3200.300003	8625.181693
30.536000	0.001158	0.000096	-0.020578	-0.001075	4146.238862	15097.032663	3194.040715	8673.045144
31.036500	0.001699	0.001328	-0.000996	0.000263	4144.085493	15094.061389	3205.782881	8655.443618
31.541000	-0.001187	0.000311	0.006310	0.001984	4131.725870	15018.186919	3209.477369	8632.892921
32.037000	-0.006435	-0.000654	0.006736	0.003499	4113.821581	14949.881313	3208.753840	8613.118970
32.537500	-0.001729	0.001054	-0.003555	-0.000029	4135.659228	15094.568229	3204.297281	8659.287378
33.035000	-0.002312	-0.000744	-0.014370	-0.001253	4137.375974	15078.612029	3198.094557	8675.385719
33.535000	-0.002345	-0.001023	-0.001512	-0.001633	4138.305890	15081.421620	3206.691148	8680.388910
34.036000	-0.002020	0.001016	-0.008521	0.003304	4125.993897	15001.202190	3198.922144	8615.652120
34.535500	-0.004280	-0.000479	-0.012822	0.001142	4125.733613	15019.611178	3197.553529	8643.913352
35.035500	0.002903	0.000282	-0.014134	0.001160	4144.915209	15040.176707	3196.705957	8643.684467
35.536500	-0.000917	0.001176	0.004167	0.002699	4130.537794	15022.315482	3207.581100	8623.547141
36.039500	0.001296	0.000418	-0.009010	0.002102	4138.053956	15017.880160	3199.379927	8631.345063
36.539500	-0.002556	0.000213	-0.012271	0.002318	4127.192200	15006.276921	3197.155030	8628.530176
37.037000	-0.001658	-0.001421	-0.005867	0.000624	4134.100440	15007.906956	3202.364639	8650.707873
37.534500	0.000831	0.000230	-0.016372	0.002462	4135.843422	15002.760300	3194.462728	8626.651402
38.035000	-0.003573	0.001062	-0.020275	0.002504	4123.997400	15024.561213	3191.983273	8626.093046
38.535500	0.000895	0.001619	0.003531	0.003426	4133.435304	15014.502334	3206.681165	8614.067411
39.035500	-0.002803	0.000553	-0.027844	0.001730	4128.097956	15031.912383	3187.766761	8636.220110
39.536000	-0.005735	-0.000055	-0.000165	0.001380	4121.251179	15024.791122	3205.595268	8640.804851
40.036500	-0.000957	0.001203	-0.009899	0.002534	4130.872290	15027.658172	3198.532355	8625.707712
40.537000	-0.002111	-0.000626	-0.020385	0.000911	4132.124794	15021.946174	3192.912438	8646.941688
41.037000	-0.001435	0.000401	0.006505	0.001848	4131.426356	15024.411908	3209.697809	8634.666685
41.537000	0.000259	0.000281	-0.003067	0.002417	4134.432317	15005.392295	3203.019348	8627.229311
42.037000	-0.003829	-0.001181	-0.002620	0.000028	4129.896374	15031.005364	3204.871894	8658.531634
42.535000	0.002208	0.000121	-0.002398	0.002677	4138.960651	14993.825476	3203.286592	8623.843977
43.035500	0.000203	0.000324	-0.013851	0.001922	4135.608139	15020.273310	3196.401377	8633.706543
43.535500	0.000799	0.002471	-0.013231	0.002669	4135.201458	15058.999498	3196.320076	8623.935904
44.036000	-0.004537	-0.000232	-0.011315	0.001131	4125.084682	15026.767650	3198.524093	8644.064234
44.538500	0.001385	0.001423	-0.011051	-0.002699	4151.248632	15179.363552	3201.159142	8694.474224
45.039000	-0.001193	0.000614	0.003758	-0.000618	4138.675268	15098.719516	3209.510953	8667.028118
45.536500	-0.001538	0.001912	0.006135	0.000612	4134.453859	15100.590849	3210.275279	8650.861764
46.034000	-0.003470	0.000731	0.000979	0.005925	4115.236491	14921.306218	3203.369924	8581.581476
46.534500	0.004750	0.001862	0.006500	0.001054	4150.193909	15086.914951	3210.224034	8645.063061
47.038000	0.000556	0.001658	-0.009937	-0.000205	4142.264940	15116.270008	3200.267916	8661.591163
47.535000	-0.000851	-0.000780	-0.005000	-0.001418	4141.744570	15082.202588	3204.260616	8677.563468
48.035000	-0.005619	-0.000450	-0.009336	0.004333	4113.773556	14932.570251	3197.741813	8602.257455
48.535500	0.001537	0.001140	0.016354	0.004151	4133.213756	14981.280025	3214.769329	8604.620981
49.037500	0.000417	0.000551	-0.006595	0.000074	4141.142034	15077.741924	3202.249617	8657.931645
49.536000	-0.000692	0.001239	-0.013692	-0.000493	4139.683497	15112.614172	3198.041970	8665.379971
50.036500	0.001080	0.001472	0.001355	0.006033	4126.982066	14938.669941	3203.544678	8580.187601
50.539500	0.004344	0.000179	-0.003297	-0.004404	4163.971012	15192.273789	3207.341949	8717.051599
51.037000	0.003056	0.000609	-0.007754	-0.004932	4161.889779	15219.154378	3204.757698	8724.072148
51.534500	-0.050545	-0.029190	0.007712	0.167684	3679.131159	10674.499329	3118.403239	6831.312954
52.037500	-0.077941	-0.037677	-0.024608	0.109825	3730.452706	11596.073009	3130.400031	7383.994285
52.534500	-0.004101	-0.009672	-0.018698	-0.127537	4523.967614	18819.820949	3288.146362	10606.488599
53.036000	-0.003802	-0.011512	0.004567	-0.123966	4512.322684	18624.188434	3305.208444	10543.812541
53.536000	0.000882	-0.011672	0.016682	-0.065432	4332.798704	16651.637716	3266.194347	9586.690580
54.035500	0.004994	-0.008189	0.005884	-0.056595	4318.082495	16484.605510	3250.905921	9453.073125
54.536000	0.017019	-0.005614	0.022491	-0.073624	4411.156457	17106.315793	3277.526069	9713.003380
55.036500	0.034496	-0.000124	0.018688	-0.056803	4413.330775	16743.561771	3260.960243	9456.189508
55.537000	0.037440	-0.001440	0.034859	-0.005541	4261.661848	15178.756096	3234.520564	8732.164678
56.035000	0.043263	0.002675	0.034757	0.039966	4149.115125	14073.449040	3203.198767	8157.255057
56.537500	0.056133	0.004273	0.064865	0.052992	4148.693968	13786.404601	3214.545964	8003.485023
57.034500	0.081990	0.016882	0.078544	0.084569	4133.305854	13326.282888	3202.667275	7649.303648
57.535500	0.097149	0.025169	0.100861	0.120208	4079.854160	12697.220446	3194.138678	7279.317972
58.035500	0.113805	0.030904	0.114524	0.163164	4014.804672	11902.383175	3176.279444	6871.884804
58.536000	0.135635	0.041119	0.137512	0.191676	3998.898164	11535.963044	3173.045131	6622.880824
59.036000	0.148433	0.051348	0.155431	0.221203	3960.125030	11165.845968	3166.379667	6381.665715
59.536500	0.167945	0.065585	0.171050	0.256417	3925.067065	10781.734334	3155.525043	6114.635678
60.036500	0.180878	0.075502	0.186976	0.287520	3886.050544	10412.198476	3147.448290	5896.133337
60.537000	0.207140	0.087695	0.205485	0.307018	3900.383837	10288.903615	3146.931378	5766.922964
61.034500	0.218635	0.098412	0.223446	0.328496	3879.307081	10111.021069	3145.104533	5631.154081
61.535000	0.224779	0.107461	0.245585	0.346865	3854.146420	9960.465141	3147.063838	5520.241901
62.034500	0.232221	0.114054	0.254915	0.340402	3882.819824	10172.282831	3155.460577	5558.732412
62.538500	0.241616	0.121221	0.253068	0.341477	3900.420202	10273.304455	3153.883848	5552.289802
63.036000	0.242054	0.122591	0.263238	0.332784	3920.129233	10443.330420	3164.251391	5604.841171
63.535500	0.246244	0.126223	0.257786	0.337698	3918.549546	10421.445223	3158.497809	5575.002813
64.050500	0.251699	0.126976	0.269533	0.337253	3931.486310	10441.894057	3165.278606	5577.691780
64.536500	0.253836	0.130888	0.261285	0.340303	3929.474002	10456.641203	3158.988952	5559.326474
65.037000	0.256377	0.132963	0.263977	0.341986	3931.365358	10463.362943	3159.544114	5549.244472
65.537000	0.259372	0.131594	0.277199	0.343300	3935.081269	10417.505460	3166.193346	5541.398271
66.035000	0.259746	0.136406	0.257004	0.347242	3927.207093	10432.338062	3152.901940	5518.011063
66.535000	0.264929	0.137222	0.261617	0.349460	3933.747833	10408.463702	3154.188359	5504.949032
67.035000	0.270019	0.140340	0.261401	0.352579	3938.119048	10408.440374	3152.399453	5486.687233
67.535500	0.267349	0.140008	0.256404	0.354444	3928.089775	10371.151264	3148.761237	5475.826741
68.036000	0.271630	0.142599	0.279984	0.365816	3912.619247	10224.019616	3155.273343	5410.627011
68.536000	0.264937	0.140526	0.269949	0.360570	3909.493471	10276.838160	3152.696975	5440.492894
69.036500	0.269428	0.141489	0.277616	0.363678	3912.480261	10241.093719	3155.149008	5422.754708
69.539500	0.273271	0.143052	0.268194	0.367443	3912.650968	10204.563147	3148.126289	5401.437741
70.034500	0.271451	0.145007	0.263777	0.377106	3888.127873	10078.186635	3140.860288	5347.567307
70.534500	0.268406	0.144735	0.283389	0.370413	3895.848388	10183.313403	3154.629841	5384.754303
71.035000	0.274132	0.145930	0.283463	0.374092	3900.207548	10142.461437	3152.692776	5364.240097
71.535000	0.273941	0.145600	0.302970	0.375068	3897.719487	10121.060154	3162.821839	5358.825223
72.035500	0.274704	0.147438	0.287519	0.384208	3880.051370	10002.682186	3149.473335	5308.726718
72.535500	0.276630	0.149103	0.282205	0.381647	3889.472870	10070.955675	3148.025158	5322.656636
73.036000	0.281265	0.150392	0.284241	0.384472	3893.302025	10046.061502	3147.612079	5307.294761
73.535500	0.283386	0.147736	0.288368	0.384437	3897.880805	10003.789360	3149.800397	5307.483907
74.036500	0.271795	0.146762	0.271067	0.391172	3859.660205	9880.922803	3137.445885	5271.253837
74.537000	0.277574	0.148467	0.303113	0.387443	3879.289492	9967.298631	3156.087486	5291.243888
75.034500	0.280798	0.151023	0.292601	0.392677	3875.104200	9924.593808	3147.693449	5263.236959
75.537500	0.278840	0.148503	0.292458	0.391601	3873.274506	9901.679752	3148.182182	5268.968131
76.035000	0.285582	0.150209	0.290908	0.393669	3883.015235	9895.942229	3146.291852	5257.961600
76.534500	0.284080	0.150222	0.289992	0.395613	3875.823044	9865.434661	3144.808886	5247.670113
77.035500	0.287684	0.150881	0.283762	0.396718	3881.033709	9858.408084	3141.049175	5241.836787
77.536000	0.283467	0.149510	0.300226	0.396681	3872.332584	9837.438183	3149.596483	5242.031830
78.035500	0.285139	0.151392	0.290005	0.398220	3872.610852	9842.831172	3143.472426	5233.939239
78.536000	0.284986	0.154152	0.289212	0.401937	3864.628472	9827.808615	3141.166762	5214.500717
79.039500	0.284947	0.153342	0.298691	0.402054	3864.308207	9813.301340	3145.978699	5213.890470
79.537000	0.282688	0.150223	0.303553	0.400834	3862.178258	9783.653165	3149.160940	5220.249967
80.034500	0.281044	0.151381	0.300420	0.402990	3854.429580	9768.132796	3146.390952	5209.021770
80.534500	0.290670	0.153975	0.304677	0.406826	3866.261619	9748.861375	3146.610410	5189.185221
81.034500	0.279460	0.150027	0.299072	0.403296	3850.600968	9742.383771	3145.531658	5207.431439
81.535500	0.290994	0.153153	0.302609	0.407808	3864.908421	9720.964470	3145.026692	5184.133240
82.035500	0.278273	0.149781	0.270161	0.406646	3841.478587	9686.943523	3129.409482	5190.109840
82.535500	0.287672	0.154048	0.280133	0.411066	3851.495360	9684.605139	3132.099685	5167.458976
83.036500	0.290010	0.151573	0.294415	0.407912	3862.678074	9695.030177	3140.774340	5183.599729
83.539500	0.289088	0.155037	0.299129	0.413551	3849.334629	9661.688336	3140.305437	5154.823247
84.037000	0.282736	0.151913	0.297987	0.411552	3840.594521	9644.514733	3140.740153	5164.984093
84.537500	0.295319	0.157601	0.288850	0.416883	3855.206083	9649.955677	3133.518409	5137.998911
85.034500	0.290047	0.154151	0.306962	0.415001	3848.344533	9626.059968	3143.562729	5147.488027
85.534000	0.283549	0.154128	0.313945	0.415708	3833.940240	9614.974097	3146.812070	5143.918809
86.035500	0.285172	0.153474	0.301103	0.420629	3827.424204	9530.846454	3137.735300	5119.231187
86.535000	0.288612	0.156515	0.311728	0.418407	3838.640269	9610.235879	3144.262745	5130.346370
87.036000	0.287295	0.153395	0.287424	0.416916	3838.988549	9585.564199	3132.803900	5137.833709
87.536000	0.285579	0.155457	0.308219	0.420237	3828.998456	9566.546637	3141.526564	5121.186909
88.036000	0.291727	0.154577	0.304431	0.424520	3832.684228	9489.198944	3137.454234	5099.913889
88.536500	0.293179	0.153619	0.316042	0.421323	3841.937048	9522.631075	3144.984466	5115.773600
89.037000	0.284368	0.152426	0.313328	0.420634	3825.834141	9515.073928	3143.939298	5119.206640
89.537000	0.282855	0.153377	0.298752	0.422882	3818.479990	9495.709928	3135.442857	5108.023175
90.035000	0.289581	0.153731	0.302375	0.428060	3821.499340	9424.184372	3134.674176	5082.483729
90.535000	0.289556	0.150813	0.307948	0.422815	3831.761970	9458.591949	3140.080040	5108.355115
91.035500	0.295999	0.155108	0.305494	0.428469	3833.324068	9438.466152	3136.015748	5080.479186
91.535500	0.290224	0.154167	0.319979	0.427560	3823.737642	9438.004704	3143.797973	5084.938219
92.036000	0.287502	0.157026	0.288672	0.434701	3804.630208	9375.041660	3124.865615	5050.171390
92.536500	0.294471	0.156714	0.309087	0.430836	3825.640658	9427.238666	3136.625666	5068.915742
93.039000	0.287438	0.152323	0.291328	0.426994	3819.397900	9419.137363	3129.804383	5087.716705
93.536500	0.291997	0.153447	0.292132	0.430101	3822.234242	9390.001118	3128.696625	5072.501351
94.064000	0.291248	0.151749	0.278858	0.431239	3818.551780	9348.534939	3121.895843	5066.955598
94.534500	0.292421	0.153305	0.312517	0.431327	3820.666413	9369.952024	3138.094139	5066.524812
95.034500	0.287762	0.150720	0.310972	0.429205	3815.727939	9363.194322	3138.384070	5076.878325
95.535500	0.298628	0.154321	0.296814	0.433169	3829.231022	9357.896768	3129.472295	5057.581031
96.035500	0.293498	0.152318	0.300982	0.435471	3814.698069	9295.372631	3130.372455	5046.453275
96.535500	0.290480	0.152102	0.314379	0.431797	3815.971918	9345.548211	3138.793241	5064.238594
97.036000	0.291217	0.154959	0.320647	0.435416	3810.394890	9334.449468	3140.129478	5046.718164
