sample name	sample
index	1199
start time	 04-26-2021  12:37:19 PM
880	0.420018
Peak Time (s)	90.036
Peak Height 	0.42
calc peak height	90,93
Baseline Time (s)	8.536
Baseline Value 	-0.003607
subtract baseline	10,4
Abs	0.292653
Peak Time (s)	91.037
Peak Height 	0.2927
calc peak height	90,93
Baseline Time (s)	9.036
Baseline Value 	0.003378
subtract baseline	10,3
PK_550	0.171288
Peak Time (s)	90.536
Peak Height 	0.1713
calc peak height	90,93
Baseline Time (s)	10.037
Baseline Value 	6.4628E-4
subtract baseline	10,2
PK_880	0.286043
Peak Time (s)	90.536
Peak Height 	0.286
calc peak height	90,93
Baseline Time (s)	11.04
Baseline Value 	2.377E-4
subtract baseline	10,1


Time (s)	A880-A510	A880-A775	A880-A975	A880	I510	I775	I975	I880	
0.040000	-0.001598	-0.001023	-0.004147	0.005447	6115.176347	43160.808558	3860.619485	22383.127907
0.537000	-0.002810	-0.001382	-0.010720	0.003278	6122.252972	43328.814452	3850.764722	22480.683448
1.037000	-0.000873	-0.000736	-0.003918	0.003128	6137.729428	43402.903705	3866.369538	22487.449092
1.537500	-0.001693	-0.000830	-0.000398	0.003264	6130.628248	43381.435515	3874.057620	22481.301424
2.035000	-0.000463	-0.000872	-0.003155	0.001826	6150.467322	43511.713685	3871.051941	22546.213071
2.535000	0.002308	-0.000209	-0.001609	0.000255	6183.030901	43720.969546	3878.165876	22617.411841
3.038000	0.001308	-0.000413	-0.000079	-0.002031	6192.743121	43917.033680	3886.941284	22721.465457
3.536000	-0.000117	-0.000738	0.001545	0.002961	6144.591126	43418.281764	3879.190680	22494.957335
4.036500	-0.000061	0.000017	0.000108	0.000434	6163.883743	43725.430119	3881.691841	22609.283032
4.536500	0.000629	-0.001244	-0.003645	-0.000140	6173.374069	43660.956243	3874.415409	22635.376353
5.037000	-0.000662	-0.000641	-0.002900	-0.000002	6162.649520	43704.562721	3875.798673	22629.074283
5.536500	0.002358	-0.000184	-0.000307	0.000508	6181.501463	43699.552150	3880.570795	22605.936985
6.037500	0.001088	-0.000735	-0.003967	0.000393	6172.813233	43658.654682	3872.465261	22611.136425
6.534500	0.001877	0.000274	-0.003261	0.000224	6180.025138	43769.360348	3874.460182	22618.842056
7.035000	0.003128	-0.000289	0.002278	-0.000299	6193.408653	43765.566778	3888.386379	22642.590318
7.538000	0.000749	-0.000717	0.000267	-0.000696	6178.450787	43762.610446	3884.658376	22660.620651
8.035500	0.000565	0.000188	0.003090	0.000210	6170.259261	43762.506441	3889.087066	22619.458198
8.536000	0.000884	-0.000125	-0.003623	0.000000	6174.238519	43752.833514	3874.146426	22628.996853
9.035500	0.001721	0.000199	0.000000	-0.000053	6180.933809	43788.324644	3882.564803	22631.408206
9.536500	-0.000048	-0.000378	-0.001495	-0.000154	6168.389892	43743.537201	3879.362732	22635.991893
10.037000	0.001872	0.000000	-0.000636	0.000396	6178.688343	43727.336847	3880.070029	22610.997780
10.534000	-0.000494	-0.000384	0.000302	0.000155	6162.734206	43713.894538	3882.780509	22621.952664
11.040500	0.000000	0.000092	0.000484	0.000556	6163.432396	43721.016513	3882.278779	22603.773825
11.535000	-0.000215	0.000166	0.000820	-0.000003	6166.009788	43780.489231	3884.338613	22629.151469
12.035500	0.002567	0.000227	-0.004895	0.003576	6160.038826	43450.943125	3863.150477	22467.226934
12.537500	0.002630	0.000034	-0.004879	-0.000181	6188.750572	43784.755051	3871.695151	22637.205375
13.036000	0.002470	-0.000277	-0.004242	-0.001253	6195.647646	43856.512879	3875.591453	22685.992093
13.536000	0.001583	-0.000014	-0.003938	-0.000710	6184.844241	43830.146856	3875.047567	22661.278060
14.036500	-0.001539	-0.000284	-0.003409	0.003346	6131.155683	43424.695463	3867.027397	22477.580240
14.536500	-0.000421	-0.000026	-0.006111	0.001670	6151.945080	43605.382730	3864.705724	22553.269868
15.039500	0.001782	0.000604	-0.001911	-0.000734	6186.524968	43890.588300	3879.739835	22662.356449
15.537000	-0.000876	-0.000041	-0.006601	-0.000786	6166.927452	43834.750656	3869.158151	22664.739588
16.035000	-0.000725	-0.000235	-0.000906	0.002437	6143.968085	43514.171894	3874.783852	22518.616290
16.535000	-0.000807	-0.000428	0.000697	-0.000899	6168.289890	43808.879883	3886.118878	22669.873810
17.038000	0.003160	-0.000116	-0.002027	-0.003657	6219.129803	44098.825538	3886.197545	22795.785811
17.540500	-0.000433	-0.000237	-0.001541	0.000000	6164.349269	43742.298777	3878.903607	22628.986717
18.036000	-0.000586	-0.000464	-0.004711	0.001304	6153.455545	43598.705466	3868.705549	22569.876479
18.536500	0.000291	0.000057	0.000650	0.000833	6163.533190	43691.722486	3882.021450	22591.188604
19.036500	-0.000987	-0.000319	-0.003816	0.000443	6156.885431	43693.013095	3872.694497	22608.878238
19.536500	0.000248	0.000219	-0.003678	0.001117	6161.088163	43680.261557	3871.476743	22578.320530
20.037500	-0.000464	-0.000266	0.000221	0.001518	6152.766742	43597.156090	3879.463639	22560.162901
20.535000	-0.000622	-0.000613	0.001091	0.000470	6159.412080	43662.880421	3883.872413	22607.649083
21.034500	-0.000337	-0.000613	-0.001885	0.000180	6163.725142	43690.094758	3877.705391	22620.839350
21.535000	-0.001094	0.000163	0.000877	0.000659	6154.474496	43718.008673	3882.944229	22599.090574
22.036000	-0.000337	0.000177	-0.003089	0.002004	6150.087322	43593.223469	3870.798296	22538.197185
22.535500	0.001979	0.000580	-0.004121	0.001097	6174.215050	43715.992594	3870.512944	22579.216723
23.036000	0.001915	0.000389	-0.003331	0.001034	6174.207244	43703.964566	3872.454364	22582.067644
23.539000	-0.000495	0.000547	0.003016	0.001301	6154.155811	43693.750137	3886.394092	22569.987263
24.036500	0.000415	-0.000681	-0.008280	0.001362	6160.501932	43573.002144	3860.512346	22567.238135
24.537000	0.000284	0.000260	-0.000394	0.000969	6162.463793	43697.986898	3879.311642	22585.012570
25.037500	-0.001746	-0.000257	-0.006203	0.000851	6148.178575	43660.534218	3866.351877	22590.390593
25.537500	-0.000675	0.000831	-0.006580	0.002735	6142.116157	43585.956528	3861.248045	22505.156201
26.035000	-0.000295	-0.000608	-0.006810	-0.000133	6166.381587	43719.968392	3867.204406	22635.031720
26.537500	0.000814	-0.000094	-0.002479	0.000812	6167.612599	43679.571025	3874.904366	22592.163395
27.035500	0.003679	-0.000061	-0.004312	-0.001365	6205.652512	43887.386934	3875.689950	22691.105320
27.537000	-0.001398	-0.000012	-0.000477	0.003555	6130.656361	43430.621825	3873.212012	22468.181095
28.036000	0.004284	-0.000287	0.004414	-0.001079	6208.077083	43839.093088	3895.154472	22678.057877
28.536500	0.000038	0.000085	0.001817	-0.000936	6174.912006	43860.716864	3888.793606	22671.540548
29.037000	0.003421	0.000373	0.001431	-0.000330	6195.862079	43830.828160	3886.501007	22644.010787
29.537500	-0.003119	-0.000033	-0.002589	0.005549	6103.226419	43243.147193	3863.902254	22378.560495
30.037500	0.002210	0.000123	0.000270	-0.000965	6191.505884	43867.007516	3885.287608	22672.890537
30.537000	-0.001700	-0.000120	-0.007286	0.002233	6138.224550	43543.894318	3860.789728	22527.818888
31.035500	-0.000334	0.000856	-0.001779	0.002070	6149.610728	43650.569859	3873.628911	22535.194358
31.535500	-0.000288	-0.000223	-0.004893	0.004581	6131.280291	43315.374561	3860.890946	22422.005828
32.036000	0.000215	-0.000025	-0.003947	0.003912	6139.978995	43396.064429	3864.531486	22452.088651
32.536000	0.000424	0.000356	0.002012	-0.000315	6173.140466	43827.699982	3887.807188	22643.295500
33.036000	0.000344	0.000717	0.002705	-0.000126	6171.127071	43843.984218	3888.973765	22634.725741
33.536500	-0.001166	-0.000795	-0.006054	0.003266	6134.522029	43384.523959	3861.238286	22481.216746
34.036500	-0.000276	-0.000553	0.000336	0.000342	6162.969785	43680.545977	3882.430398	22613.485899
34.537000	-0.001608	0.000008	-0.002674	0.001506	6144.328618	43624.028164	3872.875413	22560.725259
35.035000	0.000201	0.000972	0.000337	0.002100	6153.380593	43658.601691	3878.395249	22533.828544
35.535000	0.000805	0.000012	-0.006335	0.002159	6157.456543	43563.201536	3863.098629	22531.181570
36.037500	0.003049	-0.000159	-0.000661	0.002681	6170.360548	43498.401749	3874.786710	22507.596974
36.535500	0.001972	0.000120	-0.002685	0.001482	6171.277075	43636.700344	3872.906519	22561.798836
37.036000	0.000978	-0.000622	0.003470	0.000840	6168.630857	43627.311452	3888.508924	22590.866349
37.536000	0.000934	0.000262	0.001135	0.002266	6157.622308	43576.666587	3879.844787	22526.347254
38.036500	-0.000421	0.000062	-0.005388	0.002708	6144.206431	43516.544042	3863.995862	22506.363428
38.536500	0.001692	-0.000263	-0.001122	0.001046	6172.444300	43641.635822	3877.468184	22581.529474
39.037000	-0.001490	-0.000476	-0.003719	0.000877	6149.894826	43637.615658	3871.928587	22589.211976
39.534500	0.000945	-0.000175	-0.004066	0.001175	6165.876781	43637.849521	3870.462972	22575.706856
40.034500	0.000169	0.000601	-0.005571	0.002720	6148.525323	43565.851604	3863.557014	22505.860421
40.538000	0.000469	0.000495	-0.003925	0.002242	6154.326913	43600.624810	3868.359191	22527.423931
41.035500	0.001011	0.000925	-0.000192	0.002115	6159.327345	43652.881856	3877.151279	22533.180667
41.535500	0.000096	0.000326	-0.000860	0.001576	6156.515559	43647.179691	3876.856235	22557.529223
42.036000	-0.001871	-0.000546	-0.004178	0.001771	6140.392049	43547.285126	3868.854913	22548.704229
42.536500	-0.000782	-0.000641	-0.000173	0.001075	6153.696807	43603.563088	3879.575735	22580.225569
43.037000	0.000132	0.000600	-0.001025	0.001562	6156.887407	43674.264371	3876.509722	22558.169097
43.537000	-0.000896	0.000920	-0.000688	0.001611	6148.848306	43699.737711	3877.169319	22555.973934
44.037000	0.002553	-0.000025	0.000828	0.000766	6181.031193	43690.296560	3882.585167	22594.252798
44.537500	0.001021	0.000317	0.003661	-0.000641	6180.093272	43854.799823	3892.385379	22658.144019
45.035000	0.002607	0.000688	0.004055	-0.000681	6192.353782	43893.569609	3893.392987	22659.956498
45.535000	0.000233	0.000527	0.001825	-0.000691	6174.536946	43879.263072	3888.245657	22660.398533
46.035500	0.001318	0.000011	-0.004264	0.003261	6153.055189	43460.126736	3865.287102	22481.438711
46.536000	0.001594	0.000326	-0.001998	-0.000365	6182.324459	43829.603249	3878.694132	22645.564182
47.036000	0.003794	0.000015	0.000734	-0.001007	6203.813974	43860.854469	3886.454719	22674.795905
47.536500	-0.000772	0.000488	0.000318	0.002641	6142.100446	43562.688581	3877.115819	22509.414326
48.036500	-0.000417	0.000024	-0.003157	0.003510	6138.274206	43438.178916	3867.227093	22470.221435
48.536500	-0.000018	-0.000039	0.000150	-0.001107	6175.777790	43865.184578	3885.338251	22679.357572
49.037500	0.004401	0.000917	-0.000237	0.000195	6199.299672	43832.506224	3881.449093	22620.120091
49.534500	-0.001470	0.000487	-0.007044	0.003510	6130.459172	43481.324880	3858.463030	22470.215027
50.037500	-0.000051	0.000990	0.000929	0.003132	6143.812498	43563.715206	3877.389001	22487.267974
50.535500	0.001299	-0.000081	0.001716	0.004685	6142.302427	43318.972353	3875.638034	22417.353617
51.035500	0.016707	-0.003711	0.014051	0.138341	5371.843134	32372.877505	3633.871173	17247.912447
51.536000	0.007441	-0.020934	-0.017551	0.144024	5288.538458	30860.270686	3572.151184	17061.411532
52.036000	0.008531	-0.060120	-0.026817	-0.219864	8421.850593	61918.775047	4441.478157	35629.802265
52.539000	0.013618	-0.105490	-0.007111	-0.291055	9480.157056	65532.161808	4804.150164	41459.217373
53.036500	0.017173	-0.070443	0.002009	-0.246579	8889.365521	64187.800643	4654.001165	37706.166634
53.537500	0.011597	-0.039812	0.001588	-0.194212	8142.517143	61197.369565	4451.382203	33752.724947
54.037500	0.019127	-0.023795	0.013431	-0.144376	7656.835370	56832.275237	4320.062778	30408.230827
54.534000	0.016675	-0.020866	0.008499	-0.148817	7678.622323	57754.749509	4318.440070	30690.927213
55.035000	0.020966	-0.013666	0.014978	-0.143095	7662.938895	57941.757840	4320.946033	30327.246708
55.535500	0.031724	-0.007317	0.027256	-0.113290	7458.988759	55049.368104	4264.094271	28508.272256
56.036000	0.047515	0.000484	0.045845	-0.074569	7225.027387	51467.736545	4201.563308	26324.122835
56.536500	0.061159	0.014475	0.060165	-0.009174	6740.301914	46049.890800	4055.341630	23050.140442
57.036500	0.076931	0.026768	0.074847	0.057681	6315.242929	40959.117296	3922.711600	20175.596364
57.536500	0.087709	0.038014	0.087573	0.113738	5978.094376	37230.941990	3824.047351	18084.022841
58.037000	0.106663	0.046233	0.106106	0.159102	5797.067687	34419.229688	3767.706028	16578.275109
58.534500	0.124807	0.057134	0.125831	0.197826	5663.446630	32465.205385	3729.866789	15411.702730
59.035000	0.143862	0.068599	0.145097	0.246172	5483.853725	30060.649567	3675.061554	14093.916358
59.537500	0.162258	0.081503	0.161285	0.280035	5393.800101	28782.461398	3643.500091	13254.482898
60.037000	0.176766	0.093870	0.172964	0.289678	5421.783468	28945.099518	3647.070536	13027.169341
60.539000	0.196482	0.105043	0.197555	0.308605	5426.350834	28484.771955	3657.092169	12595.432617
61.035500	0.205711	0.113626	0.206646	0.330959	5351.436998	27687.223312	3633.830531	12109.166331
61.536000	0.215798	0.117821	0.223376	0.354753	5275.582573	26594.791392	3621.726445	11618.335675
62.036500	0.213992	0.121123	0.213382	0.359124	5242.172430	26536.645137	3597.713012	11531.059591
62.537000	0.221056	0.128687	0.229555	0.357007	5292.004164	27068.754074	3628.428264	11573.225590
63.037000	0.223683	0.130698	0.228595	0.355707	5313.642398	27253.496954	3629.010916	11599.215314
63.534000	0.229583	0.132887	0.232092	0.352228	5366.119560	27573.000000	3641.079610	11669.164146
64.035000	0.231480	0.135755	0.240588	0.358219	5343.071604	27396.452614	3645.461272	11549.060351
64.535500	0.240062	0.137990	0.241734	0.357041	5398.371816	27589.481698	3649.549164	11572.554914
65.034500	0.240491	0.140526	0.242767	0.360584	5380.589171	27532.353077	3645.134744	11502.107588
65.536000	0.242451	0.141198	0.238164	0.363670	5374.192604	27395.988657	3631.771815	11441.217239
66.038500	0.245607	0.143958	0.245738	0.362169	5400.757651	27637.159116	3647.567239	11470.769949
66.535500	0.246686	0.147319	0.254328	0.364917	5391.203835	27672.055918	3657.913214	11416.730342
67.036500	0.254490	0.150820	0.259108	0.367530	5421.044762	27722.764687	3661.788481	11365.674223
67.537000	0.255135	0.150864	0.256187	0.370607	5407.019629	27550.173267	3651.114618	11305.917131
68.040500	0.254440	0.152358	0.256602	0.377744	5362.390654	27232.385053	3639.326251	11168.951698
68.537500	0.258835	0.154637	0.263462	0.378041	5385.645385	27343.535797	3650.834378	11163.314109
69.038000	0.263182	0.155573	0.262426	0.383420	5379.764741	27095.078000	3639.585300	11061.627028
69.535500	0.265292	0.156103	0.264199	0.387697	5367.475772	26887.444776	3635.238583	10981.673921
70.035500	0.260523	0.157965	0.266222	0.391886	5317.303465	26759.471371	3631.501335	10904.129402
70.536000	0.265165	0.160027	0.277349	0.389853	5354.585996	26985.193879	3654.507384	10941.665124
71.036000	0.266368	0.161212	0.270435	0.390474	5357.862567	27016.422613	3641.247686	10930.172459
71.536000	0.266089	0.160430	0.268145	0.391058	5353.009323	26940.821191	3636.252198	10919.393339
72.039500	0.265728	0.160669	0.271862	0.396934	5318.174981	26631.222098	3632.520959	10811.669916
72.537000	0.268032	0.162001	0.269275	0.393618	5349.536799	26886.202488	3633.778235	10872.270860
73.037500	0.273735	0.162779	0.273543	0.395954	5368.527283	26800.433366	3637.123731	10829.534651
73.537500	0.273276	0.165392	0.272987	0.399539	5345.741538	26747.059862	3629.973820	10764.374354
74.035000	0.274036	0.166783	0.288904	0.400684	5343.581548	26760.540477	3655.794251	10743.668115
74.535500	0.276553	0.166540	0.285941	0.402956	5344.956931	26622.997765	3646.542951	10702.763814
75.035500	0.274826	0.167022	0.276378	0.403780	5330.694787	26604.298644	3628.513386	10687.974945
75.536500	0.274300	0.165912	0.278682	0.403249	5330.718008	26572.744254	3633.390926	10697.488754
76.042000	0.277747	0.168333	0.285030	0.405277	5338.640703	26594.188696	3640.886747	10661.182101
76.536500	0.276559	0.167708	0.278208	0.404183	5338.114849	26619.753662	3630.964662	10680.749699
77.037500	0.278728	0.168434	0.281581	0.404550	5348.211565	26639.315765	3636.155199	10674.174554
77.537500	0.278168	0.168601	0.286205	0.405664	5338.833001	26587.639973	3642.260320	10654.265691
78.035000	0.277633	0.168608	0.276642	0.405054	5339.252775	26621.310473	3626.783609	10665.172627
78.537500	0.279354	0.168835	0.282872	0.405254	5347.775832	26622.813029	3637.172877	10661.598115
79.035000	0.276955	0.170109	0.277266	0.406416	5327.871291	26628.884886	3625.522580	10640.864862
79.535500	0.280941	0.169653	0.286550	0.408019	5341.170614	26516.784862	3638.757645	10612.346380
80.041000	0.278039	0.168473	0.289581	0.406319	5334.449681	26545.058802	3647.028913	10642.591158
80.536000	0.280125	0.169523	0.285400	0.407476	5339.642855	26539.260469	3637.704954	10622.001057
81.035500	0.281670	0.171157	0.286000	0.408973	5339.915836	26546.703211	3636.148744	10595.442360
81.536500	0.278559	0.170975	0.282132	0.409024	5322.284579	26534.024879	3629.389585	10594.538859
82.037000	0.275666	0.171830	0.291701	0.415233	5272.249430	26244.818114	3635.179832	10485.347682
82.536500	0.280303	0.171408	0.290483	0.409461	5329.557947	26533.821374	3643.103537	10586.804771
83.037500	0.280412	0.171795	0.282665	0.410027	5327.012029	26524.110232	3628.581915	10576.793906
83.535500	0.279382	0.171321	0.283879	0.410593	5318.141186	26467.673993	3629.694544	10566.794382
84.035500	0.277555	0.171521	0.286086	0.416943	5273.226334	26136.706320	3622.611043	10455.556793
84.535500	0.281268	0.171809	0.295521	0.411107	5325.763625	26466.276687	3649.056661	10557.735241
85.035500	0.284001	0.171261	0.294976	0.411355	5339.624129	26423.116092	3647.659195	10553.357098
85.536000	0.281685	0.170993	0.283874	0.411737	5324.581133	26388.032796	3627.723602	10546.643100
86.036000	0.276733	0.170628	0.284759	0.417253	5267.074784	26072.529186	3619.831226	10450.172751
86.536500	0.281979	0.169418	0.287985	0.411448	5327.827664	26318.658964	3635.299812	10551.729404
87.034000	0.282904	0.170654	0.289950	0.412527	5326.965585	26327.098758	3636.834626	10532.743412
87.534500	0.281894	0.169818	0.287319	0.412799	5319.843060	26267.504550	3631.816967	10527.969197
88.040000	0.275731	0.168604	0.292677	0.417703	5259.209057	25941.057856	3632.600297	10442.351877
88.535000	0.276995	0.169761	0.294171	0.413627	5288.272541	26220.017691	3642.266414	10513.440435
89.035500	0.280952	0.167685	0.293448	0.412712	5315.101232	26157.811794	3642.602323	10529.497503
89.535500	0.283893	0.170082	0.297091	0.414852	5319.539050	26171.583182	3645.232415	10492.005070
90.036000	0.280061	0.168686	0.289345	0.420018	5270.131240	25823.054891	3622.924351	10402.269233
90.536000	0.286043	0.171288	0.290021	0.417109	5318.949607	26115.432333	3629.052470	10452.676061
91.037000	0.283330	0.170114	0.292653	0.416815	5305.565203	26068.477509	3634.089960	10457.778580
91.537000	0.283845	0.168610	0.283336	0.416593	5309.633396	26000.259631	3618.538110	10461.642344
92.036500	0.282840	0.169532	0.288930	0.417842	5297.214532	25982.949191	3625.928154	10439.944495
92.539500	0.282297	0.168016	0.288074	0.417622	5295.434000	25914.195468	3624.840984	10443.748342
93.035500	0.286277	0.168860	0.292216	0.418442	5312.856705	25915.468793	3630.531753	10429.526612
93.551500	0.283692	0.168942	0.290575	0.419297	5293.901745	25874.602362	3626.252203	10414.723606
94.038500	0.278945	0.169125	0.287774	0.425414	5235.004054	25563.274832	3611.160702	10309.669147
94.536000	0.283359	0.168609	0.295884	0.421301	5281.112417	25751.523804	3631.925534	10380.153141
95.036500	0.281500	0.169037	0.298439	0.421591	5269.403404	25758.753080	3635.837467	10375.155547
95.543000	0.286594	0.168490	0.293411	0.422467	5292.430016	25684.086473	3625.681945	10360.101996
96.036500	0.283157	0.167409	0.287802	0.428123	5243.063709	25333.811636	3606.682195	10263.603854
