sample name	sample
index	1013
start time	 04-19-2021  11:40:18 AM


Wavelength (nm)	Absorbance
494.344910	0.027982
494.563924	0.027982
494.782919	0.027982
495.001897	0.093309
495.220856	0.019258
495.439797	0.011097
495.658719	0.009838
495.877624	0.015744
496.096510	-0.005171
496.315378	-0.002875
496.534227	-0.006715
496.753059	0.007207
496.971872	0.003672
497.190667	0.069859
497.409444	0.094616
497.628203	0.099590
497.846943	0.098601
498.065665	0.101043
498.284369	0.101597
498.503055	0.100952
498.721723	0.099931
498.940372	0.101778
499.159003	0.101627
499.377616	0.101334
499.596210	0.100770
499.814787	0.102068
500.033345	0.102186
500.251885	0.101455
500.470406	0.103052
500.688910	0.104287
500.907395	0.103300
501.125862	0.103535
501.344311	0.102327
501.562742	0.102048
501.781154	0.100936
501.999548	0.100850
502.217924	0.102287
502.436282	0.100324
502.654621	0.100490
502.872942	0.100402
503.091245	0.100518
503.309530	0.100491
503.527797	0.101011
503.746045	0.101988
503.964275	0.102115
504.182487	0.101847
504.400681	0.103023
504.618856	0.102068
504.837013	0.102198
505.055152	0.101537
505.273273	0.102235
505.491376	0.101781
505.709460	0.101296
505.927526	0.100372
506.145574	0.100213
506.363604	0.100013
506.581615	0.100051
506.799608	0.100305
507.017583	0.100537
507.235540	0.100136
507.453478	0.100265
507.671399	0.100729
507.889301	0.101015
508.107185	0.101738
508.325050	0.102674
508.542898	0.103281
508.760727	0.102834
508.978538	0.103207
509.196330	0.104244
509.414105	0.103702
509.631861	0.103411
509.849599	0.104305
510.067319	0.103383
510.285021	0.102978
510.502704	0.103283
510.720369	0.103952
510.938016	0.103219
511.155645	0.103063
511.373255	0.103669
511.590848	0.103604
511.808422	0.103096
512.025977	0.103450
512.243515	0.103087
512.461034	0.103280
512.678536	0.103629
512.896018	0.104793
513.113483	0.103425
513.330930	0.102510
513.548358	0.102612
513.765768	0.102941
513.983160	0.102906
514.200533	0.103499
514.417889	0.103256
514.635226	0.102697
514.852545	0.102032
515.069845	0.102466
515.287128	0.103664
515.504392	0.103745
515.721638	0.104114
515.938866	0.105105
516.156075	0.105238
516.373267	0.105959
516.590440	0.106737
516.807594	0.107454
517.024731	0.108218
517.241850	0.108327
517.458950	0.109249
517.676032	0.108834
517.893095	0.107934
518.110141	0.107470
518.327168	0.107381
518.544177	0.106815
518.761168	0.107651
518.978141	0.108248
519.195095	0.108510
519.412031	0.108328
519.628949	0.108594
519.845849	0.108447
520.062731	0.108586
520.279594	0.108542
520.496439	0.108884
520.713266	0.107956
520.930074	0.107301
521.146865	0.107634
521.363637	0.107160
521.580391	0.107253
521.797127	0.107875
522.013844	0.109314
522.230543	0.109278
522.447224	0.109615
522.663887	0.110163
522.880532	0.110223
523.097158	0.110025
523.313766	0.110309
523.530356	0.110303
523.746928	0.110847
523.963481	0.109324
524.180017	0.109321
524.396534	0.109937
524.613032	0.109574
524.829513	0.109761
525.045975	0.110149
525.262420	0.110982
525.478845	0.111258
525.695253	0.111136
525.911643	0.112171
526.128014	0.112475
526.344367	0.111803
526.560702	0.112360
526.777018	0.112520
526.993316	0.112388
527.209597	0.111690
527.425858	0.111903
527.642102	0.112207
527.858328	0.112795
528.074535	0.113079
528.290724	0.113549
528.506894	0.113190
528.723047	0.113702
528.939181	0.113979
529.155297	0.114638
529.371395	0.114447
529.587475	0.114364
529.803536	0.113980
530.019579	0.114161
530.235604	0.114290
530.451611	0.114943
530.667600	0.115515
530.883570	0.115278
531.099522	0.115222
531.315456	0.115458
531.531372	0.115159
531.747269	0.115291
531.963148	0.115564
532.179009	0.115934
532.394852	0.115938
532.610676	0.115479
532.826482	0.115622
533.042271	0.115542
533.258040	0.115645
533.473792	0.116218
533.689525	0.115783
533.905240	0.115217
534.120937	0.114773
534.336616	0.114895
534.552277	0.114881
534.767919	0.115491
534.983543	0.115679
535.199149	0.116460
535.414736	0.116183
535.630306	0.116740
535.845857	0.117097
536.061390	0.117502
536.276904	0.117591
536.492401	0.118090
536.707879	0.117777
536.923339	0.117906
537.138781	0.118049
537.354204	0.118478
537.569610	0.118934
537.784997	0.119513
538.000366	0.119682
538.215716	0.119804
538.431049	0.119377
538.646363	0.120030
538.861659	0.120392
539.076937	0.120255
539.292196	0.119775
539.507438	0.119783
539.722661	0.119459
539.937866	0.119414
540.153052	0.119719
540.368221	0.120414
540.583371	0.120319
540.798503	0.120347
541.013617	0.119779
541.228712	0.120423
541.443789	0.120389
541.658848	0.120426
541.873889	0.120462
542.088912	0.120680
542.303916	0.120759
542.518902	0.120625
542.733870	0.120675
542.948820	0.121754
543.163752	0.121921
543.378665	0.121871
543.593560	0.122157
543.808437	0.122167
544.023295	0.122085
544.238136	0.122287
544.452958	0.122884
544.667762	0.122995
544.882548	0.122848
545.097315	0.123264
545.312064	0.123492
545.526795	0.123318
545.741508	0.123624
545.956203	0.123597
546.170879	0.123935
546.385537	0.123993
546.600177	0.124489
546.814799	0.124971
547.029402	0.124952
547.243988	0.125565
547.458555	0.126467
547.673103	0.126817
547.887634	0.127324
548.102146	0.127450
548.316640	0.127884
548.531116	0.127612
548.745574	0.127631
548.960013	0.127668
549.174435	0.127454
549.388838	0.127590
549.603222	0.127605
549.817589	0.127479
550.031937	0.127405
550.246267	0.127178
550.460579	0.127458
550.674873	0.127469
550.889148	0.128055
551.103405	0.128037
551.317644	0.127860
551.531865	0.127986
551.746068	0.128346
551.960252	0.127958
552.174418	0.128114
552.388566	0.128322
552.602696	0.128103
552.816807	0.127944
553.030900	0.128439
553.244975	0.128767
553.459032	0.128872
553.673070	0.128961
553.887091	0.129567
554.101093	0.129666
554.315077	0.129411
554.529042	0.129760
554.742990	0.129749
554.956919	0.129784
555.170830	0.129445
555.384722	0.129847
555.598597	0.129981
555.812453	0.130054
556.026291	0.130287
556.240111	0.130915
556.453913	0.131096
556.667696	0.130895
556.881461	0.130996
557.095208	0.131494
557.308937	0.131406
557.522647	0.131241
557.736339	0.131334
557.950013	0.131116
558.163669	0.131149
558.377307	0.131333
558.590926	0.131611
558.804527	0.131878
559.018110	0.132038
559.231675	0.132059
559.445221	0.132360
559.658749	0.132642
559.872259	0.132713
560.085751	0.132734
560.299225	0.132536
560.512680	0.132326
560.726117	0.131638
560.939536	0.131594
561.152937	0.131703
561.366319	0.131926
561.579683	0.132050
561.793029	0.132550
562.006357	0.132714
562.219667	0.132883
562.432958	0.133241
562.646231	0.133928
562.859486	0.133983
563.072723	0.134185
563.285941	0.134079
563.499141	0.133874
563.712323	0.133511
563.925487	0.133665
564.138632	0.133674
564.351760	0.133736
564.564869	0.133889
564.777960	0.133968
564.991032	0.134209
565.204087	0.133752
565.417123	0.133914
565.630141	0.134499
565.843140	0.134300
566.056122	0.134445
566.269085	0.134736
566.482030	0.134924
566.694957	0.135243
566.907866	0.134891
567.120756	0.135303
567.333628	0.135653
567.546482	0.135569
567.759318	0.135684
567.972135	0.135819
568.184935	0.135545
568.397716	0.135449
568.610478	0.135399
568.823223	0.135823
569.035949	0.136294
569.248657	0.135914
569.461347	0.135864
569.674019	0.136263
569.886672	0.136443
570.099308	0.136874
570.311925	0.136860
570.524523	0.136991
570.737104	0.136992
570.949666	0.136423
571.162210	0.136268
571.374736	0.136408
571.587244	0.136132
571.799733	0.136098
572.012205	0.135961
572.224658	0.135878
572.437092	0.135976
572.649509	0.135746
572.861907	0.136345
573.074287	0.137021
573.286649	0.137016
573.498993	0.137240
573.711318	0.137133
573.923625	0.137608
574.135914	0.138027
574.348185	0.137974
574.560438	0.138423
574.772672	0.138096
574.984888	0.138126
575.197086	0.138265
575.409266	0.138198
575.621427	0.138407
575.833570	0.138063
576.045695	0.138086
576.257802	0.138288
576.469890	0.137751
576.681961	0.138054
576.894013	0.138039
577.106046	0.138183
577.318062	0.138446
577.530059	0.138494
577.742039	0.138605
577.954000	0.138837
578.165942	0.139027
578.377867	0.139716
578.589773	0.139792
578.801661	0.139913
579.013531	0.139881
579.225382	0.139841
579.437216	0.139851
579.649031	0.139834
579.860828	0.139782
580.072606	0.139555
580.284367	0.139719
580.496109	0.139688
580.707833	0.140027
580.919539	0.140267
581.131227	0.140535
581.342896	0.140816
581.554547	0.141039
581.766180	0.141032
581.977795	0.141394
582.189391	0.141337
582.400969	0.141651
582.612529	0.141241
582.824071	0.141368
583.035595	0.141303
583.247100	0.141609
583.458587	0.141902
583.670056	0.142438
583.881506	0.142410
584.092939	0.142543
584.304353	0.142533
584.515749	0.142979
584.727127	0.143121
584.938486	0.143278
585.149828	0.143338
585.361151	0.143356
585.572456	0.143005
585.783742	0.143160
585.995011	0.143462
586.206261	0.143848
586.417493	0.143922
586.628706	0.143736
586.839902	0.143835
587.051079	0.143602
587.262238	0.143474
587.473379	0.143478
587.684502	0.143456
587.895606	0.143457
588.106692	0.143417
588.317760	0.143268
588.528810	0.143700
588.739841	0.143694
588.950855	0.143852
589.161850	0.144338
589.372827	0.144319
589.583785	0.144386
589.794726	0.144392
590.005648	0.144507
590.216552	0.144572
590.427437	0.144412
590.638305	0.144312
590.849154	0.144560
591.059985	0.144225
591.270798	0.144722
591.481592	0.145133
591.692369	0.144764
591.903127	0.144562
592.113867	0.144781
592.324588	0.144741
592.535292	0.145347
592.745977	0.145530
592.956644	0.145891
593.167293	0.145534
593.377923	0.145236
593.588536	0.145436
593.799130	0.146047
594.009706	0.146060
594.220263	0.146060
594.430803	0.146043
594.641324	0.146010
594.851827	0.146178
595.062312	0.146348
595.272778	0.146339
595.483227	0.146782
595.693657	0.146457
595.904069	0.146287
596.114462	0.146629
596.324838	0.146625
596.535195	0.146972
596.745534	0.147131
596.955855	0.147428
597.166157	0.147872
597.376441	0.147503
597.586707	0.147634
597.796955	0.147971
598.007185	0.147671
598.217396	0.147828
598.427589	0.147518
598.637764	0.147276
598.847921	0.147088
599.058060	0.146801
599.268180	0.147371
599.478282	0.147756
599.688366	0.147705
599.898431	0.148114
600.108479	0.148020
600.318508	0.148315
600.528519	0.148713
600.738511	0.149061
600.948486	0.149113
601.158442	0.148967
601.368380	0.148763
601.578300	0.148793
601.788202	0.149055
601.998085	0.148897
602.207950	0.148903
602.417797	0.149152
602.627626	0.149152
602.837436	0.149449
603.047228	0.149550
603.257002	0.149326
603.466758	0.149193
603.676496	0.149008
603.886215	0.149310
604.095916	0.149199
604.305599	0.148922
604.515264	0.148969
604.724910	0.148987
604.934538	0.149139
605.144148	0.149370
605.353740	0.149950
605.563314	0.149761
605.772869	0.149702
605.982406	0.149666
606.191925	0.149559
606.401425	0.149466
606.610908	0.149401
606.820372	0.149420
607.029818	0.149414
607.239246	0.149423
607.448655	0.149883
607.658047	0.150200
607.867420	0.150424
608.076775	0.150554
608.286111	0.150640
608.495430	0.150803
608.704730	0.151067
608.914012	0.151163
609.123275	0.151380
609.332521	0.151469
609.541748	0.151640
609.750957	0.151867
609.960148	0.152133
610.169321	0.152234
610.378475	0.152177
610.587611	0.152113
610.796729	0.152252
611.005829	0.152234
611.214910	0.152155
611.423974	0.152019
611.633019	0.151681
611.842045	0.151595
612.051054	0.151773
612.260044	0.152105
612.469017	0.152041
612.677970	0.152241
612.886906	0.152083
613.095824	0.152177
613.304723	0.152108
613.513604	0.152522
613.722467	0.152426
613.931311	0.152523
614.140138	0.152390
614.348946	0.152572
614.557736	0.152544
614.766507	0.152881
614.975261	0.153176
615.183996	0.153068
615.392713	0.152925
615.601412	0.152916
615.810092	0.152858
616.018754	0.152967
616.227399	0.153072
616.436024	0.153186
616.644632	0.153145
616.853222	0.153034
617.061793	0.153493
617.270346	0.153777
617.478880	0.153959
617.687397	0.154306
617.895895	0.154444
618.104375	0.154407
618.312837	0.154624
618.521281	0.154749
618.729706	0.154982
618.938113	0.154941
619.146502	0.154909
619.354873	0.155172
619.563226	0.154913
619.771560	0.154941
619.979876	0.155274
620.188174	0.155148
620.396453	0.154907
620.604715	0.154702
620.812958	0.155038
621.021183	0.155254
621.229390	0.155580
621.437578	0.155870
621.645748	0.156058
621.853900	0.155885
622.062034	0.156031
622.270150	0.156180
622.478247	0.156522
622.686326	0.156422
622.894387	0.156254
623.102430	0.156081
623.310454	0.155870
623.518461	0.155909
623.726449	0.156124
623.934418	0.156253
624.142370	0.156465
624.350303	0.156559
624.558218	0.156594
624.766115	0.156564
624.973994	0.156559
625.181855	0.157051
625.389697	0.157095
625.597521	0.157180
625.805327	0.157373
626.013114	0.157484
626.220883	0.157224
626.428634	0.157454
626.636367	0.157633
626.844082	0.157821
627.051778	0.157689
627.259457	0.157627
627.467117	0.157634
627.674758	0.157461
627.882382	0.157426
628.089987	0.157849
628.297574	0.157531
628.505143	0.157532
628.712694	0.157516
628.920226	0.157550
629.127740	0.157724
629.335236	0.157576
629.542714	0.157814
629.750174	0.157939
629.957615	0.157750
630.165038	0.157900
630.372443	0.158125
630.579829	0.158363
630.787198	0.158356
630.994548	0.158375
631.201880	0.158449
631.409194	0.158414
631.616489	0.158618
631.823766	0.158649
632.031025	0.158884
632.238266	0.158886
632.445489	0.158642
632.652693	0.158773
632.859879	0.158792
633.067047	0.159138
633.274197	0.159278
633.481329	0.159194
633.688442	0.159428
633.895537	0.159427
634.102614	0.159626
634.309672	0.159904
634.516713	0.160106
634.723735	0.160272
634.930739	0.160426
635.137724	0.160482
635.344692	0.160731
635.551641	0.160890
635.758572	0.161265
635.965485	0.161319
636.172379	0.161328
636.379256	0.161407
636.586114	0.161438
636.792954	0.161307
636.999775	0.161209
637.206579	0.161079
637.413364	0.160879
637.620131	0.160624
637.826880	0.160708
638.033610	0.160870
638.240323	0.160717
638.447017	0.160773
638.653692	0.160707
638.860350	0.160860
639.066990	0.160909
639.273611	0.161056
639.480214	0.161233
639.686798	0.161598
639.893365	0.161581
640.099913	0.161792
640.306443	0.161941
640.512955	0.162211
640.719449	0.162425
640.925924	0.162414
641.132381	0.162652
641.338820	0.162509
641.545241	0.162168
641.751644	0.162468
641.958028	0.162511
642.164394	0.162659
642.370742	0.162660
642.577071	0.162669
642.783383	0.162841
642.989676	0.162604
643.195951	0.162839
643.402207	0.163240
643.608446	0.163081
643.814666	0.163312
644.020868	0.163322
644.227052	0.163222
644.433218	0.163113
644.639365	0.163219
644.845494	0.163619
645.051605	0.163857
645.257698	0.163887
645.463772	0.164148
645.669828	0.163999
645.875866	0.164187
646.081886	0.164635
646.287888	0.164853
646.493871	0.164823
646.699836	0.164722
646.905783	0.164634
647.111712	0.164485
647.317622	0.164664
647.523514	0.164886
647.729388	0.164979
647.935244	0.164858
648.141082	0.165017
648.346901	0.165152
648.552702	0.165454
648.758485	0.165675
648.964250	0.165973
649.169996	0.165812
649.375724	0.166011
649.581434	0.165815
649.787126	0.165855
649.992800	0.166005
650.198455	0.166129
650.404092	0.165884
650.609711	0.165890
650.815311	0.165871
651.020894	0.165978
651.226458	0.165903
651.432004	0.166100
651.637532	0.166041
651.843041	0.165939
652.048532	0.166030
652.254006	0.166284
652.459460	0.166364
652.664897	0.166413
652.870315	0.166470
653.075716	0.166677
653.281097	0.166711
653.486461	0.166944
653.691807	0.167240
653.897134	0.167351
654.102443	0.167246
654.307734	0.167199
654.513006	0.167285
654.718261	0.167191
654.923497	0.167132
655.128715	0.167506
655.333915	0.167590
655.539096	0.167427
655.744259	0.167417
655.949404	0.167455
656.154531	0.167609
656.359640	0.167374
656.564730	0.167645
656.769802	0.167645
656.974856	0.167419
657.179892	0.167588
657.384909	0.167800
657.589908	0.168004
657.794889	0.168421
657.999852	0.168630
658.204797	0.169173
658.409723	0.169322
658.614631	0.169621
658.819521	0.170036
659.024393	0.170193
659.229246	0.170252
659.434081	0.170400
659.638898	0.170349
659.843697	0.170318
660.048478	0.170230
660.253240	0.170463
660.457984	0.170439
660.662710	0.170378
660.867417	0.170399
661.072107	0.170739
661.276778	0.170776
661.481431	0.170981
661.686066	0.170978
661.890682	0.171034
662.095281	0.170941
662.299861	0.171162
662.504422	0.171361
662.708966	0.171447
662.913491	0.171264
663.117999	0.171342
663.322488	0.171281
663.526958	0.171604
663.731411	0.172019
663.935845	0.172031
664.140261	0.172102
664.344659	0.171963
664.549038	0.171905
664.753400	0.172049
664.957743	0.172315
665.162068	0.172560
665.366375	0.172422
665.570663	0.172394
665.774933	0.172857
665.979185	0.173007
666.183419	0.173173
666.387635	0.173617
666.591832	0.173879
666.796011	0.173875
667.000172	0.174058
667.204315	0.174195
667.408439	0.174350
667.612545	0.174329
667.816634	0.174283
668.020703	0.174295
668.224755	0.174290
668.428788	0.174446
668.632803	0.174620
668.836800	0.174660
669.040779	0.174919
669.244739	0.174836
669.448681	0.174704
669.652605	0.174845
669.856511	0.174856
670.060399	0.174911
670.264268	0.174583
670.468119	0.174543
670.671952	0.174539
670.875767	0.174587
671.079563	0.174657
671.283341	0.174930
671.487101	0.175026
671.690843	0.175218
671.894567	0.175212
672.098272	0.175362
672.301959	0.175261
672.505628	0.175231
672.709278	0.175361
672.912911	0.175268
673.116525	0.175292
673.320121	0.175219
673.523699	0.175570
673.727258	0.175487
673.930799	0.175645
674.134322	0.175904
674.337827	0.176062
674.541314	0.176334
674.744782	0.176720
674.948232	0.176618
675.151664	0.176908
675.355078	0.176778
675.558474	0.177129
675.761851	0.177329
675.965210	0.177492
676.168551	0.177483
676.371873	0.177544
676.575178	0.177536
676.778464	0.177762
676.981732	0.177653
677.184981	0.177937
677.388213	0.178106
677.591426	0.178151
677.794621	0.178102
677.997798	0.178528
678.200956	0.178429
678.404097	0.178679
678.607219	0.178741
678.810323	0.178970
679.013408	0.178901
679.216476	0.178926
679.419525	0.179113
679.622556	0.179276
679.825569	0.179365
680.028563	0.179358
680.231540	0.179333
680.434498	0.179495
680.637438	0.179808
680.840359	0.179896
681.043263	0.180089
681.246148	0.180205
681.449015	0.180215
681.651864	0.180280
681.854694	0.180580
682.057506	0.180727
682.260301	0.180900
682.463076	0.180598
682.665834	0.180744
682.868573	0.180780
683.071295	0.180750
683.273998	0.181044
683.476682	0.180954
683.679349	0.181002
683.881997	0.181213
684.084627	0.181238
684.287239	0.181475
684.489833	0.181554
684.692408	0.181550
684.894965	0.181562
685.097504	0.181511
685.300025	0.181879
685.502527	0.181817
685.705012	0.181640
685.907478	0.181594
686.109925	0.181556
686.312355	0.181597
686.514766	0.181712
686.717159	0.181756
686.919534	0.181916
687.121891	0.181721
687.324230	0.181977
687.526550	0.182114
687.728852	0.182393
687.931136	0.182721
688.133401	0.182902
688.335649	0.182869
688.537878	0.183098
688.740089	0.183261
688.942281	0.183221
689.144456	0.183124
689.346612	0.183110
689.548750	0.183251
689.750870	0.183312
689.952971	0.183514
690.155055	0.183852
690.357120	0.183896
690.559167	0.183734
690.761195	0.184101
690.963206	0.184498
691.165198	0.184620
691.367172	0.184566
691.569128	0.184599
691.771065	0.184583
691.972984	0.184475
692.174885	0.184686
692.376768	0.184926
692.578633	0.184792
692.780479	0.184664
692.982308	0.185053
693.184118	0.185082
693.385909	0.185088
693.587683	0.185114
693.789438	0.185348
693.991175	0.185333
694.192894	0.185465
694.394595	0.185748
694.596277	0.185669
694.797941	0.185396
694.999587	0.185548
695.201215	0.185657
695.402824	0.185806
695.604416	0.185935
695.805989	0.185971
696.007543	0.185937
696.209080	0.185938
696.410598	0.186296
696.612099	0.186757
696.813580	0.186645
697.015044	0.186583
697.216490	0.186546
697.417917	0.186414
697.619326	0.186382
697.820717	0.186348
698.022089	0.186330
698.223444	0.186286
698.424780	0.185994
698.626098	0.186162
698.827397	0.186410
699.028679	0.186548
699.229942	0.186705
699.431187	0.186886
699.632414	0.187062
699.833622	0.187171
700.034813	0.187257
700.235985	0.187436
700.437139	0.187656
700.638274	0.187742
700.839392	0.187864
701.040491	0.187951
701.241572	0.188031
701.442635	0.188278
701.643679	0.188470
701.844706	0.188735
702.045714	0.188816
702.246704	0.188824
702.447675	0.188811
702.648629	0.188759
702.849564	0.188701
703.050481	0.188779
703.251380	0.188427
703.452260	0.188283
703.653122	0.187961
703.853966	0.187861
704.054792	0.187722
704.255600	0.187651
704.456389	0.187459
704.657160	0.187485
704.857913	0.187160
705.058648	0.187365
705.259365	0.187353
705.460063	0.187310
705.660743	0.187397
705.861405	0.187346
706.062048	0.187351
706.262674	0.187527
706.463281	0.187559
706.663870	0.187696
706.864441	0.187607
707.064993	0.187575
707.265527	0.187752
707.466043	0.187828
707.666541	0.187848
707.867021	0.188076
708.067482	0.188027
708.267925	0.187982
708.468350	0.188200
708.668757	0.188526
708.869145	0.188729
709.069516	0.188685
709.269868	0.188581
709.470201	0.188615
709.670517	0.188552
709.870814	0.188564
710.071093	0.188536
710.271354	0.188475
710.471597	0.188245
710.671821	0.188180
710.872028	0.188242
711.072216	0.188085
711.272385	0.188276
711.472537	0.188227
711.672670	0.188233
711.872785	0.188387
712.072882	0.188334
712.272961	0.188476
712.473021	0.188272
712.673063	0.188218
712.873087	0.188368
713.073093	0.188220
713.273081	0.188202
713.473050	0.188115
713.673001	0.187754
713.872934	0.187867
714.072849	0.187902
714.272745	0.188195
714.472623	0.188238
714.672483	0.188279
714.872325	0.188427
715.072148	0.188450
715.271954	0.188599
715.471741	0.188731
715.671509	0.188801
715.871260	0.188790
716.070992	0.188552
716.270707	0.188479
716.470403	0.188180
716.670080	0.188079
716.869740	0.188056
717.069381	0.188040
717.269004	0.188012
717.468609	0.187807
717.668195	0.187534
717.867764	0.187521
718.067314	0.187457
718.266846	0.187504
718.466360	0.187381
718.665855	0.187265
718.865332	0.187196
719.064791	0.186903
719.264232	0.186870
719.463655	0.186903
719.663059	0.186861
719.862445	0.186772
720.061813	0.186857
720.261163	0.186950
720.460494	0.187081
720.659807	0.186906
720.859102	0.187376
721.058379	0.187385
721.257638	0.187289
721.456878	0.187237
721.656100	0.187282
721.855304	0.187274
722.054490	0.187113
722.253657	0.187087
722.452806	0.187044
722.651937	0.186781
722.851050	0.186624
723.050145	0.186533
723.249221	0.186707
723.448279	0.186653
723.647319	0.186782
723.846340	0.186773
724.045344	0.186304
724.244329	0.186336
724.443296	0.186317
724.642245	0.186308
724.841175	0.186459
725.040088	0.186150
725.238982	0.185954
725.437857	0.185698
725.636715	0.185645
725.835554	0.186022
726.034376	0.186061
726.233179	0.185987
726.431963	0.185983
726.630730	0.185673
726.829478	0.185661
727.028208	0.185748
727.226920	0.185703
727.425614	0.185466
727.624289	0.185140
727.822946	0.184939
728.021585	0.184911
728.220206	0.184806
728.418808	0.184842
728.617392	0.184763
728.815958	0.184719
729.014506	0.184542
729.213036	0.184609
729.411547	0.184532
729.610040	0.184763
729.808515	0.184582
730.006972	0.184542
730.205410	0.184436
730.403831	0.184369
730.602233	0.184255
730.800616	0.184236
730.998982	0.184310
731.197329	0.184517
731.395658	0.184300
731.593969	0.184514
731.792262	0.184310
731.990536	0.184226
732.188793	0.184186
732.387031	0.184027
732.585250	0.184196
732.783452	0.183777
732.981635	0.183480
733.179800	0.183373
733.377947	0.183047
733.576076	0.183024
733.774186	0.183053
733.972278	0.182985
734.170352	0.182853
734.368408	0.182598
734.566446	0.182633
734.764465	0.182687
734.962466	0.182444
735.160449	0.182327
735.358413	0.182037
735.556360	0.181925
735.754288	0.181795
735.952198	0.181914
736.150090	0.181769
736.347963	0.181582
736.545818	0.181361
736.743655	0.181497
736.941474	0.181681
737.139275	0.181920
737.337057	0.181895
737.534821	0.181815
737.732567	0.181518
737.930295	0.181481
738.128005	0.181328
738.325696	0.181141
738.523369	0.180776
738.721024	0.180523
738.918660	0.180257
739.116279	0.180005
739.313879	0.179945
739.511461	0.179781
739.709024	0.179633
739.906570	0.179594
740.104097	0.179441
740.301606	0.179207
740.499097	0.178986
740.696569	0.178575
740.894024	0.178585
741.091460	0.178480
741.288878	0.178505
741.486277	0.178549
741.683659	0.178638
741.881022	0.178660
742.078367	0.178797
742.275694	0.178693
742.473002	0.178782
742.670293	0.178438
742.867565	0.178201
743.064819	0.178203
743.262054	0.177926
743.459272	0.177614
743.656471	0.177442
743.853652	0.177263
744.050815	0.177005
744.247959	0.177002
744.445085	0.177034
744.642194	0.176932
744.839283	0.176625
745.036355	0.176696
745.233408	0.176611
745.430444	0.176407
745.627461	0.176399
745.824459	0.176528
746.021440	0.176650
746.218402	0.176214
746.415346	0.176273
746.612272	0.176195
746.809180	0.175762
747.006069	0.175770
747.202940	0.175858
747.399793	0.175626
747.596628	0.175546
747.793444	0.175250
747.990243	0.175453
748.187023	0.175171
748.383784	0.175330
748.580528	0.175507
748.777253	0.175463
748.973960	0.175227
749.170649	0.175188
749.367320	0.174979
749.563973	0.174703
749.760607	0.174599
749.957223	0.174674
750.153821	0.174472
750.350400	0.174269
750.546962	0.174170
750.743505	0.174162
750.940030	0.174089
751.136536	0.174178
751.333025	0.174321
751.529495	0.174244
751.725947	0.174151
751.922381	0.174152
752.118796	0.174008
752.315194	0.173983
752.511573	0.173837
752.707934	0.173693
752.904276	0.173436
753.100601	0.173435
753.296907	0.173403
753.493195	0.173378
753.689465	0.173169
753.885716	0.173406
754.081949	0.173401
754.278164	0.173520
754.474361	0.173592
754.670540	0.173584
754.866700	0.173532
755.062843	0.173353
755.258967	0.173170
755.455072	0.173199
755.651160	0.173005
755.847229	0.172673
756.043280	0.172522
756.239313	0.172546
756.435328	0.172611
756.631324	0.172412
756.827302	0.172355
757.023262	0.172409
757.219204	0.172083
757.415127	0.171940
757.611033	0.172011
757.806920	0.171718
758.002788	0.171609
758.198639	0.171652
758.394471	0.171580
758.590286	0.171623
758.786081	0.171333
758.981859	0.171568
759.177619	0.171593
759.373360	0.171591
759.569083	0.171735
759.764788	0.171691
759.960474	0.171357
760.156143	0.171272
760.351793	0.171214
760.547425	0.171137
760.743038	0.171028
760.938634	0.170681
761.134211	0.170534
761.329770	0.170475
761.525311	0.170499
761.720833	0.170508
761.916338	0.170334
762.111824	0.170383
762.307292	0.170534
762.502741	0.170364
762.698173	0.170531
762.893586	0.170473
763.088981	0.170516
763.284358	0.170310
763.479716	0.170120
763.675057	0.170062
763.870379	0.169890
764.065683	0.169781
764.260968	0.169700
764.456236	0.169469
764.651485	0.169406
764.846716	0.169202
765.041929	0.168932
765.237123	0.168989
765.432299	0.169050
765.627457	0.168965
765.822597	0.168835
766.017719	0.168577
766.212822	0.168583
766.407907	0.168487
766.602974	0.168551
766.798023	0.168540
766.993054	0.168479
767.188066	0.168587
767.383060	0.168704
767.578036	0.168731
767.772993	0.168889
767.967933	0.168874
768.162854	0.168748
768.357757	0.168577
768.552642	0.168453
768.747508	0.168301
768.942356	0.167965
769.137186	0.167822
769.331998	0.167574
769.526792	0.167485
769.721567	0.167382
769.916324	0.167557
770.111063	0.167605
770.305784	0.167724
770.500486	0.167572
770.695171	0.167858
770.889837	0.167730
771.084484	0.167797
771.279114	0.167763
771.473725	0.167788
771.668318	0.167517
771.862893	0.167235
772.057450	0.167115
772.251988	0.167228
772.446509	0.167050
772.641011	0.166998
772.835494	0.166983
773.029960	0.167029
773.224407	0.166925
773.418836	0.167117
773.613247	0.167448
773.807640	0.167671
774.002014	0.167680
774.196370	0.167536
774.390708	0.167630
774.585028	0.167536
774.779330	0.167594
774.973613	0.167554
775.167878	0.167409
775.362125	0.167123
775.556354	0.166809
775.750564	0.166971
775.944756	0.166929
776.138930	0.166791
776.333086	0.166826
776.527223	0.166764
776.721343	0.166938
776.915444	0.166984
777.109526	0.167172
777.303591	0.167244
777.497637	0.167062
777.691666	0.167243
777.885676	0.167251
778.079667	0.167406
778.273641	0.167583
778.467596	0.167486
778.661533	0.167459
778.855452	0.167351
779.049352	0.166976
779.243235	0.166913
779.437099	0.166948
779.630945	0.167027
779.824773	0.166841
780.018582	0.166760
780.212373	0.166803
780.406146	0.166858
780.599901	0.166954
780.793638	0.167250
780.987356	0.167423
781.181056	0.167357
781.374738	0.167376
781.568402	0.167595
781.762047	0.167533
781.955674	0.167651
782.149283	0.167745
782.342874	0.167615
782.536447	0.167928
782.730001	0.168038
782.923537	0.167958
783.117055	0.167866
783.310555	0.167673
783.504036	0.167715
783.697499	0.167631
783.890944	0.167365
784.084371	0.167607
784.277780	0.167514
784.471170	0.167404
784.664542	0.167280
784.857896	0.167410
785.051231	0.167597
785.244549	0.167770
785.437848	0.167866
785.631129	0.168165
785.824392	0.168163
786.017636	0.168178
786.210863	0.168215
786.404071	0.168399
786.597260	0.168567
786.790432	0.168737
786.983585	0.168551
787.176721	0.168565
787.369838	0.168674
787.562936	0.168533
787.756017	0.168608
787.949079	0.168642
788.142123	0.168878
788.335149	0.168767
788.528156	0.168780
788.721146	0.168759
788.914117	0.168731
789.107070	0.168704
789.300005	0.169039
789.492921	0.169216
789.685819	0.169558
789.878699	0.169616
790.071561	0.169796
790.264405	0.169967
790.457230	0.170112
790.650037	0.170321
790.842826	0.170460
791.035597	0.170569
791.228349	0.170515
791.421084	0.170287
791.613800	0.170237
791.806497	0.170219
791.999177	0.169913
792.191838	0.170113
792.384481	0.170390
792.577106	0.170438
792.769713	0.170335
792.962301	0.170347
793.154871	0.170595
793.347423	0.170854
793.539957	0.170975
793.732473	0.171329
793.924970	0.171400
794.117449	0.171245
794.309910	0.171360
794.502353	0.171463
794.694777	0.171712
794.887183	0.171843
795.079571	0.171915
795.271941	0.172060
795.464293	0.172103
795.656626	0.172485
795.848941	0.172661
796.041238	0.172661
796.233516	0.172885
796.425777	0.172988
796.618019	0.173072
796.810243	0.173152
797.002449	0.173310
797.194636	0.173481
797.386805	0.173398
797.578956	0.173216
797.771089	0.173512
797.963204	0.173277
798.155300	0.173361
798.347378	0.173193
798.539438	0.173395
798.731480	0.173321
798.923503	0.173540
799.115509	0.173464
799.307496	0.173858
799.499465	0.173935
799.691415	0.174338
799.883348	0.174372
800.075262	0.174592
800.267158	0.174663
800.459035	0.175113
800.650895	0.175096
800.842736	0.175276
801.034559	0.175357
801.226364	0.175452
801.418150	0.175574
801.609919	0.175751
801.801669	0.176038
801.993401	0.176136
802.185114	0.175955
802.376810	0.176129
802.568487	0.176083
802.760146	0.176352
802.951787	0.176389
803.143409	0.176625
803.335014	0.176651
803.526600	0.176736
803.718168	0.176811
803.909717	0.177082
804.101249	0.177228
804.292762	0.177477
804.484257	0.177275
804.675734	0.177611
804.867192	0.177558
805.058632	0.177968
805.250054	0.178155
805.441458	0.178573
805.632844	0.178748
805.824211	0.179020
806.015561	0.179328
806.206891	0.179874
806.398204	0.179757
806.589499	0.180184
806.780775	0.180216
806.972033	0.180137
807.163273	0.180082
807.354495	0.180176
807.545698	0.180139
807.736883	0.180251
807.928050	0.180269
808.119199	0.180553
808.310329	0.180443
808.501441	0.180709
808.692535	0.181127
808.883611	0.181260
809.074669	0.181457
809.265708	0.181798
809.456729	0.182019
809.647732	0.182214
809.838717	0.182339
810.029683	0.182736
810.220632	0.182908
810.411562	0.182995
810.602474	0.183410
810.793367	0.183485
810.984242	0.183635
811.175100	0.183979
811.365938	0.183866
811.556759	0.184051
811.747562	0.183840
811.938346	0.183836
812.129112	0.184054
812.319860	0.183886
812.510589	0.184174
812.701300	0.184335
812.891994	0.184349
813.082668	0.184800
813.273325	0.185084
813.463964	0.185617
813.654584	0.186021
813.845186	0.186353
814.035769	0.186683
814.226335	0.186909
814.416882	0.187006
814.607411	0.186959
814.797922	0.187347
814.988415	0.187619
815.178889	0.187929
815.369345	0.187964
815.559783	0.188061
815.750203	0.188428
815.940605	0.188557
816.130988	0.189029
816.321353	0.189494
816.511700	0.189563
816.702028	0.189855
816.892339	0.190023
817.082631	0.190273
817.272905	0.190488
817.463161	0.190675
817.653398	0.190795
817.843617	0.190731
818.033819	0.190813
818.224001	0.190863
818.414166	0.190891
818.604312	0.190965
818.794440	0.191212
818.984550	0.191345
819.174642	0.191445
819.364716	0.192024
819.554771	0.192219
819.744808	0.192601
819.934827	0.192687
820.124827	0.192874
820.314810	0.193263
820.504774	0.193443
820.694720	0.193689
820.884647	0.193769
821.074557	0.193688
821.264448	0.193800
821.454321	0.193943
821.644176	0.194122
821.834012	0.194422
822.023831	0.194423
822.213631	0.194710
822.403413	0.194698
822.593176	0.194995
822.782922	0.195243
822.972649	0.195658
823.162358	0.195902
823.352049	0.196392
823.541721	0.196483
823.731376	0.196765
823.921012	0.196978
824.110629	0.197340
824.300229	0.197820
824.489811	0.198163
824.679374	0.198522
824.868919	0.198471
825.058445	0.198633
825.247954	0.199030
825.437444	0.199500
825.626916	0.199683
825.816370	0.200099
826.005806	0.200221
826.195223	0.200596
826.384622	0.200766
826.574003	0.201479
826.763366	0.201764
826.952711	0.201991
827.142037	0.201694
827.331345	0.202023
827.520635	0.201969
827.709906	0.201888
827.899160	0.201858
828.088395	0.201825
828.277612	0.201915
828.466810	0.202253
828.655991	0.202302
828.845153	0.203013
829.034297	0.203119
829.223423	0.203574
829.412531	0.203992
829.601620	0.204393
829.790691	0.204888
829.979744	0.205114
830.168779	0.205033
830.357795	0.205149
830.546793	0.205232
830.735773	0.205572
830.924735	0.205837
831.113679	0.206191
831.302604	0.206556
831.491511	0.206617
831.680400	0.206799
831.869271	0.207244
832.058123	0.207614
832.246957	0.207611
832.435773	0.207817
832.624571	0.208042
832.813351	0.208184
833.002112	0.208142
833.190855	0.208221
833.379580	0.208520
833.568287	0.208880
833.756975	0.209360
833.945645	0.209998
834.134297	0.210252
834.322931	0.210530
834.511547	0.210713
834.700144	0.211079
834.888723	0.211740
835.077284	0.212105
835.265826	0.212066
835.454351	0.212222
835.642857	0.212264
835.831345	0.212276
836.019815	0.212458
836.208266	0.212786
836.396699	0.213005
836.585114	0.213087
836.773511	0.213192
836.961890	0.213463
837.150250	0.213800
837.338592	0.214413
837.526916	0.215175
837.715222	0.215502
837.903510	0.215816
838.091779	0.215977
838.280030	0.216241
838.468263	0.216753
838.656477	0.217249
838.844674	0.217395
839.032852	0.217403
839.221012	0.217418
839.409153	0.217666
839.597277	0.218155
839.785382	0.218349
839.973469	0.218897
840.161538	0.218906
840.349589	0.219386
840.537621	0.219759
840.725635	0.220010
840.913631	0.220030
841.101609	0.220410
841.289568	0.220235
841.477509	0.220759
841.665432	0.220811
841.853337	0.221069
842.041224	0.221143
842.229092	0.221345
842.416942	0.221502
842.604774	0.222010
842.792588	0.222470
842.980383	0.223397
843.168160	0.223693
843.355919	0.223996
843.543660	0.224167
843.731382	0.224484
843.919087	0.224825
844.106773	0.225142
844.294441	0.225248
844.482090	0.225101
844.669722	0.224863
844.857335	0.225147
845.044930	0.225345
845.232507	0.225864
845.420065	0.226359
845.607605	0.226591
845.795127	0.226713
845.982631	0.227214
846.170117	0.227619
846.357584	0.228057
846.545033	0.228343
846.732464	0.228579
846.919877	0.228832
847.107272	0.228995
847.294648	0.229269
847.482006	0.229695
847.669346	0.229827
847.856667	0.230134
848.043971	0.230246
848.231256	0.230274
848.418523	0.230626
848.605771	0.230895
848.793002	0.231244
848.980214	0.231755
849.167408	0.232390
849.354584	0.232937
849.541742	0.233470
849.728881	0.233819
849.916002	0.234397
850.103105	0.234847
850.290190	0.234847
850.477256	0.235173
850.664304	0.235086
850.851334	0.235254
851.038346	0.235457
851.225340	0.235517
851.412315	0.236002
851.599272	0.236267
851.786211	0.236456
851.973132	0.236865
852.160034	0.237007
852.346918	0.237313
852.533784	0.237448
852.720632	0.237565
852.907462	0.237513
853.094273	0.237670
853.281066	0.237941
853.467841	0.238092
853.654598	0.238400
853.841336	0.238894
854.028056	0.239311
854.214758	0.239656
854.401442	0.239862
854.588107	0.240397
854.774755	0.240840
854.961384	0.241308
855.147995	0.241554
855.334587	0.241885
855.521162	0.241609
855.707718	0.241784
855.894256	0.241918
856.080775	0.242206
856.267277	0.242302
856.453760	0.242215
856.640225	0.241831
856.826672	0.241866
857.013101	0.242028
857.199511	0.242552
857.385903	0.243117
857.572277	0.243291
857.758633	0.243714
857.944970	0.244132
858.131290	0.244350
858.317591	0.244981
858.503873	0.245516
858.690138	0.245625
858.876384	0.246129
859.062612	0.245929
859.248822	0.246235
859.435014	0.246496
859.621188	0.246827
859.807343	0.247076
859.993480	0.247192
860.179599	0.247381
860.365699	0.247813
860.551781	0.247600
860.737846	0.247957
860.923891	0.248125
861.109919	0.248257
861.295929	0.248781
861.481920	0.249150
861.667893	0.249500
861.853848	0.249774
862.039784	0.250029
862.225702	0.250503
862.411603	0.250868
862.597484	0.251110
862.783348	0.251326
862.969193	0.250930
863.155021	0.251472
863.340830	0.251546
863.526620	0.251864
863.712393	0.251801
863.898147	0.251856
864.083883	0.252085
864.269601	0.252820
864.455301	0.253361
864.640982	0.253665
864.826645	0.253597
865.012290	0.253939
865.197917	0.254189
865.383526	0.255140
865.569116	0.255361
865.754688	0.255739
865.940242	0.255584
866.125777	0.255508
866.311295	0.255805
866.496794	0.256469
866.682275	0.256741
866.867737	0.256865
867.053182	0.256719
867.238608	0.257150
867.424016	0.257176
867.609406	0.257288
867.794778	0.257728
867.980131	0.258272
868.165466	0.258319
868.350783	0.258530
868.536082	0.258992
868.721362	0.259350
868.906625	0.259583
869.091869	0.260006
869.277094	0.260295
869.462302	0.260432
869.647491	0.260304
869.832662	0.260199
870.017815	0.260261
870.202950	0.260478
870.388066	0.260758
870.573165	0.260812
870.758245	0.261111
870.943306	0.261628
871.128350	0.261670
871.313375	0.261860
871.498382	0.262266
871.683371	0.262648
871.868342	0.262660
872.053294	0.262664
872.238229	0.262763
872.423144	0.262757
872.608042	0.262456
872.792922	0.262548
872.977783	0.262937
873.162626	0.262946
873.347451	0.263025
873.532258	0.263264
873.717046	0.263277
873.901816	0.263344
874.086568	0.263428
874.271302	0.263658
874.456017	0.263654
874.640715	0.263913
874.825394	0.264086
875.010055	0.264020
875.194697	0.263871
875.379322	0.264259
875.563928	0.264417
875.748516	0.264543
875.933085	0.264831
876.117637	0.265265
876.302170	0.265066
876.486685	0.265394
876.671182	0.265759
876.855661	0.266262
877.040121	0.266181
877.224563	0.266456
877.408987	0.266729
877.593393	0.266787
877.777780	0.266857
877.962150	0.267100
878.146501	0.267217
878.330833	0.267445
878.515148	0.267424
878.699444	0.267496
878.883722	0.267470
879.067982	0.267086
879.252224	0.267087
879.436447	0.267282
879.620653	0.267887
879.804840	0.267808
879.989008	0.267826
880.173159	0.267612
880.357291	0.267765
880.541405	0.267786
880.725501	0.267868
880.909579	0.268023
881.093638	0.268091
881.277680	0.267784
881.461703	0.268246
881.645707	0.268525
881.829694	0.268491
882.013662	0.268778
882.197612	0.269436
882.381544	0.270063
882.565458	0.270084
882.749353	0.270099
882.933230	0.270242
883.117089	0.269937
883.300930	0.269737
883.484753	0.270286
883.668557	0.270215
883.852343	0.269862
884.036111	0.269838
884.219861	0.269992
884.403592	0.269995
884.587305	0.269982
884.771000	0.269543
884.954677	0.269978
885.138335	0.269857
885.321976	0.269929
885.505598	0.270097
885.689201	0.270383
885.872787	0.270338
886.056354	0.270468
886.239904	0.270468
886.423434	0.271274
886.606947	0.270796
886.790442	0.270970
886.973918	0.271159
887.157376	0.270946
887.340816	0.270596
887.524237	0.270855
887.707641	0.270804
887.891026	0.270680
888.074393	0.270395
888.257741	0.270713
888.441072	0.270806
888.624384	0.270748
888.807678	0.270869
888.990954	0.271052
889.174211	0.270452
889.357451	0.270294
889.540672	0.270341
889.723875	0.270248
889.907059	0.270066
890.090226	0.269677
890.273374	0.269545
890.456504	0.269537
890.639616	0.269122
890.822709	0.269139
891.005785	0.269427
891.188842	0.269291
891.371881	0.269575
891.554901	0.269613
891.737904	0.269894
891.920888	0.269670
892.103854	0.269576
892.286802	0.269475
892.469731	0.269500
892.652643	0.269371
892.835536	0.269412
893.018410	0.268898
893.201267	0.268876
893.384106	0.268556
893.566926	0.268758
893.749728	0.269100
893.932511	0.269684
894.115277	0.270182
894.298024	0.270151
894.480753	0.270313
894.663464	0.270553
894.846157	0.270742
895.028831	0.270658
895.211487	0.270325
895.394125	0.269807
895.576745	0.269201
895.759346	0.268986
895.941930	0.268992
896.124495	0.268327
896.307041	0.268154
896.489570	0.267447
896.672080	0.267625
896.854573	0.267120
897.037046	0.267433
897.219502	0.267422
897.401940	0.267268
897.584359	0.266986
897.766760	0.267254
897.949143	0.267123
898.131507	0.267181
898.313854	0.266900
898.496182	0.266611
898.678492	0.265773
898.860783	0.265571
899.043057	0.265209
899.225312	0.265465
899.407549	0.265670
899.589768	0.265024
899.771968	0.264841
899.954151	0.265184
900.136315	0.265772
900.318461	0.266133
900.500588	0.266016
900.682698	0.266284
900.864789	0.265532
901.046862	0.265200
901.228917	0.265400
901.410953	0.265457
901.592971	0.264568
901.774972	0.264269
901.956953	0.264205
902.138917	0.263962
902.320862	0.263419
902.502790	0.263003
902.684699	0.262819
902.866589	0.262732
903.048462	0.261944
903.230316	0.261924
903.412152	0.261699
903.593970	0.261638
903.775770	0.261533
903.957551	0.261388
904.139314	0.261443
904.321059	0.261163
904.502786	0.260966
904.684494	0.261312
904.866185	0.261314
905.047857	0.261688
905.229510	0.261473
905.411146	0.261061
905.592763	0.260713
905.774363	0.260859
905.955943	0.261014
906.137506	0.260735
906.319051	0.260655
906.500577	0.260179
906.682085	0.259164
906.863575	0.258611
907.045046	0.258388
907.226500	0.258247
907.407935	0.257604
907.589352	0.256786
907.770750	0.256630
907.952131	0.256132
908.133493	0.255623
908.314837	0.255396
908.496163	0.254955
908.677470	0.254998
908.858760	0.254511
909.040031	0.254772
909.221284	0.254384
909.402518	0.254451
909.583735	0.254062
909.764933	0.253776
909.946113	0.253660
910.127275	0.253334
910.308418	0.252815
910.489544	0.252731
910.670651	0.252295
910.851740	0.252000
911.032810	0.251148
911.213863	0.251033
911.394897	0.251104
911.575913	0.250817
911.756911	0.250594
911.937890	0.250439
912.118851	0.250510
912.299794	0.249654
912.480719	0.249487
912.661626	0.249378
912.842514	0.248861
913.023384	0.248507
913.204236	0.248175
913.385070	0.247463
913.565886	0.247025
913.746683	0.246272
913.927462	0.246049
914.108223	0.245643
914.288965	0.245111
914.469690	0.245150
914.650396	0.244628
914.831084	0.244401
915.011754	0.244679
915.192405	0.244327
915.373038	0.244057
915.553653	0.244236
915.734250	0.243928
915.914829	0.243270
916.095389	0.242609
916.275931	0.242267
916.456455	0.241685
916.636961	0.240700
916.817448	0.240202
916.997917	0.239855
917.178368	0.238860
917.358801	0.238677
917.539216	0.238784
917.719612	0.238044
917.899990	0.237854
918.080350	0.237326
918.260692	0.237368
918.441015	0.236967
918.621320	0.236225
918.801607	0.236153
918.981876	0.235200
919.162127	0.234931
919.342359	0.234895
919.522573	0.234521
919.702769	0.234197
919.882947	0.233207
920.063106	0.232531
920.243247	0.232540
920.423370	0.231488
920.603475	0.231026
920.783562	0.230188
920.963630	0.229654
921.143680	0.228462
921.323712	0.228095
921.503725	0.228285
921.683721	0.228081
921.863698	0.227271
922.043657	0.227247
922.223598	0.226721
922.403520	0.226483
922.583424	0.226518
922.763311	0.226439
922.943178	0.225785
923.123028	0.224994
923.302859	0.224434
923.482673	0.224119
923.662467	0.223583
923.842244	0.223311
924.022003	0.222820
924.201743	0.221955
924.381465	0.221320
924.561169	0.220852
924.740854	0.220812
924.920522	0.219842
925.100171	0.219309
925.279802	0.218983
925.459414	0.218701
925.639009	0.217998
925.818585	0.217351
925.998143	0.217185
926.177683	0.216836
926.357205	0.216020
926.536708	0.216136
926.716193	0.215655
926.895660	0.215257
927.075109	0.214317
927.254539	0.213655
927.433951	0.212845
927.613345	0.212251
927.792721	0.210618
927.972079	0.209944
928.151418	0.209363
928.330739	0.208476
928.510042	0.207969
928.689327	0.207014
928.868593	0.206541
929.047841	0.205965
929.227071	0.205580
929.406283	0.205948
929.585476	0.205392
929.764652	0.204512
929.943809	0.204662
930.122948	0.203705
930.302068	0.203355
930.481171	0.202668
930.660255	0.202202
930.839321	0.201292
931.018369	0.201047
931.197398	0.200320
931.376409	0.200063
931.555402	0.198774
931.734377	0.198580
931.913334	0.198072
932.092272	0.196895
932.271192	0.196803
932.450094	0.196368
932.628978	0.195840
932.807844	0.195815
932.986691	0.195148
933.165520	0.194763
933.344331	0.194124
933.523123	0.194013
933.701898	0.193924
933.880654	0.192719
934.059392	0.191583
934.238111	0.191015
934.416813	0.189768
934.595496	0.189240
934.774161	0.188744
934.952808	0.187441
935.131437	0.186608
935.310047	0.186020
935.488639	0.185067
935.667213	0.184531
935.845769	0.183305
936.024306	0.182482
936.202825	0.182034
936.381326	0.181218
936.559809	0.180646
936.738274	0.180334
936.916720	0.179556
937.095148	0.179715
937.273558	0.179931
937.451950	0.179725
937.630323	0.178585
937.808678	0.178310
937.987015	0.177650
938.165334	0.177335
938.343635	0.176624
938.521917	0.176062
938.700181	0.175240
938.878427	0.173736
939.056655	0.172895
939.234864	0.173607
939.413055	0.172562
939.591228	0.171556
939.769383	0.171507
939.947519	0.170269
940.125638	0.170847
940.303738	0.169832
940.481820	0.169445
940.659883	0.168684
940.837929	0.167991
941.015956	0.167222
941.193965	0.166396
941.371955	0.164631
941.549928	0.164630
941.727882	0.163496
941.905818	0.162509
942.083736	0.161789
942.261636	0.161233
942.439517	0.160075
942.617380	0.158530
942.795225	0.159172
942.973052	0.159135
943.150860	0.157988
943.328651	0.156661
943.506423	0.156293
943.684176	0.155502
943.861912	0.154842
944.039629	0.153854
944.217328	0.153639
944.395009	0.151697
944.572672	0.150539
944.750317	0.149174
944.927943	0.147935
945.105551	0.146849
945.283141	0.146866
945.460712	0.145186
945.638265	0.144363
945.815801	0.144183
945.993317	0.143109
946.170816	0.143158
946.348297	0.142747
946.525759	0.143634
946.703203	0.143544
946.880629	0.140901
947.058036	0.141290
947.235425	0.140742
947.412797	0.140277
947.590149	0.140046
947.767484	0.138430
947.944800	0.138649
948.122099	0.136465
948.299379	0.134892
948.476640	0.135128
948.653884	0.134227
948.831109	0.132950
949.008316	0.132598
949.185505	0.132445
949.362676	0.132253
949.539828	0.131565
949.716962	0.131072
949.894078	0.130082
950.071176	0.130348
950.248256	0.130947
950.425317	0.130718
950.602360	0.129121
950.779385	0.128744
950.956391	0.127098
951.133380	0.126668
951.310350	0.126332
951.487302	0.127588
951.664235	0.127182
951.841151	0.125644
952.018048	0.124524
952.194927	0.123758
952.371788	0.122560
952.548631	0.121790
952.725455	0.120827
952.902261	0.120892
953.079049	0.120172
953.255819	0.118656
953.432570	0.116566
953.609303	0.116874
953.786018	0.116841
953.962715	0.115550
954.139394	0.117199
954.316054	0.117987
954.492696	0.118081
954.669320	0.116831
954.845926	0.116700
955.022513	0.117848
955.199083	0.117473
955.375634	0.116966
955.552166	0.116329
955.728681	0.114030
955.905177	0.113107
956.081655	0.111128
956.258115	0.110673
956.434557	0.110160
956.610980	0.109024
956.787385	0.108516
956.963772	0.106764
957.140141	0.107320
957.316492	0.107937
957.492824	0.104693
957.669138	0.105971
957.845434	0.105634
958.021712	0.107573
958.197971	0.107838
958.374212	0.108037
958.550435	0.108496
958.726640	0.109378
958.902826	0.109149
959.078995	0.111413
959.255145	0.109207
959.431277	0.109026
959.607390	0.107588
959.783486	0.106004
959.959563	0.106016
960.135622	0.105717
960.311662	0.103487
960.487685	0.102323
960.663689	0.100176
960.839675	0.099705
961.015643	0.100369
961.191593	0.099683
961.367524	0.101323
961.543437	0.100463
961.719332	0.099614
961.895209	0.100610
962.071067	0.100654
962.246907	0.101485
962.422730	0.100501
962.598533	0.097995
962.774319	0.097412
962.950086	0.096458
963.125835	0.095444
963.301566	0.098042
963.477279	0.098349
963.652973	0.096888
963.828650	0.095983
964.004308	0.097866
964.179947	0.098256
964.355569	0.096236
964.531172	0.096283
964.706757	0.097158
964.882324	0.094178
965.057873	0.092497
965.233403	0.095649
965.408916	0.095214
965.584410	0.095144
965.759885	0.096877
965.935343	0.097533
966.110782	0.098006
966.286203	0.098642
966.461606	0.099546
966.636991	0.103629
966.812357	0.101553
966.987705	0.102628
967.163035	0.100372
967.338347	0.098069
967.513641	0.099603
967.688916	0.099038
967.864173	0.097982
968.039412	0.098547
968.214632	0.095553
968.389835	0.096362
968.565019	0.094948
968.740185	0.094232
968.915333	0.094749
969.090462	0.093832
969.265573	0.093056
969.440667	0.093926
969.615741	0.092648
969.790798	0.093222
969.965836	0.092390
970.140856	0.095031
970.315858	0.096948
970.490842	0.098611
970.665808	0.097970
970.840755	0.098499
971.015684	0.098164
971.190595	0.099519
971.365487	0.098941
971.540362	0.099630
971.715218	0.099626
971.890056	0.098897
972.064875	0.097464
972.239677	0.097486
972.414460	0.095823
972.589225	0.095356
972.763972	0.095500
972.938700	0.094536
973.113411	0.093266
973.288103	0.092188
973.462777	0.092415
973.637432	0.091957
973.812070	0.094197
973.986689	0.096126
974.161290	0.095933
974.335873	0.094077
974.510437	0.093835
974.684984	0.092992
974.859512	0.093089
975.034022	0.094072
975.208513	0.093716
975.382987	0.092432
975.557442	0.091425
975.731879	0.091609
975.906298	0.093261
976.080698	0.093199
976.255080	0.094562
976.429445	0.094380
976.603790	0.093771
976.778118	0.095541
976.952427	0.095083
977.126719	0.096222
977.300992	0.096796
977.475246	0.095222
977.649483	0.094675
977.823701	0.094974
977.997901	0.094529
978.172083	0.094566
978.346247	0.094807
978.520392	0.097446
978.694519	0.096121
978.868628	0.095698
979.042719	0.096172
979.216791	0.094810
979.390845	0.094639
979.564882	0.094444
979.738899	0.093719
979.912899	0.091994
980.086880	0.090904
980.260843	0.089540
980.434788	0.088952
980.608715	0.090081
980.782623	0.091568
980.956514	0.091577
981.130386	0.092178
981.304240	0.092747
981.478075	0.093536
981.651892	0.091121
981.825692	0.094195
981.999472	0.094943
982.173235	0.093785
982.346980	0.094350
982.520706	0.094647
982.694414	0.094077
982.868104	0.094706
983.041775	0.094754
983.215428	0.097130
983.389064	0.096995
983.562680	0.096130
983.736279	0.096461
983.909860	0.097606
984.083422	0.098600
984.256966	0.098747
984.430491	0.097718
984.603999	0.098582
984.777488	0.095048
984.950959	0.095060
985.124412	0.096142
985.297847	0.097177
985.471263	0.097129
985.644661	0.097666
985.818041	0.099087
985.991403	0.101515
986.164747	0.101461
986.338072	0.103341
986.511379	0.102577
986.684668	0.101307
986.857938	0.100686
987.031191	0.100207
987.204425	0.098604
987.377641	0.098625
987.550839	0.096459
987.724018	0.095040
987.897179	0.095835
988.070322	0.095268
988.243447	0.095607
988.416554	0.094806
988.589642	0.094997
988.762712	0.095881
988.935764	0.095624
989.108798	0.095774
989.281813	0.096962
989.454811	0.096687
989.627790	0.095972
989.800751	0.096175
989.973693	0.097492
990.146617	0.098216
990.319524	0.097068
990.492412	0.097743
990.665281	0.099788
990.838133	0.100109
991.010966	0.099306
991.183781	0.100510
991.356578	0.101477
991.529356	0.101834
991.702117	0.100892
991.874859	0.100803
992.047583	0.100290
992.220288	0.098383
992.392976	0.097507
992.565645	0.098614
992.738296	0.096874
992.910929	0.096738
993.083543	0.094758
993.256139	0.094818
993.428718	0.095284
993.601277	0.095577
993.773819	0.095978
993.946342	0.097936
994.118848	0.098099
994.291335	0.099262
994.463803	0.099412
994.636254	0.099547
994.808686	0.098432
994.981100	0.096221
995.153496	0.095749
995.325874	0.095582
995.498233	0.092553
995.670574	0.092001
995.842897	0.092034
996.015202	0.091453
996.187488	0.092433
996.359757	0.093781
996.532007	0.095244
996.704239	0.094819
996.876452	0.094762
997.048648	0.095390
997.220825	0.096863
997.392984	0.097174
997.565124	0.097441
997.737247	0.096119
997.909351	0.094945
998.081437	0.093956
998.253505	0.094315
998.425554	0.094729
998.597586	0.096777
998.769599	0.095186
998.941594	0.095996
999.113571	0.095010
999.285529	0.096375
999.457469	0.097053
999.629391	0.099416
999.801295	0.098003
999.973181	0.097324
1000.145048	0.096648
1000.316897	0.098413
1000.488728	0.097655
1000.660541	0.097812
1000.832335	0.098407
1001.004111	0.097957
1001.175869	0.096032
1001.347609	0.096875
1001.519331	0.096890
1001.691034	0.097461
1001.862719	0.096976
1002.034386	0.097869
1002.206035	0.098192
1002.377665	0.096901
1002.549277	0.096084
1002.720871	0.097321
1002.892447	0.095650
1003.064004	0.096543
1003.235544	0.093994
1003.407065	0.091602
1003.578568	0.091864
1003.750052	0.092537
1003.921519	0.091686
1004.092967	0.091814
1004.264397	0.090263
1004.435809	0.092419
1004.607202	0.091595
1004.778577	0.091844
1004.949934	0.092786
1005.121273	0.091424
1005.292594	0.092044
1005.463896	0.091791
1005.635180	0.092232
1005.806446	0.091503
1005.977694	0.090150
1006.148923	0.090161
1006.320135	0.091991
1006.491328	0.092431
1006.662503	0.090813
1006.833659	0.090902
1007.004798	0.090966
1007.175918	0.091642
1007.347020	0.093432
1007.518103	0.092433
1007.689169	0.092610
1007.860216	0.091656
1008.031245	0.091936
1008.202256	0.093616
1008.373248	0.091865
1008.544223	0.092802
1008.715179	0.093031
1008.886117	0.093615
1009.057036	0.095817
1009.227938	0.095783
1009.398821	0.095012
1009.569686	0.095510
1009.740533	0.095098
1009.911361	0.093904
1010.082172	0.095573
1010.252964	0.095059
1010.423738	0.094625
1010.594493	0.093889
1010.765231	0.095541
1010.935950	0.095853
1011.106651	0.095001
1011.277334	0.096692
1011.447998	0.097927
1011.618645	0.096198
1011.789273	0.096073
1011.959882	0.095819
1012.130474	0.096363
1012.301048	0.094605
1012.471603	0.093163
1012.642140	0.092979
1012.812658	0.090780
1012.983159	0.090606
1013.153641	0.090470
1013.324105	0.091999
1013.494551	0.091984
1013.664979	0.091843
1013.835388	0.091818
1014.005779	0.093941
1014.176152	0.093562
1014.346507	0.094458
1014.516843	0.095321
1014.687162	0.095311
1014.857462	0.094026
1015.027744	0.096090
1015.198007	0.095159
1015.368252	0.096001
1015.538480	0.094876
1015.708689	0.095356
1015.878879	0.096250
1016.049052	0.095983
1016.219206	0.095929
1016.389342	0.096178
1016.559460	0.094094
1016.729559	0.094794
1016.899641	0.094171
1017.069704	0.094588
1017.239749	0.094306
1017.409775	0.093882
1017.579784	0.093693
1017.749774	0.095224
1017.919746	0.095723
1018.089700	0.094861
1018.259635	0.094544
1018.429553	0.096643
1018.599452	0.098039
1018.769333	0.098008
1018.939195	0.097340
1019.109040	0.096659
1019.278866	0.094878
1019.448674	0.093154
1019.618464	0.094542
1019.788235	0.094763
1019.957989	0.091215
1020.127724	0.089998
1020.297441	0.089690
1020.467139	0.091305
1020.636820	0.092527
1020.806482	0.093063
1020.976126	0.093371
1021.145752	0.093318
1021.315359	0.092462
1021.484948	0.092926
1021.654519	0.092289
1021.824072	0.092166
1021.993607	0.090970
1022.163123	0.090543
1022.332621	0.089798
1022.502101	0.090891
1022.671563	0.091476
1022.841007	0.092603
1023.010432	0.092621
1023.179839	0.093406
1023.349228	0.094837
1023.518598	0.094895
1023.687951	0.094986
1023.857285	0.096206
1024.026601	0.096169
1024.195899	0.095912
1024.365178	0.096134
1024.534439	0.095211
1024.703682	0.094475
1024.872907	0.093581
1025.042114	0.093699
1025.211302	0.093552
1025.380472	0.092640
1025.549624	0.093189
1025.718758	0.093809
1025.887873	0.094410
1026.056970	0.096621
1026.226049	0.097181
1026.395110	0.096982
1026.564153	0.096447
1026.733177	0.095831
1026.902183	0.097089
1027.071171	0.097011
1027.240141	0.097099
1027.409092	0.095903
1027.578026	0.095679
1027.746940	0.095189
1027.915837	0.095842
1028.084716	0.096875
1028.253576	0.096680
1028.422418	0.095460
1028.591242	0.093583
1028.760048	0.092648
1028.928835	0.093133
1029.097604	0.093629
1029.266355	0.093840
1029.435088	0.093318
1029.603803	0.091588
1029.772499	0.092352
1029.941177	0.092777
1030.109837	0.093268
1030.278478	0.092407
1030.447102	0.092733
1030.615707	0.092263
1030.784294	0.091108
1030.952863	0.092044
1031.121413	0.092062
1031.289945	0.091762
1031.458460	0.093169
1031.626955	0.093839
1031.795433	0.095082
1031.963892	0.094973
1032.132334	0.094157
1032.300756	0.095883
1032.469161	0.093389
1032.637548	0.093507
1032.805916	0.092794
1032.974266	0.092185
1033.142598	0.092903
1033.310911	0.090693
1033.479207	0.089390
1033.647484	0.089021
1033.815743	0.089037
1033.983983	0.089762
1034.152206	0.089630
1034.320410	0.091011
1034.488596	0.088655
1034.656764	0.086076
1034.824914	0.086198
1034.993045	0.088740
1035.161158	0.089944
1035.329253	0.090690
1035.497330	0.091949
1035.665388	0.091112
1035.833428	0.092016
1036.001450	0.093858
1036.169454	0.096728
1036.337440	0.097958
1036.505407	0.096423
1036.673356	0.096401
1036.841287	0.095574
1037.009200	0.094620
1037.177094	0.096158
1037.344970	0.094755
1037.512828	0.095229
1037.680668	0.093647
1037.848489	0.093939
1038.016293	0.092783
1038.184078	0.093243
1038.351845	0.092856
1038.519593	0.092933
1038.687324	0.094439
1038.855036	0.094749
1039.022730	0.093277
1039.190406	0.093727
1039.358063	0.092637
1039.525702	0.092645
1039.693323	0.091279
1039.860926	0.091419
1040.028511	0.092014
1040.196077	0.090729
1040.363625	0.091034
1040.531155	0.091993
1040.698667	0.090871
1040.866161	0.091704
1041.033636	0.091317
1041.201093	0.091103
1041.368532	0.090033
1041.535952	0.089566
1041.703355	0.089268
1041.870739	0.087967
1042.038105	0.088140
1042.205452	0.090440
1042.372782	0.091184
1042.540093	0.090465
1042.707386	0.091229
1042.874661	0.091105
1043.041918	0.091645
1043.209156	0.089758
1043.376376	0.089776
1043.543578	0.088823
1043.710762	0.088007
1043.877927	0.087427
1044.045074	0.089297
1044.212203	0.087596
1044.379314	0.089458
1044.546407	0.090188
1044.713481	0.093393
1044.880537	0.093982
1045.047575	0.093976
1045.214595	0.093529
1045.381596	0.094085
1045.548579	0.093543
1045.715544	0.095781
1045.882491	0.094844
1046.049420	0.093532
1046.216330	0.090870
1046.383222	0.092694
1046.550096	0.092921
1046.716951	0.092030
1046.883789	0.091360
1047.050608	0.090755
1047.217409	0.090845
1047.384192	0.091090
1047.550956	0.090355
1047.717703	0.092627
1047.884431	0.091591
1048.051140	0.091810
1048.217832	0.092520
1048.384505	0.091988
1048.551161	0.092152
1048.717798	0.092179
1048.884416	0.091549
1049.051017	0.091496
1049.217599	0.090661
1049.384163	0.088834
1049.550709	0.088656
1049.717237	0.089167
1049.883746	0.088457
1050.050237	0.089073
1050.216710	0.090178
1050.383165	0.089801
1050.549601	0.090280
1050.716019	0.090144
1050.882420	0.092162
1051.048801	0.091882
1051.215165	0.092594
1051.381510	0.093891
1051.547837	0.093527
1051.714146	0.090092
1051.880437	0.089973
1052.046709	0.090258
1052.212964	0.092300
1052.379200	0.091189
1052.545417	0.091187
1052.711617	0.089530
1052.877798	0.089210
1053.043961	0.089612
1053.210106	0.090518
1053.376233	0.092308
1053.542341	0.093901
1053.708432	0.092130
1053.874504	0.093385
1054.040557	0.092451
1054.206593	0.094506
1054.372610	0.094539
1054.538609	0.095119
1054.704590	0.096310
1054.870553	0.097546
1055.036497	0.096579
1055.202424	0.095988
1055.368331	0.093973
1055.534221	0.097735
1055.700093	0.097962
1055.865946	0.098237
1056.031781	0.096253
1056.197598	0.095777
1056.363397	0.092669
1056.529177	0.092765
1056.694939	0.092318
1056.860683	0.092811
1057.026409	0.090032
1057.192116	0.088483
1057.357806	0.088198
1057.523477	0.090795
1057.689130	0.090103
1057.854764	0.091465
1058.020381	0.090520
1058.185979	0.091229
1058.351559	0.090344
1058.517120	0.090965
1058.682664	0.091308
1058.848189	0.091315
1059.013696	0.088450
1059.179185	0.089260
1059.344656	0.089597
1059.510108	0.089408
1059.675542	0.089042
1059.840958	0.089517
1060.006356	0.089976
1060.171735	0.089314
1060.337096	0.088836
1060.502439	0.091188
1060.667764	0.090479
1060.833071	0.091490
1060.998359	0.093402
1061.163629	0.094009
1061.328881	0.096401
1061.494115	0.094334
1061.659330	0.096371
1061.824527	0.098206
1061.989706	0.098588
1062.154867	0.100413
1062.320010	0.099431
1062.485134	0.098367
1062.650240	0.098620
1062.815328	0.097700
1062.980398	0.099219
1063.145449	0.096617
1063.310482	0.095826
1063.475497	0.094913
1063.640494	0.093851
1063.805473	0.093133
1063.970433	0.092805
1064.135375	0.091259
1064.300299	0.091244
1064.465204	0.089698
1064.630092	0.091176
1064.794961	0.091772
1064.959812	0.093120
1065.124645	0.093570
1065.289459	0.094705
1065.454256	0.096112
1065.619034	0.096853
1065.783793	0.098227
1065.948535	0.102111
1066.113258	0.100833
1066.277964	0.101483
1066.442651	0.101139
1066.607319	0.103499
1066.771970	0.102824
1066.936602	0.102851
1067.101216	0.102564
1067.265812	0.100483
1067.430389	0.098813
1067.594949	0.099101
1067.759490	0.097837
1067.924013	0.097725
1068.088518	0.095153
1068.253004	0.096396
1068.417472	0.096070
1068.581922	0.097953
1068.746354	0.098714
1068.910768	0.098387
1069.075163	0.098490
1069.239540	0.098917
1069.403899	0.098091
1069.568240	0.096675
1069.732562	0.095613
1069.896866	0.096577
1070.061152	0.095359
1070.225420	0.095015
1070.389670	0.095822
1070.553901	0.096422
1070.718114	0.096550
1070.882309	0.097243
1071.046486	0.098437
1071.210644	0.097464
1071.374784	0.096172
1071.538906	0.096266
1071.703010	0.096068
1071.867096	0.094768
1072.031163	0.094438
1072.195212	0.093293
1072.359243	0.093973
1072.523256	0.093531
1072.687250	0.094469
1072.851226	0.095453
1073.015184	0.095023
1073.179124	0.094696
1073.343045	0.095271
1073.506949	0.097826
1073.670834	0.097497
1073.834701	0.096223
1073.998549	0.095412
1074.162380	0.094918
1074.326192	0.094152
1074.489986	0.096771
1074.653761	0.097327
1074.817519	0.097956
1074.981258	0.094945
1075.144979	0.097805
1075.308682	0.099047
1075.472367	0.100259
1075.636033	0.101524
1075.799681	0.099197
1075.963311	0.097962
1076.126923	0.098248
1076.290516	0.097288
1076.454092	0.098137
1076.617649	0.098115
1076.781187	0.097182
1076.944708	0.095024
1077.108210	0.095143
1077.271695	0.098869
1077.435160	0.097949
1077.598608	0.098309
1077.762038	0.098685
1077.925449	0.100659
1078.088842	0.099710
1078.252217	0.101193
1078.415573	0.103617
1078.578912	0.103005
1078.742232	0.102145
1078.905534	0.102805
1079.068817	0.103120
1079.232083	0.098416
1079.395330	0.096744
1079.558559	0.095314
1079.721770	0.093969
1079.884962	0.093405
1080.048136	0.091518
1080.211293	0.091900
1080.374430	0.092087
1080.537550	0.093411
1080.700651	0.097267
1080.863735	0.096966
1081.026800	0.097752
1081.189846	0.099670
1081.352875	0.099833
1081.515885	0.102204
1081.678877	0.098376
1081.841851	0.095486
1082.004807	0.093916
1082.167744	0.094980
1082.330663	0.093851
1082.493564	0.093177
1082.656447	0.091435
1082.819312	0.092306
1082.982158	0.090805
1083.144986	0.091552
1083.307796	0.094174
1083.470587	0.092850
1083.633361	0.090820
1083.796116	0.093023
1083.958853	0.095369
1084.121571	0.094154
1084.284272	0.094051
1084.446954	0.095484
1084.609618	0.096963
1084.772264	0.098021
1084.934892	0.098395
1085.097501	0.101398
1085.260092	0.100049
1085.422665	0.097871
1085.585220	0.098808
1085.747756	0.100356
1085.910274	0.099406
1086.072774	0.099315
1086.235256	0.099746
1086.397720	0.101957
1086.560165	0.099461
1086.722592	0.100202
1086.885001	0.100287
1087.047392	0.100656
1087.209764	0.098881
1087.372119	0.098694
1087.534455	0.098282
1087.696772	0.096168
1087.859072	0.094168
1088.021353	0.096591
1088.183616	0.098626
1088.345861	0.099000
1088.508088	0.096859
1088.670296	0.096291
1088.832486	0.096464
1088.994658	0.096727
1089.156812	0.098238
1089.318948	0.098419
1089.481065	0.097910
1089.643164	0.096087
1089.805245	0.096598
1089.967308	0.099371
1090.129352	0.098884
1090.291378	0.100104
1090.453386	0.100382
1090.615376	0.098534
1090.777347	0.099326
1090.939301	0.098820
1091.101236	0.099016
1091.263153	0.099041
1091.425051	0.098594
1091.586932	0.100582
1091.748794	0.102394
1091.910638	0.102689
1092.072463	0.103544
1092.234271	0.103759
1092.396060	0.103884
1092.557831	0.104584
1092.719584	0.104631
1092.881319	0.101464
1093.043035	0.101580
1093.204733	0.098050
1093.366413	0.098791
1093.528075	0.098327
1093.689718	0.096880
1093.851343	0.099729
1094.012950	0.100197
1094.174539	0.101500
1094.336110	0.104054
1094.497662	0.102270
1094.659196	0.100489
1094.820712	0.099923
1094.982210	0.098484
1095.143689	0.097993
1095.305151	0.094688
1095.466594	0.087690
1095.628018	0.087250
1095.789425	0.087440
1095.950813	0.090018
1096.112183	0.095247
1096.273535	0.093229
1096.434869	0.094766
1096.596184	0.096080
1096.757482	0.094563
1096.918761	0.098258
1097.080021	0.097198
1097.241264	0.096453
1097.402488	0.095030
1097.563694	0.094929
1097.724882	0.098159
1097.886052	0.099789
1098.047203	0.100330
1098.208336	0.097371
1098.369451	0.096591
1098.530548	0.095033
1098.691627	0.095160
1098.852687	0.095841
1099.013729	0.094004
1099.174753	0.092324
1099.335758	0.090541
1099.496746	0.088199
1099.657715	0.094233
1099.818666	0.098072
1099.979599	0.099241
1100.140513	0.098540
1100.301409	0.099246
1100.462287	0.098503
1100.623147	0.096685
1100.783989	0.096289
1100.944812	0.099032
1101.105617	0.097435
1101.266404	0.097983
1101.427173	0.097247
1101.587923	0.098524
1101.748656	0.095613
1101.909370	0.094258
1102.070066	0.097557
1102.230743	0.098519
1102.391403	0.097182
1102.552044	0.097807
1102.712667	0.097357
1102.873271	0.097382
1103.033858	0.094091
1103.194426	0.093372
1103.354976	0.094654
1103.515508	0.092075
1103.676021	0.094195
1103.836517	0.091841
1103.996994	0.090176
1104.157453	0.089306
1104.317893	0.090917
1104.478316	0.096673
1104.638720	0.097705
1104.799106	0.098413
1104.959474	0.097214
1105.119823	0.094888
1105.280155	0.098476
1105.440468	0.103034
1105.600763	0.105683
1105.761039	0.101690
1105.921298	0.100573
1106.081538	0.105427
1106.241760	0.106748
1106.401964	0.108730
1106.562149	0.110884
1106.722316	0.116240
1106.882465	0.115650
1107.042596	0.112429
1107.202709	0.116463
1107.362803	0.120899
1107.522879	0.117268
1107.682937	0.118766
1107.842977	0.117767
1108.002999	0.114368
1108.163002	0.109541
1108.322987	0.104932
1108.482954	0.103603
1108.642902	0.102469
1108.802833	0.096088
1108.962745	0.094300
1109.122639	0.088567
1109.282515	0.090751
1109.442372	0.091557
1109.602211	0.090486
1109.762032	0.091275
1109.921835	0.093804
1110.081620	0.095017
1110.241386	0.092712
1110.401134	0.092871
1110.560864	0.100083
1110.720576	0.098304
1110.880269	0.099806
1111.039945	0.098975
1111.199602	0.103746
1111.359240	0.101254
1111.518861	0.099936
1111.678463	0.106125
1111.838047	0.106156
1111.997613	0.101223
1112.157161	0.100991
1112.316690	0.099324
1112.476202	0.098593
1112.635695	0.095546
1112.795169	0.095829
1112.954626	0.097291
1113.114064	0.091133
1113.273484	0.089241
1113.432886	0.090867
1113.592270	0.090301
1113.751635	0.096487
1113.910983	0.097506
1114.070312	0.094553
1114.229622	0.095715
1114.388915	0.095860
1114.548189	0.101206
1114.707445	0.104558
1114.866683	0.103039
1115.025903	0.104484
1115.185104	0.097892
1115.344287	0.097463
1115.503452	0.097426
1115.662599	0.095370
1115.821727	0.097733
1115.980838	0.092705
1116.139930	0.095536
1116.299004	0.096874
1116.458059	0.098834
1116.617097	0.099614
1116.776116	0.098979
1116.935117	0.107202
1117.094099	0.106414
1117.253064	0.107115
1117.412010	0.110182
1117.570938	0.103855
1117.729848	0.101274
1117.888740	0.102670
1118.047613	0.101080
1118.206468	0.105859
1118.365305	0.097700
1118.524124	0.100215
1118.682924	0.100145
1118.841707	0.101805
1119.000471	0.103473
1119.159216	0.105658
1119.317944	0.103127
1119.476653	0.108280
1119.635344	0.105096
1119.794017	0.108617
1119.952672	0.103352
1120.111308	0.099394
1120.269927	0.099316
1120.428527	0.097689
1120.587108	0.092466
1120.745672	0.091786
1120.904217	0.094789
1121.062744	0.094218
1121.221253	0.092959
1121.379744	0.096973
1121.538216	0.092642
1121.696671	0.089501
1121.855107	0.092055
1122.013524	0.096250
1122.171924	0.095497
1122.330305	0.089970
1122.488668	0.090186
1122.647013	0.089289
1122.805340	0.090389
1122.963648	0.092912
1123.121938	0.095947
1123.280210	0.096917
1123.438464	0.095186
1123.596700	0.097698
1123.754917	0.097004
1123.913116	0.098852
1124.071297	0.094886
1124.229459	0.094768
1124.387604	0.100468
1124.545730	0.098373
1124.703838	0.091611
1124.861928	0.094168
1125.019999	0.091497
1125.178052	0.089230
1125.336088	0.084001
1125.494104	0.089789
1125.652103	0.089110
1125.810083	0.083243
1125.968045	0.084537
1126.125989	0.092161
1126.283915	0.092112
1126.441823	0.093865
1126.599712	0.097095
1126.757583	0.101741
1126.915436	0.103778
1127.073270	0.102545
1127.231087	0.105545
1127.388885	0.107519
1127.546665	0.107534
1127.704426	0.111767
1127.862170	0.109785
1128.019895	0.110075
1128.177602	0.107250
1128.335291	0.108953
1128.492961	0.111722
1128.650614	0.111952
1128.808248	0.111656
1128.965864	0.110805
1129.123461	0.103604
1129.281041	0.102736
1129.438602	0.098746
1129.596145	0.097125
1129.753670	0.088820
1129.911176	0.087611
1130.068665	0.086415
1130.226135	0.082803
1130.383587	0.081960
1130.541020	0.079508
1130.698436	0.078957
1130.855833	0.081379
1131.013212	0.081576
1131.170573	0.084666
1131.327915	0.087546
1131.485239	0.089344
1131.642545	0.084014
1131.799833	0.081618
1131.957103	0.083502
1132.114354	0.090192
1132.271588	0.090943
1132.428803	0.097418
1132.585999	0.102049
1132.743178	0.099800
1132.900338	0.092956
1133.057480	0.101810
1133.214604	0.109605
1133.371710	0.115514
1133.528797	0.104432
1133.685866	0.099416
1133.842917	0.091533
1133.999950	0.087101
1134.156964	0.084714
1134.313960	0.092100
1134.470938	0.092495
1134.627898	0.089420
1134.784840	0.089349
1134.941763	0.096943
1135.098668	0.104087
1135.255555	0.108691
1135.412424	0.112051
1135.569274	0.116575
1135.726107	0.110331
1135.882921	0.104286
1136.039716	0.103458
1136.196494	0.098415
1136.353253	0.094535
1136.509995	0.091660
1136.666717	0.091606
1136.823422	0.091982
1136.980109	0.094837
1137.136777	0.093614
1137.293427	0.096908
1137.450059	0.093167
1137.606672	0.094633
1137.763267	0.101210
1137.919844	0.102095
1138.076403	0.101217
1138.232944	0.092132
1138.389466	0.085519
1138.545971	0.084607
1138.702457	0.079337
1138.858924	0.082193
1139.015374	0.081731
1139.171805	0.074014
1139.328218	0.071464
1139.484613	0.067604
1139.640990	0.075575
1139.797348	0.080951
1139.953688	0.082540
1140.110010	0.077541
1140.266314	0.077897
1140.422600	0.082003
1140.578867	0.085503
1140.735116	0.086179
1140.891347	0.093298
1141.047559	0.088588
1141.203754	0.084781
1141.359930	0.085785
1141.516088	0.094026
1141.672228	0.094752
1141.828349	0.089587
1141.984452	0.091613
1142.140537	0.092156
1142.296604	0.086235
1142.452653	0.085604
1142.608683	0.080944
1142.764695	0.080693
1142.920689	0.083110
1143.076665	0.077494
1143.232622	0.076129
1143.388562	0.075564
1143.544483	0.071542
1143.700385	0.067817
1143.856270	0.068868
1144.012136	0.067211
1144.167985	0.072301
1144.323814	0.068679
1144.479626	0.071157
1144.635420	0.074492
1144.791195	0.077178
1144.946952	0.084606
1145.102691	0.085943
1145.258411	0.083697
1145.414113	0.089463
1145.569798	0.083752
1145.725463	0.090826
1145.881111	0.091883
1146.036741	0.093382
1146.192352	0.092299
1146.347945	0.094771
1146.503519	0.097983
1146.659076	0.104801
1146.814614	0.101290
1146.970134	0.106315
1147.125636	0.103436
1147.281120	0.108999
1147.436585	0.104415
1147.592032	0.098852
1147.747461	0.094987
1147.902872	0.090101
1148.058265	0.080683
1148.213639	0.073705
1148.368995	0.066900
1148.524333	0.063182
1148.679653	0.057935
1148.834954	0.056612
1148.990237	0.058105
1149.145502	0.055496
1149.300749	0.063724
1149.455977	0.069254
1149.611188	0.079304
1149.766380	0.079245
1149.921553	0.077042
1150.076709	0.075359
1150.231846	0.082755
1150.386966	0.075663
1150.542066	0.070389
1150.697149	0.065950
1150.852214	0.057112
1151.007260	0.058434
1151.162288	0.066980
1151.317298	0.072381
1151.472289	0.071559
1151.627263	0.066968
1151.782218	0.076910
1151.937155	0.083768
1152.092073	0.085920
1152.246974	0.092902
1152.401856	0.088486
1152.556720	0.079711
1152.711566	0.077891
1152.866393	0.078406
1153.021203	0.070258
1153.175994	0.069037
1153.330767	0.070599
1153.485521	0.074867
1153.640258	0.076364
1153.794976	0.076213
1153.949676	0.079255
1154.104358	0.079329
1154.259021	0.082548
1154.413667	0.090899
1154.568294	0.095005
1154.722903	0.089441
1154.877493	0.079765
1155.032066	0.078701
1155.186620	0.083154
1155.341156	0.084225
1155.495674	0.089192
1155.650173	0.085701
1155.804654	0.088234
1155.959118	0.079416
1156.113562	0.082085
1156.267989	0.087356
1156.422397	0.083429
1156.576788	0.084104
1156.731160	0.085046
1156.885513	0.080218
1157.039849	0.081519
1157.194166	0.075708
1157.348465	0.076451
1157.502746	0.075757
1157.657009	0.075078
1157.811253	0.082548
1157.965479	0.080148
1158.119687	0.080357
1158.273877	0.074912
1158.428048	0.071765
1158.582201	0.069563
1158.736337	0.072915
1158.890453	0.073651
1159.044552	0.073250
1159.198632	0.074833
1159.352694	0.073107
1159.506738	0.073530
1159.660764	0.080025
1159.814771	0.083204
1159.968761	0.082702
1160.122732	0.077886
1160.276685	0.077731
1160.430619	0.082729
1160.584535	0.071817
1160.738434	0.072207
1160.892313	0.065325
1161.046175	0.058063
1161.200019	0.045605
1161.353844	0.055720
1161.507651	0.062302
1161.661440	0.057317
1161.815210	0.060388
1161.968962	0.064363
1162.122697	0.059666
1162.276412	0.066700
1162.430110	0.076712
1162.583789	0.089757
1162.737451	0.084403
1162.891094	0.075862
1163.044718	0.076198
1163.198325	0.068539
1163.351913	0.068553
1163.505483	0.071845
1163.659035	0.065050
1163.812569	0.049385
1163.966084	0.041610
1164.119581	0.040529
1164.273060	0.042378
1164.426521	0.046987
1164.579964	0.047659
1164.733388	0.035546
1164.886794	0.044018
1165.040182	0.051530
1165.193551	0.067681
1165.346903	0.069982
1165.500236	0.075147
1165.653551	0.077374
1165.806848	0.082119
1165.960126	0.082136
1166.113386	0.098642
1166.266628	0.092614
1166.419852	0.083134
1166.573058	0.073720
1166.726245	0.083265
1166.879414	0.090597
1167.032565	0.088667
1167.185698	0.075338
1167.338812	0.077244
1167.491909	0.078140
1167.644987	0.080416
1167.798046	0.076396
1167.951088	0.079933
1168.104111	0.072785
1168.257117	0.065283
1168.410103	0.066600
1168.563072	0.065169
1168.716023	0.064493
1168.868955	0.060503
1169.021869	0.050525
1169.174765	0.053652
1169.327642	0.058848
1169.480501	0.067022
1169.633343	0.057443
1169.786165	0.060322
1169.938970	0.069582
1170.091757	0.068420
1170.244525	0.070531
1170.397275	0.063143
1170.550007	0.068225
1170.702720	0.060342
1170.855415	0.062061
1171.008092	0.055563
1171.160751	0.043080
1171.313392	0.030274
1171.466014	0.138947
1171.618619	-0.029677
1171.771205	-0.029677
1171.923772	-0.029677
