sample name	sample
index	1299
start time	 04-29-2021  03:39:51 PM
880	0.266012
Peak Time (s)	102.537
Peak Height 	0.266
calc peak height	100,103
Baseline Time (s)	9.538
Baseline Value 	-0.003976
subtract baseline	10,4
Abs	0.160518
Peak Time (s)	101.035
Peak Height 	0.1605
calc peak height	100,103
Baseline Time (s)	10.036
Baseline Value 	0.003618
subtract baseline	10,3
PK_550	0.095431
Peak Time (s)	102.537
Peak Height 	0.09543
calc peak height	100,103
Baseline Time (s)	9.538
Baseline Value 	0.00102
subtract baseline	10,2
PK_880	0.147962
Peak Time (s)	100.035
Peak Height 	0.148
calc peak height	100,103
Baseline Time (s)	9.04
Baseline Value 	0.002942
subtract baseline	10,1


Time (s)	A880-A510	A880-A775	A880-A975	A880	I510	I775	I975	I880	
0.038000	-0.004370	-0.001535	-0.007174	0.002660	6292.959865	40927.895575	3858.654998	20915.929793
0.535500	-0.002993	-0.001308	-0.003510	0.002905	6301.559851	40926.336878	3865.676133	20905.810884
1.038500	-0.003267	-0.000701	0.000502	0.002859	6299.820871	40983.271332	3874.081960	20907.695012
1.537500	-0.003073	-0.000075	-0.001770	0.004784	6286.690377	40870.011089	3865.389128	20828.497893
2.036500	-0.002714	-0.000693	0.002264	0.004588	6290.892615	40833.235575	3874.149284	20836.524067
2.537000	-0.003842	-0.001864	-0.005925	-0.000917	6324.257353	41212.346453	3868.581060	21064.135544
3.037000	0.001944	-0.000761	0.000606	-0.002328	6379.843047	41433.914487	3885.158987	21122.912942
3.537000	-0.003982	-0.001543	-0.003850	0.002743	6295.269710	40919.925101	3865.308429	20912.474253
4.034500	-0.002631	-0.001211	-0.006964	0.001099	6318.095180	41092.684906	3862.285330	20980.460985
4.535000	-0.001034	-0.000500	-0.000702	-0.000079	6339.380884	41258.507893	3877.696973	21029.283738
5.038000	-0.004303	-0.000805	0.004506	-0.000806	6319.878380	41295.685528	3890.182499	21059.501265
5.535500	-0.001693	-0.000350	-0.005639	-0.000469	6337.314821	41306.173426	3868.246648	21045.514073
6.035500	-0.002183	-0.001629	-0.003201	-0.000854	6336.500964	41227.394040	3874.102548	21061.498377
6.536500	-0.001616	0.000116	0.001795	0.000011	6334.214687	41304.912883	3882.741364	21025.571880
7.036000	-0.001051	-0.000633	-0.000690	0.000038	6338.350521	41236.513820	3877.478410	21024.434804
7.537000	-0.002527	-0.000756	-0.008547	-0.000739	6332.978043	41294.143329	3862.809300	21056.721335
8.037000	-0.003134	-0.000806	0.003912	-0.000539	6326.786621	41272.119007	3888.361437	21048.405902
8.537000	0.001078	0.000247	-0.000212	0.000730	6349.425030	41253.177123	3877.033020	20995.747507
9.040500	0.000000	0.000275	0.003244	0.000266	6344.688291	41296.447435	3885.253353	21014.990567
9.538000	0.001607	0.000000	-0.000578	0.000000	6359.153653	41295.634514	3877.791563	21026.018818
10.035500	-0.002858	-0.000444	0.000000	-0.000259	6326.758062	41279.343614	3879.543046	21036.786628
10.536000	0.000180	-0.000440	-0.002427	-0.000212	6349.762984	41275.527284	3874.377831	21034.821732
11.036000	-0.000346	-0.000536	0.000313	-0.000618	6348.837909	41302.817610	3880.950737	21051.696393
11.536000	-0.000930	0.000048	0.001019	0.000108	6338.742922	41290.309348	3880.908133	21021.532802
12.036500	-0.002176	-0.000270	-0.002569	-0.000278	6332.135530	41296.408745	3874.219533	21037.580910
12.537000	-0.002043	-0.000056	0.000544	-0.000217	6332.687472	41309.847263	3880.594532	21035.046584
13.037500	-0.000580	-0.000638	0.000331	-0.001619	6354.757486	41382.167357	3883.090064	21093.365013
13.534500	-0.000776	-0.000186	-0.006022	-0.000471	6344.383342	41320.741421	3867.458206	21045.572486
14.035500	-0.001927	-0.000946	-0.004885	0.000712	6326.447185	41149.847126	3867.363529	20996.478741
14.535000	-0.000329	-0.000019	-0.002864	0.001651	6331.498112	41148.775604	3869.601956	20957.591433
15.038000	-0.002627	-0.000477	-0.002981	-0.001002	6334.228472	41341.918380	3874.869732	21067.667131
15.535500	0.000555	0.000331	-0.000846	-0.000493	6354.827745	41368.300606	3878.263616	21046.514763
16.035500	-0.001887	-0.000255	0.001935	-0.000998	6339.888210	41361.103722	3885.157558	21067.493658
16.536500	-0.002181	-0.000995	0.000147	-0.001492	6341.425011	41339.409157	3882.435803	21088.071485
17.036500	0.000313	-0.000257	0.002417	-0.004405	6383.317153	41662.751952	3893.387203	21209.818853
17.537000	-0.003410	0.000048	-0.000006	0.001982	6305.415983	41125.654747	3874.851554	20943.933445
18.034500	-0.000700	-0.000070	-0.000276	0.000657	6336.285939	41231.659604	3877.049924	20998.768596
18.537500	-0.005162	-0.000339	0.000606	0.000119	6306.261164	41255.372042	3880.020814	21021.092752
19.038000	-0.001073	-0.000383	-0.001892	0.000066	6337.963899	41256.101778	3874.911355	21023.273961
19.535000	-0.000664	0.000466	-0.008898	0.000419	6338.390838	41299.701865	3859.712336	21008.611609
20.035500	-0.001306	-0.000342	0.000247	0.000227	6334.937928	41245.532964	3879.041317	21016.595821
20.535500	-0.000286	-0.000464	0.001935	-0.000016	6344.658992	41256.163448	3883.091269	21026.689884
21.036000	-0.001667	-0.000249	-0.007567	-0.000561	6338.214796	41323.102967	3864.457863	21049.326794
21.537000	-0.000788	-0.000180	0.003114	0.000182	6339.268876	41263.764412	3885.156508	21018.469844
22.037500	-0.003410	-0.000791	-0.004099	-0.000132	6321.557576	41237.607956	3870.737738	21031.507779
22.537500	-0.002040	0.000811	-0.000128	0.000648	6326.069111	41309.965641	3877.377434	20999.116902
23.034500	-0.002826	0.000802	0.001445	0.000366	6322.208285	41334.059052	3881.260808	21010.822925
23.537500	0.001331	0.000068	0.000772	0.000029	6356.792769	41299.052532	3880.556885	21024.823293
24.035000	-0.001295	-0.000272	-0.001470	-0.000413	6339.938953	41308.063858	3876.790564	21043.176178
24.535500	-0.002645	0.000046	0.004828	-0.000159	6327.618214	41313.697120	3889.494137	21032.601029
25.036000	-0.002374	-0.000268	0.002688	-0.000614	6333.192031	41326.129612	3885.934502	21051.520781
25.536000	-0.002359	-0.000379	-0.001498	-0.000112	6329.455319	41272.145411	3876.104458	21030.677827
26.036500	-0.000157	-0.000887	-0.003627	0.000118	6344.616253	41207.168046	3871.197398	21021.106019
26.536500	0.000461	-0.000161	0.001167	-0.000080	6350.915485	41288.544070	3881.612571	21029.343510
27.037000	-0.001325	0.000041	0.003626	-0.001035	6344.494807	41390.500528	3888.804192	21069.021719
27.537000	0.001858	0.000381	0.002414	-0.003045	6384.763832	41598.627389	3890.496478	21152.901791
28.034000	-0.001274	-0.000081	-0.005044	0.001992	6321.646215	41113.528299	3864.398355	20943.525313
28.537500	-0.001501	0.000794	0.002182	-0.000285	6337.372283	41390.857916	3884.177682	21037.875273
29.035500	-0.001012	-0.000857	-0.000366	-0.001593	6351.222213	41360.544990	3881.571706	21092.271312
29.535500	-0.005224	-0.000951	-0.003616	0.004021	6276.191279	40860.170491	3863.160168	20859.849639
30.035500	-0.001547	-0.000140	0.003852	-0.001010	6342.600388	41372.350013	3889.232075	21068.007281
30.536500	-0.002146	0.000130	0.001163	0.000857	6323.655162	41231.619943	3879.640804	20990.454972
31.036500	-0.003177	-0.000229	-0.004979	0.000797	6316.228874	41205.380723	3866.995086	20992.966164
31.536500	-0.004042	-0.001351	-0.004750	0.002346	6297.832774	40971.345405	3864.272573	20928.887356
32.037000	-0.000623	-0.000998	0.001212	-0.001729	6355.278103	41360.128898	3885.175512	21097.957270
32.537000	-0.000125	-0.000023	0.002321	-0.000716	6351.296128	41356.704784	3885.377085	21055.751983
33.038000	-0.000375	-0.000310	-0.005419	-0.001580	6356.043835	41407.642362	3871.003863	21091.735121
33.537500	-0.001406	0.000306	0.000760	0.002352	6317.877190	41115.775257	3875.674252	20928.620482
34.037500	-0.001850	0.000286	-0.005125	0.001154	6323.645528	41219.255309	3865.955099	20978.161921
34.535500	-0.000787	0.000061	-0.002138	0.000448	6337.225441	41261.553599	3873.603745	21007.412837
35.036000	-0.001242	0.000003	-0.000631	0.000985	6329.601025	41209.199488	3875.625416	20985.159336
35.536000	-0.002407	-0.001018	-0.000430	0.000275	6326.118174	41181.933130	3877.525971	21014.611282
36.037000	-0.000660	-0.000513	-0.005557	0.000204	6340.081793	41232.524967	3867.025365	21017.557316
36.537000	-0.001258	0.000001	0.004318	0.000999	6329.379230	41207.814157	3885.971322	20984.596167
37.036000	-0.000190	0.000222	-0.002082	0.001089	6336.885856	41219.326337	3872.387730	20980.844753
37.537500	-0.000977	-0.000891	-0.001299	0.000675	6334.022192	41158.000212	3874.879199	20998.034688
38.035000	-0.001486	-0.000098	0.003218	0.000578	6330.851108	41236.135100	3884.540273	21002.020974
38.535500	-0.001344	0.000264	0.003050	0.000833	6329.990511	41245.559661	3883.650854	20991.465682
39.038500	-0.002231	-0.000803	0.001161	-0.000014	6329.685464	41226.202784	3881.462468	21026.595162
39.536000	-0.002033	-0.000753	-0.005267	0.000072	6330.546406	41223.026815	3867.897432	21023.033284
40.036000	-0.002442	0.000126	-0.001049	0.000546	6323.769790	41258.618068	3875.667865	21003.351289
40.536500	-0.000368	0.000166	-0.001433	0.000481	6340.189948	41267.865107	3875.002639	21006.044440
41.036500	-0.004216	-0.000602	-0.000739	-0.000361	6317.138336	41274.387902	3878.209891	21041.002188
41.537000	-0.003988	-0.000532	-0.001612	0.000061	6315.663790	41243.488192	3875.507381	21023.505099
42.037500	-0.004272	-0.000155	-0.005627	0.000327	6311.456117	41253.191149	3866.626935	21012.439758
42.537500	-0.001021	0.000294	-0.002671	0.000780	6332.874335	41252.825375	3871.806955	20993.643278
43.035000	-0.000118	0.000164	-0.003944	0.000702	6340.418413	41248.230750	3869.330203	20996.877700
43.535500	0.000748	0.000729	0.005903	-0.003521	6379.821011	41671.835056	3898.933411	21172.780516
44.038500	-0.003624	-0.000282	-0.000335	0.003780	6290.117891	40939.394864	3870.428940	20869.743848
44.535500	-0.000274	0.000380	-0.001718	-0.001022	6352.503176	41419.301119	3877.544528	21068.483067
45.042000	0.002664	0.000126	0.004768	-0.001346	6377.808802	41425.526695	3891.884631	21081.997513
45.536500	-0.001496	-0.000574	0.000262	-0.001771	6348.859352	41401.267646	3883.263923	21099.696022
46.040000	-0.006291	-0.001419	-0.002767	0.003997	6268.332024	40821.535198	3864.958095	20860.841790
46.537500	-0.001463	-0.000404	-0.006601	-0.001519	6347.171609	41393.979520	3868.428925	21089.206002
47.038000	-0.000061	0.000271	0.000459	0.001038	6338.267366	41228.065383	3877.789463	20982.964898
47.535000	-0.000761	0.000073	-0.000934	0.001028	6332.967667	41211.619152	3874.903384	20983.389184
48.035500	-0.004752	0.000409	-0.005767	0.004098	6279.176735	40972.053241	3858.591358	20856.665395
48.536000	0.000374	0.000071	-0.002159	-0.001288	6359.576886	41415.473858	3877.178029	21079.559238
49.035500	0.000742	0.000420	-0.001306	-0.001104	6361.003802	41430.062342	3878.576700	21071.897219
49.535500	-0.000035	0.000056	-0.000988	0.000394	6343.433415	41265.867595	3876.112876	21009.679442
50.036500	-0.001780	-0.000978	0.001081	0.001945	6318.134707	41039.071020	3877.195002	20945.458054
50.537000	-0.002739	-0.002405	-0.005880	0.006409	6276.925538	40526.997370	3853.647409	20761.895023
51.037000	-0.013985	-0.027943	-0.001724	0.395103	4303.261986	17481.366955	3334.694375	10254.702996
51.537500	-0.031906	-0.026279	-0.020302	0.113614	5393.175084	30760.001045	3637.874458	16875.558464
52.040500	-0.054506	-0.048707	-0.033606	-0.191248	7586.168783	56158.272458	4276.674628	31002.104420
52.535000	-0.033375	-0.047300	-0.012679	-0.223828	8190.248128	60482.225365	4447.959916	33183.908606
53.035000	-0.012978	-0.046994	-0.005853	-0.243083	8686.670953	63128.862139	4539.421356	34552.511865
53.535500	-0.003998	-0.029497	0.006696	-0.203530	8299.938894	60153.121920	4444.822379	31805.404396
54.035500	-0.007640	-0.021723	0.012210	-0.118389	7319.592694	50833.265074	4197.805852	26676.489265
54.536500	-0.011744	-0.018647	0.009800	-0.091485	7021.762004	48281.527987	4117.683948	25253.971199
55.036500	-0.000183	-0.010142	0.011836	-0.101388	7225.640299	50240.433826	4149.664808	25767.338805
55.536500	0.012761	0.001848	0.018925	-0.101158	7351.252691	51535.979327	4168.437801	25755.276112
56.037000	0.026869	0.010711	0.029018	-0.089623	7377.122957	51238.644031	4164.468925	25158.746999
56.540000	0.036693	0.016251	0.033236	-0.068011	7259.849970	49487.473296	4117.584693	24082.797147
57.038000	0.038994	0.018248	0.036855	-0.033500	6955.163215	46136.831696	4038.806530	22471.896865
57.535500	0.040469	0.018408	0.046012	-0.014697	6800.370042	44325.948685	4015.337070	21646.640163
58.035500	0.048500	0.024176	0.050465	0.013615	6626.864654	42237.392952	3959.470658	20469.513547
58.535500	0.052406	0.024889	0.060752	0.054560	6330.169667	38769.146808	3892.050675	18897.326008
59.036000	0.059348	0.027773	0.066280	0.079596	6194.171321	36992.278465	3851.560824	18006.512402
59.536500	0.064259	0.032321	0.072992	0.102560	6064.012067	35582.598605	3819.189504	17233.373336
60.037000	0.064636	0.032625	0.077744	0.124882	5912.914351	33973.747417	3785.532591	16520.055526
60.536500	0.070298	0.037520	0.086928	0.133081	5895.930294	33739.268267	3787.382279	16267.092006
61.039500	0.072335	0.037237	0.088860	0.153301	5777.084735	32323.542661	3753.687943	15663.333316
61.537000	0.074167	0.038179	0.100420	0.170198	5682.326439	31267.195411	3744.121236	15179.935549
62.037500	0.077691	0.037966	0.103672	0.181103	5637.079809	30553.695015	3730.603159	14877.787076
62.535500	0.074014	0.035204	0.102633	0.202307	5490.109526	29076.352127	3692.641151	14311.545848
63.035500	0.084470	0.043399	0.113645	0.242744	5323.845145	27213.286027	3645.320171	13305.443692
63.535000	0.073561	0.034740	0.110705	0.263167	5161.920752	25647.447739	3609.964965	12831.814250
64.036500	0.075254	0.039885	0.110515	0.280464	5085.534890	25023.570827	3584.718389	12447.731109
64.535500	0.083280	0.042628	0.108842	0.298141	5039.649013	24280.401694	3557.943765	12070.717667
65.036500	0.084016	0.045407	0.119398	0.307076	5001.455736	23981.374198	3560.140345	11885.891310
65.537000	0.089138	0.049290	0.123739	0.313733	4994.386128	23848.086888	3557.003480	11750.660025
66.040500	0.090226	0.052828	0.125625	0.315948	4989.214051	23911.526961	3556.559675	11706.114827
66.537500	0.091065	0.054425	0.122011	0.310760	5017.043905	24240.227351	3558.687503	11810.796555
67.035000	0.100386	0.058348	0.123136	0.308862	5069.896126	24526.335309	3562.797548	11849.411628
67.535500	0.097898	0.060861	0.122083	0.302673	5087.629759	24961.236663	3569.847620	11976.500175
68.035500	0.100730	0.061400	0.124156	0.296039	5133.688071	25326.316544	3581.989645	12114.746317
68.536000	0.100275	0.060914	0.127622	0.288615	5168.240982	25685.229682	3597.521199	12271.974602
69.036500	0.103899	0.064499	0.119150	0.283803	5210.817826	26127.398123	3592.257349	12375.331910
69.536500	0.104713	0.065739	0.127961	0.276951	5250.232332	26561.681382	3615.099970	12524.513927
70.037000	0.106296	0.067906	0.119614	0.272717	5280.608055	26910.910551	3609.020996	12617.857843
70.537500	0.111329	0.069843	0.128756	0.263182	5358.488276	27549.932903	3637.090302	12831.466188
71.037500	0.113617	0.071415	0.128557	0.255742	5411.971888	28063.875084	3648.300752	13001.429857
71.535000	0.113523	0.073300	0.133186	0.250206	5442.417820	28495.219864	3664.358618	13129.811478
72.035500	0.115049	0.074072	0.127726	0.245667	5476.803682	28808.471864	3662.888200	13236.284056
72.535500	0.113772	0.074071	0.125773	0.238967	5507.953735	29209.040770	3670.501007	13395.498323
73.036000	0.115718	0.074851	0.131593	0.235417	5539.925648	29471.284273	3685.773580	13480.875569
73.536000	0.113616	0.075673	0.124880	0.233219	5540.487619	29655.745773	3678.372348	13534.068285
74.036500	0.114623	0.075262	0.125495	0.228968	5571.459900	29892.144395	3686.350000	13637.728053
74.536000	0.117653	0.076543	0.129000	0.227536	5598.040709	30060.382963	3694.536972	13672.876457
75.036500	0.117617	0.078142	0.134229	0.225870	5607.819333	30264.349547	3706.127588	13713.921443
75.540000	0.120097	0.079202	0.127205	0.224777	5629.384591	30399.653485	3696.147286	13740.928973
76.034500	0.118681	0.079818	0.125388	0.222645	5633.727940	30573.318386	3696.673821	13793.807768
76.534500	0.120530	0.080263	0.130337	0.221034	5654.815862	30704.008290	3707.729881	13833.961166
77.035500	0.124273	0.082094	0.132052	0.221261	5676.415903	30806.395214	3710.261010	13828.287811
77.536000	0.120828	0.081993	0.128725	0.220763	5658.293773	30831.737321	3705.455012	13840.705424
78.036500	0.124976	0.082581	0.128898	0.219594	5691.075391	30944.455879	3707.731757	13869.958113
78.536000	0.126960	0.083314	0.127650	0.220156	5699.911895	30955.465944	3704.664023	13855.893314
79.036500	0.126682	0.082856	0.129306	0.219270	5703.692383	30982.917917	3708.974970	13878.056179
79.537000	0.127748	0.084468	0.132985	0.221325	5697.542365	30954.444373	3711.743082	13826.696572
80.037500	0.130041	0.084282	0.133395	0.221425	5711.207754	30936.084750	3712.271717	13824.203251
80.537500	0.134633	0.086366	0.136289	0.222633	5732.433675	30992.447142	3715.158603	13794.120398
81.034000	0.132744	0.086150	0.131797	0.222568	5720.975855	30982.676253	3707.604702	13795.738645
81.535000	0.129787	0.086337	0.138711	0.224228	5692.171814	30888.038738	3716.577259	13754.523943
82.035000	0.133542	0.087132	0.132716	0.226588	5700.844381	30787.898261	3702.358049	13696.221308
82.536000	0.133485	0.088739	0.135709	0.225723	5705.873618	30946.298886	3708.889469	13717.556506
83.036000	0.133918	0.087579	0.136222	0.226028	5706.672058	30852.335149	3709.244400	13710.023654
83.539000	0.134926	0.089322	0.140477	0.227427	5704.235431	30874.356706	3714.118771	13675.557664
84.036500	0.133131	0.089199	0.139766	0.230326	5675.141165	30681.335312	3707.962336	13604.514710
84.537000	0.135673	0.089699	0.141200	0.230221	5691.509691	30719.872570	3710.580705	13607.078151
85.037000	0.132755	0.089713	0.138874	0.231828	5663.586752	30618.535197	3703.905997	13567.878371
85.537500	0.133912	0.089951	0.140591	0.233298	5661.662540	30540.365574	3704.323741	13532.141952
86.035000	0.137943	0.091765	0.138709	0.235838	5670.829191	30494.451877	3696.888993	13470.710722
86.535000	0.135083	0.090168	0.142654	0.235472	5655.520081	30416.696204	3704.136506	13479.536952
87.035500	0.138571	0.091185	0.137989	0.237971	5661.578101	30323.465481	3692.129799	13419.372927
87.535000	0.137445	0.090936	0.136769	0.239888	5642.975967	30187.704252	3686.934752	13373.473890
88.036000	0.139048	0.090882	0.138300	0.240260	5650.481901	30161.094294	3688.849819	13364.572130
88.536000	0.139274	0.092242	0.149466	0.242539	5637.973311	30103.731206	3703.705026	13310.304120
89.037000	0.138178	0.091536	0.142726	0.243853	5623.359675	29978.140020	3690.230070	13279.147630
89.540000	0.139373	0.091372	0.135434	0.244377	5627.424409	29935.554784	3677.388029	13266.752035
90.037000	0.137553	0.091491	0.146451	0.245917	5607.157062	29847.675576	3692.988335	13230.391866
90.535000	0.138780	0.091743	0.142333	0.246896	5608.644751	29802.794840	3684.555310	13207.333168
91.035000	0.139289	0.091680	0.148202	0.248671	5601.046175	29689.776974	3691.321595	13165.691050
91.535500	0.137895	0.091374	0.148594	0.249503	5587.739442	29620.042147	3690.591077	13146.232646
92.035500	0.141747	0.092025	0.140255	0.253992	5583.940920	29386.155036	3669.625635	13041.839331
92.539000	0.141725	0.091802	0.150320	0.250989	5601.749258	29555.305055	3690.988681	13111.540865
93.036500	0.145605	0.094199	0.149290	0.254236	5605.551930	29503.477687	3683.926147	13036.192715
93.539000	0.141509	0.091718	0.142475	0.253015	5588.342670	29426.791485	3674.792658	13064.459270
94.037000	0.141297	0.092711	0.151499	0.257476	5560.615783	29216.899603	3682.233190	12961.554315
94.536500	0.143520	0.093219	0.151342	0.255907	5583.089563	29342.468943	3684.552676	12997.633290
95.035000	0.142166	0.091914	0.152659	0.256027	5574.332458	29256.276021	3686.523481	12994.866565
95.535000	0.143759	0.093045	0.149844	0.258186	5570.971547	29194.291097	3678.366409	12945.277567
96.035500	0.142360	0.092933	0.145848	0.260185	5550.917941	29067.438013	3668.660184	12899.587801
96.536000	0.144850	0.092880	0.148979	0.258913	5573.133958	29140.606367	3675.776666	12928.638137
97.036000	0.142711	0.092879	0.150047	0.260816	5549.276840	29026.420610	3674.421202	12885.212357
97.536000	0.143101	0.092823	0.150061	0.260339	5554.372185	29051.612404	3675.218062	12896.072940
98.036500	0.143121	0.094503	0.151768	0.263372	5536.698880	28970.710279	3673.068510	12827.175427
98.537000	0.145576	0.093914	0.148395	0.261528	5561.953220	29045.749508	3670.599057	12869.008135
99.039500	0.146292	0.093971	0.158465	0.264441	5549.014135	28875.268376	3682.234979	12802.996227
99.534500	0.145603	0.094204	0.150362	0.263030	5553.259902	28973.308876	3671.349250	12834.921819
100.034500	0.147962	0.094466	0.154021	0.263341	5565.340664	28970.386217	3676.774651	12827.874774
100.535000	0.146969	0.094100	0.154010	0.263655	5557.627905	28929.796331	3676.245948	12820.768615
101.035500	0.146619	0.094213	0.160518	0.263909	5554.069163	28921.371955	3686.485610	12815.027063
101.535500	0.146867	0.095411	0.150559	0.265286	5547.430149	28910.758207	3668.034102	12783.943879
102.036000	0.144464	0.094938	0.155345	0.264652	5537.065689	28920.305321	3676.796444	12798.236539
102.536500	0.147311	0.095431	0.156153	0.266012	5545.774966	28868.701947	3675.899211	12767.586302
103.036500	0.148732	0.095285	0.155925	0.268210	5541.219309	28729.646462	3671.967672	12718.247367
103.537000	0.148751	0.095745	0.159810	0.266321	5552.419415	28869.011032	3681.359470	12760.642342
104.037000	0.149754	0.096361	0.155635	0.267419	5551.863866	28840.355699	3672.777149	12735.979084
104.537500	0.151293	0.096324	0.158171	0.266753	5564.861155	28877.744328	3677.976173	12750.920553
105.034500	0.147898	0.096206	0.153318	0.269543	5528.557306	28705.273338	3665.630388	12688.447962
105.535000	0.148252	0.096037	0.155855	0.266800	5546.674151	28857.905056	3674.136521	12749.872815
106.035500	0.149183	0.096614	0.157062	0.266743	5552.475444	28895.577629	3676.187490	12751.147963
106.536000	0.148906	0.097168	0.158225	0.267492	5546.444599	28883.971845	3676.860152	12734.329195
107.036000	0.148728	0.097539	0.160915	0.271261	5523.385032	28682.539642	3675.106637	12650.175987
107.536500	0.150099	0.097497	0.157441	0.268170	5549.473436	28863.223575	3674.485668	12719.136853
108.034000	0.150809	0.097309	0.160542	0.268323	5552.744028	28842.905571	3679.281372	12715.710214
