sample name	sample
index	962
start time	 04-12-2021  04:14:59 PM


Wavelength (nm)	Absorbance
494.344910	-0.123122
494.563924	-0.123122
494.782919	-0.123122
495.001897	0.011640
495.220856	-0.067334
495.439797	-0.054016
495.658719	-0.045836
495.877624	-0.019492
496.096510	-0.039267
496.315378	-0.043115
496.534227	-0.042705
496.753059	-0.028592
496.971872	-0.016657
497.190667	0.136949
497.409444	0.160721
497.628203	0.170900
497.846943	0.170585
498.065665	0.173665
498.284369	0.173398
498.503055	0.174772
498.721723	0.174105
498.940372	0.173938
499.159003	0.174820
499.377616	0.175080
499.596210	0.174531
499.814787	0.175240
500.033345	0.175596
500.251885	0.176172
500.470406	0.176361
500.688910	0.177213
500.907395	0.177363
501.125862	0.176848
501.344311	0.176769
501.562742	0.175921
501.781154	0.176342
501.999548	0.176535
502.217924	0.176643
502.436282	0.176395
502.654621	0.176595
502.872942	0.177131
503.091245	0.177236
503.309530	0.177362
503.527797	0.176856
503.746045	0.176868
503.964275	0.175916
504.182487	0.176420
504.400681	0.177626
504.618856	0.177984
504.837013	0.178353
505.055152	0.177946
505.273273	0.178086
505.491376	0.178895
505.709460	0.178932
505.927526	0.180164
506.145574	0.179102
506.363604	0.178801
506.581615	0.179077
506.799608	0.178984
507.017583	0.179416
507.235540	0.180267
507.453478	0.181076
507.671399	0.181022
507.889301	0.180875
508.107185	0.182168
508.325050	0.182729
508.542898	0.183364
508.760727	0.183631
508.978538	0.184343
509.196330	0.183579
509.414105	0.184089
509.631861	0.184442
509.849599	0.185176
510.067319	0.185469
510.285021	0.185312
510.502704	0.185624
510.720369	0.185336
510.938016	0.185235
511.155645	0.185356
511.373255	0.185141
511.590848	0.185201
511.808422	0.185116
512.025977	0.186020
512.243515	0.186579
512.461034	0.185922
512.678536	0.186169
512.896018	0.187375
513.113483	0.188921
513.330930	0.189493
513.548358	0.190694
513.765768	0.191268
513.983160	0.190367
514.200533	0.190172
514.417889	0.190945
514.635226	0.191081
514.852545	0.190222
515.069845	0.189828
515.287128	0.189956
515.504392	0.189446
515.721638	0.189294
515.938866	0.190062
516.156075	0.190585
516.373267	0.190532
516.590440	0.192231
516.807594	0.192526
517.024731	0.192516
517.241850	0.193157
517.458950	0.193397
517.676032	0.194112
517.893095	0.194416
518.110141	0.194966
518.327168	0.195040
518.544177	0.195240
518.761168	0.196261
518.978141	0.197202
519.195095	0.197261
519.412031	0.197474
519.628949	0.197921
519.845849	0.198055
520.062731	0.197736
520.279594	0.198149
520.496439	0.197931
520.713266	0.197644
520.930074	0.197756
521.146865	0.198097
521.363637	0.198886
521.580391	0.198710
521.797127	0.199512
522.013844	0.199927
522.230543	0.200434
522.447224	0.200928
522.663887	0.201318
522.880532	0.201377
523.097158	0.201457
523.313766	0.202395
523.530356	0.202962
523.746928	0.202415
523.963481	0.202795
524.180017	0.203665
524.396534	0.203138
524.613032	0.203792
524.829513	0.204539
525.045975	0.204789
525.262420	0.204657
525.478845	0.205252
525.695253	0.205917
525.911643	0.206203
526.128014	0.206045
526.344367	0.207310
526.560702	0.207601
526.777018	0.207774
526.993316	0.208675
527.209597	0.209075
527.425858	0.209307
527.642102	0.209881
527.858328	0.210633
528.074535	0.211172
528.290724	0.212140
528.506894	0.212694
528.723047	0.213464
528.939181	0.214114
529.155297	0.214149
529.371395	0.213770
529.587475	0.213656
529.803536	0.214334
530.019579	0.215042
530.235604	0.215072
530.451611	0.214800
530.667600	0.215331
530.883570	0.215089
531.099522	0.215953
531.315456	0.217104
531.531372	0.218225
531.747269	0.218550
531.963148	0.219093
532.179009	0.218910
532.394852	0.220430
532.610676	0.220881
532.826482	0.221513
533.042271	0.221826
533.258040	0.222367
533.473792	0.222606
533.689525	0.223102
533.905240	0.223946
534.120937	0.224427
534.336616	0.224337
534.552277	0.223765
534.767919	0.223780
534.983543	0.223560
535.199149	0.223471
535.414736	0.223723
535.630306	0.223814
535.845857	0.223764
536.061390	0.224314
536.276904	0.225209
536.492401	0.225817
536.707879	0.226547
536.923339	0.227866
537.138781	0.228886
537.354204	0.229481
537.569610	0.229498
537.784997	0.229818
538.000366	0.229984
538.215716	0.230437
538.431049	0.230903
538.646363	0.231344
538.861659	0.231221
539.076937	0.230610
539.292196	0.231568
539.507438	0.231995
539.722661	0.232052
539.937866	0.231951
540.153052	0.231523
540.368221	0.231612
540.583371	0.231674
540.798503	0.232332
541.013617	0.233360
541.228712	0.233349
541.443789	0.233722
541.658848	0.234192
541.873889	0.235051
542.088912	0.235715
542.303916	0.236588
542.518902	0.236649
542.733870	0.236556
542.948820	0.236920
543.163752	0.236840
543.378665	0.237359
543.593560	0.237589
543.808437	0.238243
544.023295	0.238403
544.238136	0.238659
544.452958	0.239147
544.667762	0.239816
544.882548	0.240236
545.097315	0.240552
545.312064	0.240674
545.526795	0.240570
545.741508	0.241078
545.956203	0.241140
546.170879	0.241331
546.385537	0.241655
546.600177	0.241694
546.814799	0.241303
547.029402	0.241377
547.243988	0.241846
547.458555	0.242506
547.673103	0.242304
547.887634	0.242542
548.102146	0.242933
548.316640	0.243633
548.531116	0.243927
548.745574	0.244542
548.960013	0.244874
549.174435	0.244644
549.388838	0.244645
549.603222	0.244958
549.817589	0.246018
550.031937	0.246481
550.246267	0.246545
550.460579	0.246829
550.674873	0.246738
550.889148	0.247322
551.103405	0.247785
551.317644	0.248175
551.531865	0.248350
551.746068	0.247880
551.960252	0.247781
552.174418	0.248447
552.388566	0.248682
552.602696	0.249233
552.816807	0.249128
553.030900	0.249112
553.244975	0.248932
553.459032	0.249241
553.673070	0.249737
553.887091	0.249962
554.101093	0.250013
554.315077	0.250517
554.529042	0.250961
554.742990	0.251527
554.956919	0.252618
555.170830	0.253423
555.384722	0.253698
555.598597	0.253823
555.812453	0.254669
556.026291	0.254584
556.240111	0.254150
556.453913	0.254447
556.667696	0.254741
556.881461	0.254433
557.095208	0.254564
557.308937	0.254980
557.522647	0.255123
557.736339	0.255053
557.950013	0.255495
558.163669	0.256264
558.377307	0.256281
558.590926	0.256326
558.804527	0.257111
559.018110	0.257218
559.231675	0.257251
559.445221	0.257458
559.658749	0.257333
559.872259	0.257256
560.085751	0.257286
560.299225	0.257562
560.512680	0.257829
560.726117	0.257878
560.939536	0.258266
561.152937	0.258595
561.366319	0.258829
561.579683	0.259189
561.793029	0.259349
562.006357	0.259719
562.219667	0.260206
562.432958	0.260468
562.646231	0.260284
562.859486	0.260268
563.072723	0.260410
563.285941	0.260298
563.499141	0.260314
563.712323	0.260491
563.925487	0.260498
564.138632	0.259900
564.351760	0.260161
564.564869	0.260337
564.777960	0.260313
564.991032	0.260157
565.204087	0.260595
565.417123	0.260745
565.630141	0.261226
565.843140	0.261500
566.056122	0.262113
566.269085	0.262196
566.482030	0.262226
566.694957	0.262553
566.907866	0.262853
567.120756	0.263402
567.333628	0.263830
567.546482	0.263779
567.759318	0.264098
567.972135	0.264357
568.184935	0.264555
568.397716	0.265124
568.610478	0.265786
568.823223	0.266386
569.035949	0.266881
569.248657	0.266995
569.461347	0.267112
569.674019	0.266982
569.886672	0.267133
570.099308	0.267239
570.311925	0.267732
570.524523	0.267288
570.737104	0.267328
570.949666	0.266892
571.162210	0.266904
571.374736	0.267179
571.587244	0.267607
571.799733	0.267795
572.012205	0.268083
572.224658	0.267869
572.437092	0.268471
572.649509	0.268302
572.861907	0.268599
573.074287	0.268690
573.286649	0.269119
573.498993	0.269763
573.711318	0.270230
573.923625	0.270126
574.135914	0.270229
574.348185	0.270800
574.560438	0.271312
574.772672	0.271219
574.984888	0.271636
575.197086	0.271350
575.409266	0.271064
575.621427	0.270529
575.833570	0.270679
576.045695	0.270725
576.257802	0.270905
576.469890	0.271188
576.681961	0.271482
576.894013	0.271616
577.106046	0.271984
577.318062	0.272056
577.530059	0.272604
577.742039	0.272846
577.954000	0.273101
578.165942	0.272891
578.377867	0.272652
578.589773	0.272814
578.801661	0.273386
579.013531	0.273426
579.225382	0.273244
579.437216	0.273324
579.649031	0.273734
579.860828	0.273965
580.072606	0.274358
580.284367	0.274685
580.496109	0.274924
580.707833	0.274577
580.919539	0.275113
581.131227	0.275644
581.342896	0.275851
581.554547	0.276031
581.766180	0.275904
581.977795	0.275483
582.189391	0.275451
582.400969	0.275725
582.612529	0.276181
582.824071	0.276116
583.035595	0.276153
583.247100	0.276025
583.458587	0.275980
583.670056	0.276269
583.881506	0.276775
584.092939	0.277340
584.304353	0.277095
584.515749	0.277678
584.727127	0.278121
584.938486	0.278347
585.149828	0.278821
585.361151	0.279347
585.572456	0.279404
585.783742	0.279187
585.995011	0.279362
586.206261	0.279905
586.417493	0.279943
586.628706	0.279877
586.839902	0.280367
587.051079	0.280515
587.262238	0.280193
587.473379	0.280906
587.684502	0.281680
587.895606	0.282368
588.106692	0.282695
588.317760	0.282580
588.528810	0.283052
588.739841	0.283205
588.950855	0.283665
589.161850	0.284107
589.372827	0.284438
589.583785	0.284369
589.794726	0.283879
590.005648	0.283792
590.216552	0.283558
590.427437	0.283367
590.638305	0.283532
590.849154	0.283371
591.059985	0.283211
591.270798	0.282985
591.481592	0.282801
591.692369	0.283132
591.903127	0.283512
592.113867	0.284197
592.324588	0.284502
592.535292	0.284582
592.745977	0.284876
592.956644	0.285305
593.167293	0.285932
593.377923	0.286485
593.588536	0.286501
593.799130	0.286712
594.009706	0.286891
594.220263	0.286950
594.430803	0.287205
594.641324	0.287152
594.851827	0.287340
595.062312	0.287145
595.272778	0.287714
595.483227	0.288120
595.693657	0.287843
595.904069	0.287532
596.114462	0.288067
596.324838	0.288075
596.535195	0.289101
596.745534	0.289306
596.955855	0.289545
597.166157	0.289214
597.376441	0.289625
597.586707	0.290253
597.796955	0.290940
598.007185	0.291146
598.217396	0.291249
598.427589	0.290764
598.637764	0.291161
598.847921	0.291552
599.058060	0.292110
599.268180	0.291659
599.478282	0.291960
599.688366	0.291943
599.898431	0.292127
600.108479	0.292412
600.318508	0.292812
600.528519	0.293164
600.738511	0.293118
600.948486	0.293270
601.158442	0.293544
601.368380	0.293835
601.578300	0.294276
601.788202	0.294342
601.998085	0.294535
602.207950	0.294465
602.417797	0.294391
602.627626	0.294569
602.837436	0.294517
603.047228	0.294261
603.257002	0.294276
603.466758	0.294502
603.676496	0.294743
603.886215	0.294897
604.095916	0.295095
604.305599	0.295535
604.515264	0.295901
604.724910	0.296007
604.934538	0.296916
605.144148	0.296946
605.353740	0.296569
605.563314	0.296398
605.772869	0.296873
605.982406	0.297088
606.191925	0.296683
606.401425	0.296625
606.610908	0.297026
606.820372	0.297088
607.029818	0.297490
607.239246	0.298023
607.448655	0.298182
607.658047	0.297993
607.867420	0.298464
608.076775	0.299060
608.286111	0.299412
608.495430	0.299059
608.704730	0.298805
608.914012	0.298965
609.123275	0.298898
609.332521	0.299347
609.541748	0.299500
609.750957	0.299475
609.960148	0.299650
610.169321	0.299628
610.378475	0.300198
610.587611	0.300679
610.796729	0.300870
611.005829	0.300902
611.214910	0.301102
611.423974	0.301714
611.633019	0.302086
611.842045	0.302233
612.051054	0.302529
612.260044	0.302945
612.469017	0.303149
612.677970	0.303117
612.886906	0.303836
613.095824	0.304050
613.304723	0.303996
613.513604	0.303887
613.722467	0.303773
613.931311	0.303434
614.140138	0.303248
614.348946	0.303430
614.557736	0.303671
614.766507	0.303441
614.975261	0.303371
615.183996	0.303561
615.392713	0.303986
615.601412	0.303898
615.810092	0.304465
616.018754	0.304810
616.227399	0.304917
616.436024	0.304727
616.644632	0.304906
616.853222	0.304860
617.061793	0.304779
617.270346	0.304367
617.478880	0.304891
617.687397	0.305201
617.895895	0.304985
618.104375	0.305204
618.312837	0.305223
618.521281	0.305288
618.729706	0.305557
618.938113	0.305801
619.146502	0.306191
619.354873	0.305770
619.563226	0.305944
619.771560	0.306488
619.979876	0.306754
620.188174	0.307262
620.396453	0.307394
620.604715	0.307479
620.812958	0.307535
621.021183	0.307848
621.229390	0.308512
621.437578	0.308230
621.645748	0.308181
621.853900	0.308167
622.062034	0.308238
622.270150	0.308609
622.478247	0.309259
622.686326	0.309450
622.894387	0.309582
623.102430	0.309986
623.310454	0.310666
623.518461	0.311181
623.726449	0.311500
623.934418	0.311671
624.142370	0.311816
624.350303	0.311677
624.558218	0.312117
624.766115	0.312228
624.973994	0.312312
625.181855	0.312208
625.389697	0.312173
625.597521	0.312310
625.805327	0.312493
626.013114	0.312828
626.220883	0.313019
626.428634	0.312952
626.636367	0.312721
626.844082	0.312734
627.051778	0.313012
627.259457	0.313261
627.467117	0.313346
627.674758	0.313393
627.882382	0.313207
628.089987	0.313280
628.297574	0.313295
628.505143	0.313970
628.712694	0.313950
628.920226	0.314145
629.127740	0.314071
629.335236	0.314224
629.542714	0.314229
629.750174	0.314301
629.957615	0.314581
630.165038	0.314681
630.372443	0.314623
630.579829	0.314724
630.787198	0.314827
630.994548	0.314970
631.201880	0.314931
631.409194	0.315225
631.616489	0.315519
631.823766	0.315603
632.031025	0.316084
632.238266	0.316310
632.445489	0.316727
632.652693	0.316992
632.859879	0.317313
633.067047	0.317743
633.274197	0.317990
633.481329	0.318347
633.688442	0.318566
633.895537	0.319032
634.102614	0.319172
634.309672	0.319251
634.516713	0.319284
634.723735	0.319229
634.930739	0.319494
635.137724	0.319780
635.344692	0.319615
635.551641	0.320009
635.758572	0.319541
635.965485	0.319673
636.172379	0.319976
636.379256	0.320036
636.586114	0.320498
636.792954	0.320521
636.999775	0.320913
637.206579	0.321462
637.413364	0.321536
637.620131	0.321990
637.826880	0.322271
638.033610	0.322445
638.240323	0.322950
638.447017	0.322747
638.653692	0.322792
638.860350	0.322858
639.066990	0.322781
639.273611	0.322874
639.480214	0.323002
639.686798	0.323203
639.893365	0.323310
640.099913	0.323407
640.306443	0.324072
640.512955	0.324125
640.719449	0.324396
640.925924	0.324700
641.132381	0.324797
641.338820	0.324744
641.545241	0.324911
641.751644	0.325203
641.958028	0.325118
642.164394	0.325182
642.370742	0.325342
642.577071	0.325288
642.783383	0.325347
642.989676	0.325611
643.195951	0.326070
643.402207	0.326231
643.608446	0.326433
643.814666	0.326478
644.020868	0.326474
644.227052	0.326993
644.433218	0.327313
644.639365	0.327368
644.845494	0.327617
645.051605	0.327498
645.257698	0.327790
645.463772	0.327805
645.669828	0.328285
645.875866	0.328520
646.081886	0.328507
646.287888	0.328430
646.493871	0.328801
646.699836	0.328783
646.905783	0.329264
647.111712	0.329474
647.317622	0.329721
647.523514	0.330148
647.729388	0.330562
647.935244	0.330919
648.141082	0.331306
648.346901	0.331769
648.552702	0.331851
648.758485	0.332046
648.964250	0.331867
649.169996	0.332309
649.375724	0.332130
649.581434	0.332050
649.787126	0.332454
649.992800	0.332498
650.198455	0.332589
650.404092	0.333116
650.609711	0.333505
650.815311	0.333979
651.020894	0.333903
651.226458	0.334424
651.432004	0.334872
651.637532	0.335036
651.843041	0.335694
652.048532	0.335656
652.254006	0.335735
652.459460	0.335918
652.664897	0.336391
652.870315	0.336953
653.075716	0.337047
653.281097	0.337162
653.486461	0.337414
653.691807	0.337502
653.897134	0.338055
654.102443	0.338497
654.307734	0.338758
654.513006	0.338824
654.718261	0.339093
654.923497	0.339160
655.128715	0.339330
655.333915	0.339566
655.539096	0.339959
655.744259	0.340362
655.949404	0.340789
656.154531	0.340905
656.359640	0.341182
656.564730	0.341352
656.769802	0.341817
656.974856	0.342112
657.179892	0.342191
657.384909	0.342264
657.589908	0.342113
657.794889	0.342378
657.999852	0.342790
658.204797	0.342787
658.409723	0.342934
658.614631	0.343296
658.819521	0.343513
659.024393	0.343830
659.229246	0.344135
659.434081	0.344456
659.638898	0.344511
659.843697	0.344375
660.048478	0.344899
660.253240	0.344991
660.457984	0.345137
660.662710	0.345302
660.867417	0.345505
661.072107	0.345390
661.276778	0.345577
661.481431	0.345554
661.686066	0.345765
661.890682	0.345914
662.095281	0.346198
662.299861	0.346051
662.504422	0.346364
662.708966	0.346495
662.913491	0.346657
663.117999	0.347043
663.322488	0.347583
663.526958	0.348032
663.731411	0.348328
663.935845	0.348600
664.140261	0.349392
664.344659	0.349877
664.549038	0.350410
664.753400	0.350892
664.957743	0.351187
665.162068	0.351277
665.366375	0.351607
665.570663	0.351745
665.774933	0.351797
665.979185	0.352067
666.183419	0.352200
666.387635	0.352271
666.591832	0.352540
666.796011	0.352604
667.000172	0.352970
667.204315	0.353150
667.408439	0.353246
667.612545	0.353454
667.816634	0.353326
668.020703	0.353479
668.224755	0.353769
668.428788	0.353998
668.632803	0.354496
668.836800	0.354465
669.040779	0.354570
669.244739	0.354965
669.448681	0.355220
669.652605	0.355312
669.856511	0.355512
670.060399	0.355666
670.264268	0.355944
670.468119	0.355850
670.671952	0.356101
670.875767	0.356225
671.079563	0.356596
671.283341	0.356846
671.487101	0.357402
671.690843	0.357792
671.894567	0.357745
672.098272	0.358077
672.301959	0.358668
672.505628	0.358829
672.709278	0.359250
672.912911	0.359277
673.116525	0.359508
673.320121	0.359445
673.523699	0.359775
673.727258	0.359908
673.930799	0.360085
674.134322	0.359982
674.337827	0.360347
674.541314	0.360933
674.744782	0.361323
674.948232	0.361623
675.151664	0.361876
675.355078	0.361765
675.558474	0.362522
675.761851	0.362819
675.965210	0.363175
676.168551	0.363546
676.371873	0.363336
676.575178	0.363197
676.778464	0.363405
676.981732	0.363828
677.184981	0.363902
677.388213	0.363985
677.591426	0.363867
677.794621	0.364129
677.997798	0.363994
678.200956	0.364267
678.404097	0.364780
678.607219	0.365270
678.810323	0.365545
679.013408	0.366150
679.216476	0.366236
679.419525	0.366539
679.622556	0.366693
679.825569	0.367196
680.028563	0.367489
680.231540	0.367488
680.434498	0.367546
680.637438	0.367444
680.840359	0.367665
681.043263	0.368037
681.246148	0.368227
681.449015	0.368307
681.651864	0.368414
681.854694	0.368606
682.057506	0.368989
682.260301	0.369264
682.463076	0.369788
682.665834	0.369959
682.868573	0.370151
683.071295	0.370463
683.273998	0.370766
683.476682	0.370996
683.679349	0.371380
683.881997	0.371536
684.084627	0.371724
684.287239	0.371841
684.489833	0.371934
684.692408	0.372067
684.894965	0.372393
685.097504	0.372882
685.300025	0.373017
685.502527	0.372841
685.705012	0.373088
685.907478	0.373295
686.109925	0.373520
686.312355	0.373747
686.514766	0.374148
686.717159	0.374308
686.919534	0.374420
687.121891	0.374690
687.324230	0.375334
687.526550	0.375775
687.728852	0.375794
687.931136	0.376235
688.133401	0.376441
688.335649	0.376475
688.537878	0.376530
688.740089	0.376689
688.942281	0.377116
689.144456	0.376989
689.346612	0.376847
689.548750	0.377248
689.750870	0.377444
689.952971	0.377845
690.155055	0.378083
690.357120	0.378301
690.559167	0.378691
690.761195	0.378952
690.963206	0.379241
691.165198	0.379375
691.367172	0.379402
691.569128	0.379028
691.771065	0.379041
691.972984	0.379241
692.174885	0.379728
692.376768	0.379609
692.578633	0.379835
692.780479	0.379818
692.982308	0.380070
693.184118	0.380777
693.385909	0.381169
693.587683	0.381495
693.789438	0.381561
693.991175	0.381642
694.192894	0.381876
694.394595	0.381655
694.596277	0.382139
694.797941	0.382335
694.999587	0.382189
695.201215	0.382597
695.402824	0.382547
695.604416	0.382839
695.805989	0.382946
696.007543	0.383154
696.209080	0.383449
696.410598	0.383469
696.612099	0.383928
696.813580	0.383948
697.015044	0.384268
697.216490	0.384469
697.417917	0.384604
697.619326	0.384834
697.820717	0.385102
698.022089	0.385421
698.223444	0.385737
698.424780	0.385551
698.626098	0.385773
698.827397	0.385819
699.028679	0.385870
699.229942	0.386039
699.431187	0.386187
699.632414	0.386178
699.833622	0.386158
700.034813	0.386366
700.235985	0.386813
700.437139	0.387044
700.638274	0.387135
700.839392	0.387308
701.040491	0.387622
701.241572	0.387958
701.442635	0.388129
701.643679	0.388295
701.844706	0.388163
702.045714	0.388246
702.246704	0.388396
702.447675	0.388157
702.648629	0.388295
702.849564	0.388386
703.050481	0.388173
703.251380	0.388255
703.452260	0.388190
703.653122	0.388416
703.853966	0.388528
704.054792	0.388375
704.255600	0.388625
704.456389	0.388570
704.657160	0.388398
704.857913	0.388288
705.058648	0.388345
705.259365	0.388491
705.460063	0.388415
705.660743	0.388271
705.861405	0.388287
706.062048	0.388361
706.262674	0.388706
706.463281	0.388778
706.663870	0.388799
706.864441	0.388890
707.064993	0.388815
707.265527	0.388846
707.466043	0.388969
707.666541	0.389136
707.867021	0.389182
708.067482	0.389080
708.267925	0.389071
708.468350	0.389380
708.668757	0.389344
708.869145	0.389673
709.069516	0.389674
709.269868	0.389706
709.470201	0.389759
709.670517	0.389956
709.870814	0.389885
710.071093	0.390000
710.271354	0.389949
710.471597	0.390040
710.671821	0.390013
710.872028	0.390120
711.072216	0.390154
711.272385	0.390136
711.472537	0.389910
711.672670	0.390147
711.872785	0.390217
712.072882	0.390322
712.272961	0.390264
712.473021	0.390413
712.673063	0.390451
712.873087	0.390385
713.073093	0.390433
713.273081	0.390133
713.473050	0.389995
713.673001	0.389914
713.872934	0.389594
714.072849	0.389353
714.272745	0.389192
714.472623	0.389339
714.672483	0.389357
714.872325	0.389146
715.072148	0.389570
715.271954	0.389753
715.471741	0.389835
715.671509	0.390148
715.871260	0.390378
716.070992	0.390114
716.270707	0.389776
716.470403	0.389552
716.670080	0.389785
716.869740	0.389466
717.069381	0.389344
717.269004	0.388958
717.468609	0.388844
717.668195	0.388598
717.867764	0.388436
718.067314	0.388516
718.266846	0.388676
718.466360	0.388535
718.665855	0.388683
718.865332	0.388544
719.064791	0.388633
719.264232	0.388525
719.463655	0.388561
719.663059	0.388879
719.862445	0.388774
720.061813	0.388830
720.261163	0.388741
720.460494	0.388480
720.659807	0.388394
720.859102	0.388276
721.058379	0.388017
721.257638	0.387865
721.456878	0.387708
721.656100	0.387178
721.855304	0.386853
722.054490	0.386457
722.253657	0.386459
722.452806	0.386531
722.651937	0.386630
722.851050	0.386665
723.050145	0.386555
723.249221	0.386152
723.448279	0.386527
723.647319	0.386334
723.846340	0.386589
724.045344	0.386628
724.244329	0.386240
724.443296	0.386018
724.642245	0.386020
724.841175	0.386039
725.040088	0.386277
725.238982	0.386034
725.437857	0.385865
725.636715	0.385772
725.835554	0.385711
726.034376	0.385476
726.233179	0.385187
726.431963	0.384668
726.630730	0.384395
726.829478	0.384141
727.028208	0.383984
727.226920	0.384091
727.425614	0.383901
727.624289	0.383734
727.822946	0.383727
728.021585	0.383296
728.220206	0.383388
728.418808	0.383029
728.617392	0.382749
728.815958	0.382456
729.014506	0.382137
729.213036	0.381766
729.411547	0.381289
729.610040	0.381344
729.808515	0.381470
730.006972	0.381239
730.205410	0.381446
730.403831	0.381114
730.602233	0.381136
730.800616	0.381175
730.998982	0.380944
731.197329	0.381042
731.395658	0.380419
731.593969	0.380467
731.792262	0.380037
731.990536	0.379659
732.188793	0.379601
732.387031	0.379399
732.585250	0.379048
732.783452	0.378972
732.981635	0.378503
733.179800	0.378443
733.377947	0.377983
733.576076	0.378162
733.774186	0.378237
733.972278	0.378204
734.170352	0.378040
734.368408	0.377723
734.566446	0.377627
734.764465	0.377395
734.962466	0.377310
735.160449	0.377026
735.358413	0.376803
735.556360	0.376323
735.754288	0.376142
735.952198	0.375628
736.150090	0.375312
736.347963	0.374958
736.545818	0.375038
736.743655	0.374832
736.941474	0.375090
737.139275	0.374882
737.337057	0.374718
737.534821	0.374308
737.732567	0.374136
737.930295	0.373879
738.128005	0.373558
738.325696	0.372963
738.523369	0.372580
738.721024	0.372140
738.918660	0.372020
739.116279	0.371543
739.313879	0.371469
739.511461	0.371535
739.709024	0.371637
739.906570	0.371762
740.104097	0.371755
740.301606	0.371748
740.499097	0.371659
740.696569	0.371250
740.894024	0.371475
741.091460	0.370943
741.288878	0.370694
741.486277	0.370476
741.683659	0.369983
741.881022	0.369840
742.078367	0.369759
742.275694	0.369338
742.473002	0.369115
742.670293	0.368828
742.867565	0.368876
743.064819	0.368572
743.262054	0.368141
743.459272	0.368374
743.656471	0.367961
743.853652	0.367579
744.050815	0.367317
744.247959	0.367280
744.445085	0.366737
744.642194	0.366659
744.839283	0.366568
745.036355	0.366575
745.233408	0.365983
745.430444	0.365859
745.627461	0.365584
745.824459	0.365366
746.021440	0.365259
746.218402	0.365300
746.415346	0.364776
746.612272	0.364583
746.809180	0.364299
747.006069	0.364348
747.202940	0.364268
747.399793	0.363950
747.596628	0.363590
747.793444	0.363039
747.990243	0.362640
748.187023	0.362695
748.383784	0.362300
748.580528	0.361966
748.777253	0.361592
748.973960	0.361579
749.170649	0.361257
749.367320	0.361239
749.563973	0.361065
749.760607	0.360589
749.957223	0.360291
750.153821	0.360278
750.350400	0.359779
750.546962	0.359202
750.743505	0.358614
750.940030	0.358401
751.136536	0.357983
751.333025	0.357532
751.529495	0.357433
751.725947	0.356723
751.922381	0.356476
752.118796	0.356536
752.315194	0.356294
752.511573	0.355770
752.707934	0.355632
752.904276	0.355540
753.100601	0.355594
753.296907	0.355358
753.493195	0.355264
753.689465	0.354801
753.885716	0.354529
754.081949	0.354384
754.278164	0.354320
754.474361	0.353994
754.670540	0.353752
754.866700	0.353424
755.062843	0.353311
755.258967	0.353310
755.455072	0.352834
755.651160	0.352556
755.847229	0.352249
756.043280	0.351929
756.239313	0.351770
756.435328	0.351625
756.631324	0.351371
756.827302	0.351113
757.023262	0.350619
757.219204	0.350566
757.415127	0.350261
757.611033	0.349983
757.806920	0.349847
758.002788	0.349245
758.198639	0.348789
758.394471	0.348248
758.590286	0.347933
758.786081	0.347725
758.981859	0.347299
759.177619	0.347271
759.373360	0.347060
759.569083	0.346882
759.764788	0.347019
759.960474	0.347068
760.156143	0.347064
760.351793	0.346988
760.547425	0.346984
760.743038	0.346904
760.938634	0.346490
761.134211	0.346424
761.329770	0.346373
761.525311	0.346343
761.720833	0.346223
761.916338	0.346284
762.111824	0.345978
762.307292	0.346007
762.502741	0.345772
762.698173	0.345913
762.893586	0.345625
763.088981	0.345146
763.284358	0.344779
763.479716	0.344477
763.675057	0.344025
763.870379	0.343865
764.065683	0.343371
764.260968	0.343472
764.456236	0.343186
764.651485	0.343311
764.846716	0.343455
765.041929	0.343539
765.237123	0.343230
765.432299	0.343031
765.627457	0.342971
765.822597	0.342863
766.017719	0.342688
766.212822	0.342503
766.407907	0.342151
766.602974	0.341832
766.798023	0.341579
766.993054	0.341690
767.188066	0.342110
767.383060	0.342040
767.578036	0.341828
767.772993	0.341698
767.967933	0.341816
768.162854	0.341787
768.357757	0.341860
768.552642	0.341618
768.747508	0.341228
768.942356	0.340764
769.137186	0.340408
769.331998	0.340542
769.526792	0.340331
769.721567	0.340127
769.916324	0.340125
770.111063	0.340163
770.305784	0.340103
770.500486	0.339982
770.695171	0.339765
770.889837	0.340002
771.084484	0.339601
771.279114	0.339501
771.473725	0.339059
771.668318	0.338975
771.862893	0.338696
772.057450	0.338642
772.251988	0.338540
772.446509	0.338380
772.641011	0.338261
772.835494	0.338318
773.029960	0.338299
773.224407	0.338581
773.418836	0.338459
773.613247	0.338409
773.807640	0.338342
774.002014	0.338350
774.196370	0.338346
774.390708	0.338310
774.585028	0.338159
774.779330	0.337855
774.973613	0.337701
775.167878	0.337659
775.362125	0.337717
775.556354	0.337604
775.750564	0.337718
775.944756	0.337870
776.138930	0.337636
776.333086	0.337895
776.527223	0.338247
776.721343	0.338418
776.915444	0.338617
777.109526	0.338291
777.303591	0.338240
777.497637	0.338160
777.691666	0.338084
777.885676	0.338414
778.079667	0.338522
778.273641	0.338363
778.467596	0.338505
778.661533	0.338181
778.855452	0.338248
779.049352	0.338614
779.243235	0.338589
779.437099	0.338486
779.630945	0.337976
779.824773	0.337650
780.018582	0.337543
780.212373	0.337148
780.406146	0.337260
780.599901	0.337267
780.793638	0.336847
780.987356	0.336599
781.181056	0.336462
781.374738	0.336568
781.568402	0.336404
781.762047	0.336356
781.955674	0.336159
782.149283	0.335739
782.342874	0.335777
782.536447	0.335969
782.730001	0.336166
782.923537	0.336330
783.117055	0.336726
783.310555	0.337071
783.504036	0.337601
783.697499	0.337715
783.890944	0.338024
784.084371	0.337866
784.277780	0.337523
784.471170	0.337549
784.664542	0.337633
784.857896	0.337375
785.051231	0.337027
785.244549	0.336531
785.437848	0.336594
785.631129	0.336690
785.824392	0.336932
786.017636	0.337155
786.210863	0.337208
786.404071	0.337329
786.597260	0.337469
786.790432	0.337627
786.983585	0.337885
787.176721	0.337961
787.369838	0.338015
787.562936	0.338054
787.756017	0.338134
787.949079	0.337909
788.142123	0.337736
788.335149	0.337663
788.528156	0.337957
788.721146	0.337956
788.914117	0.338204
789.107070	0.338268
789.300005	0.338665
789.492921	0.338859
789.685819	0.339211
789.878699	0.339410
790.071561	0.339690
790.264405	0.340234
790.457230	0.340655
790.650037	0.340534
790.842826	0.340595
791.035597	0.340353
791.228349	0.340629
791.421084	0.341084
791.613800	0.341140
791.806497	0.340900
791.999177	0.340724
792.191838	0.340409
792.384481	0.340725
792.577106	0.341145
792.769713	0.341658
792.962301	0.341622
793.154871	0.341452
793.347423	0.341623
793.539957	0.342138
793.732473	0.342073
793.924970	0.342476
794.117449	0.342671
794.309910	0.342408
794.502353	0.342388
794.694777	0.342745
794.887183	0.342962
795.079571	0.343205
795.271941	0.343304
795.464293	0.343396
795.656626	0.343550
795.848941	0.343524
796.041238	0.343982
796.233516	0.344213
796.425777	0.344020
796.618019	0.344211
796.810243	0.344259
797.002449	0.344459
797.194636	0.344722
797.386805	0.344740
797.578956	0.344967
797.771089	0.345048
797.963204	0.344846
798.155300	0.345302
798.347378	0.345234
798.539438	0.345176
798.731480	0.344821
798.923503	0.345113
799.115509	0.345429
799.307496	0.345553
799.499465	0.345663
799.691415	0.346111
799.883348	0.346171
800.075262	0.346758
800.267158	0.347375
800.459035	0.348282
800.650895	0.348501
800.842736	0.348628
801.034559	0.348847
801.226364	0.349173
801.418150	0.349653
801.609919	0.349975
801.801669	0.350110
801.993401	0.350425
802.185114	0.350274
802.376810	0.350652
802.568487	0.350914
802.760146	0.351308
802.951787	0.351389
803.143409	0.351272
803.335014	0.351425
803.526600	0.351516
803.718168	0.351539
803.909717	0.351754
804.101249	0.351852
804.292762	0.352154
804.484257	0.352377
804.675734	0.352939
804.867192	0.353528
805.058632	0.353830
805.250054	0.354295
805.441458	0.354794
805.632844	0.355167
805.824211	0.355404
806.015561	0.355803
806.206891	0.355998
806.398204	0.356119
806.589499	0.356215
806.780775	0.356902
806.972033	0.357108
807.163273	0.357355
807.354495	0.358143
807.545698	0.358469
807.736883	0.358828
807.928050	0.359533
808.119199	0.360007
808.310329	0.360273
808.501441	0.360430
808.692535	0.360670
808.883611	0.361107
809.074669	0.361031
809.265708	0.361321
809.456729	0.361461
809.647732	0.361615
809.838717	0.361693
810.029683	0.362026
810.220632	0.362423
810.411562	0.362922
810.602474	0.363267
810.793367	0.363862
810.984242	0.364387
811.175100	0.364887
811.365938	0.364957
811.556759	0.365439
811.747562	0.365618
811.938346	0.365999
812.129112	0.366225
812.319860	0.366665
812.510589	0.366987
812.701300	0.367454
812.891994	0.367820
813.082668	0.368554
813.273325	0.369144
813.463964	0.369517
813.654584	0.369571
813.845186	0.370240
814.035769	0.370114
814.226335	0.370291
814.416882	0.370572
814.607411	0.371118
814.797922	0.371578
814.988415	0.371822
815.178889	0.372628
815.369345	0.373319
815.559783	0.373526
815.750203	0.374140
815.940605	0.374727
816.130988	0.375090
816.321353	0.375192
816.511700	0.375509
816.702028	0.375868
816.892339	0.375784
817.082631	0.375808
817.272905	0.376248
817.463161	0.376708
817.653398	0.376894
817.843617	0.377154
818.033819	0.377707
818.224001	0.378096
818.414166	0.378702
818.604312	0.379378
818.794440	0.379862
818.984550	0.380054
819.174642	0.380840
819.364716	0.381496
819.554771	0.382010
819.744808	0.382247
819.934827	0.382407
820.124827	0.382765
820.314810	0.382849
820.504774	0.383525
820.694720	0.384329
820.884647	0.384374
821.074557	0.384652
821.264448	0.384928
821.454321	0.385648
821.644176	0.386257
821.834012	0.386848
822.023831	0.387471
822.213631	0.387387
822.403413	0.387751
822.593176	0.388378
822.782922	0.389001
822.972649	0.389387
823.162358	0.389745
823.352049	0.390098
823.541721	0.390209
823.731376	0.390873
823.921012	0.391777
824.110629	0.392192
824.300229	0.392751
824.489811	0.393533
824.679374	0.394122
824.868919	0.394514
825.058445	0.394923
825.247954	0.395531
825.437444	0.396000
825.626916	0.396439
825.816370	0.396801
826.005806	0.396566
826.195223	0.396461
826.384622	0.396985
826.574003	0.397433
826.763366	0.397965
826.952711	0.398246
827.142037	0.398508
827.331345	0.398994
827.520635	0.399445
827.709906	0.400194
827.899160	0.400906
828.088395	0.401332
828.277612	0.401874
828.466810	0.402351
828.655991	0.402876
828.845153	0.403573
829.034297	0.403761
829.223423	0.404262
829.412531	0.405167
829.601620	0.405833
829.790691	0.406326
829.979744	0.406762
830.168779	0.407505
830.357795	0.408329
830.546793	0.408742
830.735773	0.409346
830.924735	0.409831
831.113679	0.410136
831.302604	0.410568
831.491511	0.411276
831.680400	0.411963
831.869271	0.412325
832.058123	0.412714
832.246957	0.413243
832.435773	0.414287
832.624571	0.415128
832.813351	0.415527
833.002112	0.415962
833.190855	0.416365
833.379580	0.417026
833.568287	0.417597
833.756975	0.418055
833.945645	0.418639
834.134297	0.419154
834.322931	0.419864
834.511547	0.420890
834.700144	0.421697
834.888723	0.422172
835.077284	0.422502
835.265826	0.423486
835.454351	0.424240
835.642857	0.424954
835.831345	0.425250
836.019815	0.425426
836.208266	0.425674
836.396699	0.426027
836.585114	0.427019
836.773511	0.427568
836.961890	0.427925
837.150250	0.428371
837.338592	0.429216
837.526916	0.429876
837.715222	0.430596
837.903510	0.431454
838.091779	0.432022
838.280030	0.432100
838.468263	0.432690
838.656477	0.432880
838.844674	0.433434
839.032852	0.433753
839.221012	0.434504
839.409153	0.435054
839.597277	0.435388
839.785382	0.436005
839.973469	0.436725
840.161538	0.437329
840.349589	0.438218
840.537621	0.438980
840.725635	0.439755
840.913631	0.440484
841.101609	0.441297
841.289568	0.442056
841.477509	0.442872
841.665432	0.443906
841.853337	0.444960
842.041224	0.445322
842.229092	0.446053
842.416942	0.446365
842.604774	0.446826
842.792588	0.447038
842.980383	0.447385
843.168160	0.447988
843.355919	0.448244
843.543660	0.448904
843.731382	0.449751
843.919087	0.450152
844.106773	0.450732
844.294441	0.450991
844.482090	0.451765
844.669722	0.452336
844.857335	0.452379
845.044930	0.453304
845.232507	0.453757
845.420065	0.454177
845.607605	0.454450
845.795127	0.455204
845.982631	0.456068
846.170117	0.456348
846.357584	0.457228
846.545033	0.458182
846.732464	0.458530
846.919877	0.458645
847.107272	0.459438
847.294648	0.460224
847.482006	0.460585
847.669346	0.460996
847.856667	0.462147
848.043971	0.462699
848.231256	0.463378
848.418523	0.464401
848.605771	0.465353
848.793002	0.466133
848.980214	0.466996
849.167408	0.467666
849.354584	0.468232
849.541742	0.468599
849.728881	0.469004
849.916002	0.469500
850.103105	0.469829
850.290190	0.470635
850.477256	0.470866
850.664304	0.470773
850.851334	0.471612
851.038346	0.472727
851.225340	0.473394
851.412315	0.474307
851.599272	0.474881
851.786211	0.475654
851.973132	0.476077
852.160034	0.476911
852.346918	0.477824
852.533784	0.478001
852.720632	0.478179
852.907462	0.478732
853.094273	0.479363
853.281066	0.479923
853.467841	0.480201
853.654598	0.480603
853.841336	0.481468
854.028056	0.482164
854.214758	0.483210
854.401442	0.483638
854.588107	0.484263
854.774755	0.484907
854.961384	0.485816
855.147995	0.486391
855.334587	0.487025
855.521162	0.487544
855.707718	0.488029
855.894256	0.488525
856.080775	0.489398
856.267277	0.489914
856.453760	0.490161
856.640225	0.490272
856.826672	0.491044
857.013101	0.491608
857.199511	0.491798
857.385903	0.492372
857.572277	0.492694
857.758633	0.493527
857.944970	0.493945
858.131290	0.494690
858.317591	0.495158
858.503873	0.495554
858.690138	0.495802
858.876384	0.496745
859.062612	0.496979
859.248822	0.497485
859.435014	0.497856
859.621188	0.498646
859.807343	0.499030
859.993480	0.500000
860.179599	0.500680
860.365699	0.501173
860.551781	0.501814
860.737846	0.503509
860.923891	0.504291
861.109919	0.504290
861.295929	0.505074
861.481920	0.505504
861.667893	0.505714
861.853848	0.506201
862.039784	0.507045
862.225702	0.507452
862.411603	0.506943
862.597484	0.507388
862.783348	0.508108
862.969193	0.508715
863.155021	0.509654
863.340830	0.510261
863.526620	0.510418
863.712393	0.510917
863.898147	0.510991
864.083883	0.511969
864.269601	0.512300
864.455301	0.513563
864.640982	0.513012
864.826645	0.513148
865.012290	0.513152
865.197917	0.513883
865.383526	0.514242
865.569116	0.514943
865.754688	0.515292
865.940242	0.515661
866.125777	0.515486
866.311295	0.516696
866.496794	0.517247
866.682275	0.518079
866.867737	0.517721
867.053182	0.518174
867.238608	0.518290
867.424016	0.518820
867.609406	0.519185
867.794778	0.519965
867.980131	0.520624
868.165466	0.521644
868.350783	0.522284
868.536082	0.523120
868.721362	0.523887
868.906625	0.524508
869.091869	0.524753
869.277094	0.525636
869.462302	0.525952
869.647491	0.525797
869.832662	0.525695
870.017815	0.526002
870.202950	0.526456
870.388066	0.526239
870.573165	0.526504
870.758245	0.527258
870.943306	0.528035
871.128350	0.528123
871.313375	0.528261
871.498382	0.528477
871.683371	0.528992
871.868342	0.529951
872.053294	0.530622
872.238229	0.531193
872.423144	0.531554
872.608042	0.531319
872.792922	0.531576
872.977783	0.532391
873.162626	0.532905
873.347451	0.533227
873.532258	0.533113
873.717046	0.533379
873.901816	0.533076
874.086568	0.533094
874.271302	0.533340
874.456017	0.533991
874.640715	0.534280
874.825394	0.534427
875.010055	0.534838
875.194697	0.535566
875.379322	0.535532
875.563928	0.535993
875.748516	0.536206
875.933085	0.536999
876.117637	0.537273
876.302170	0.537359
876.486685	0.537585
876.671182	0.537553
876.855661	0.537384
877.040121	0.538451
877.224563	0.538726
877.408987	0.538987
877.593393	0.538642
877.777780	0.538728
877.962150	0.538926
878.146501	0.539034
878.330833	0.539639
878.515148	0.539984
878.699444	0.540260
878.883722	0.541178
879.067982	0.541200
879.252224	0.541448
879.436447	0.541796
879.620653	0.542057
879.804840	0.542410
879.989008	0.542027
880.173159	0.542421
880.357291	0.542071
880.541405	0.541751
880.725501	0.542108
880.909579	0.542545
881.093638	0.542648
881.277680	0.542840
881.461703	0.543223
881.645707	0.543527
881.829694	0.543154
882.013662	0.543611
882.197612	0.543733
882.381544	0.544024
882.565458	0.544203
882.749353	0.543444
882.933230	0.544156
883.117089	0.544107
883.300930	0.544178
883.484753	0.544990
883.668557	0.544784
883.852343	0.545958
884.036111	0.546029
884.219861	0.546221
884.403592	0.547175
884.587305	0.546787
884.771000	0.546504
884.954677	0.546533
885.138335	0.545801
885.321976	0.546680
885.505598	0.545803
885.689201	0.545684
885.872787	0.545809
886.056354	0.545872
886.239904	0.546052
886.423434	0.546103
886.606947	0.546238
886.790442	0.546622
886.973918	0.546127
887.157376	0.545788
887.340816	0.545863
887.524237	0.546126
887.707641	0.546376
887.891026	0.546422
888.074393	0.546743
888.257741	0.546771
888.441072	0.546532
888.624384	0.546614
888.807678	0.547032
888.990954	0.547497
889.174211	0.546859
889.357451	0.546669
889.540672	0.546468
889.723875	0.546664
889.907059	0.546987
890.090226	0.547723
890.273374	0.547343
890.456504	0.546820
890.639616	0.547013
890.822709	0.547271
891.005785	0.547267
891.188842	0.547034
891.371881	0.546907
891.554901	0.547416
891.737904	0.547595
891.920888	0.548134
892.103854	0.548307
892.286802	0.547224
892.469731	0.547176
892.652643	0.546807
892.835536	0.546789
893.018410	0.546415
893.201267	0.545614
893.384106	0.545047
893.566926	0.544303
893.749728	0.544345
893.932511	0.544939
894.115277	0.544599
894.298024	0.544309
894.480753	0.544580
894.663464	0.544763
894.846157	0.544609
895.028831	0.543507
895.211487	0.543516
895.394125	0.543370
895.576745	0.542635
895.759346	0.542278
895.941930	0.542725
896.124495	0.542054
896.307041	0.541749
896.489570	0.541240
896.672080	0.541328
896.854573	0.541015
897.037046	0.541283
897.219502	0.541567
897.401940	0.541772
897.584359	0.541164
897.766760	0.541406
897.949143	0.540652
898.131507	0.540813
898.313854	0.540570
898.496182	0.540968
898.678492	0.540540
898.860783	0.540441
899.043057	0.540274
899.225312	0.539744
899.407549	0.539154
899.589768	0.539450
899.771968	0.538921
899.954151	0.539626
900.136315	0.539303
900.318461	0.538366
900.500588	0.537906
900.682698	0.536989
900.864789	0.537013
901.046862	0.536521
901.228917	0.536113
901.410953	0.536034
901.592971	0.534817
901.774972	0.533541
901.956953	0.533542
902.138917	0.533379
902.320862	0.532815
902.502790	0.532826
902.684699	0.532746
902.866589	0.532334
903.048462	0.531885
903.230316	0.532010
903.412152	0.531625
903.593970	0.531305
903.775770	0.531127
903.957551	0.531430
904.139314	0.529871
904.321059	0.529680
904.502786	0.528614
904.684494	0.528514
904.866185	0.528058
905.047857	0.528017
905.229510	0.526742
905.411146	0.526150
905.592763	0.525486
905.774363	0.525469
905.955943	0.524785
906.137506	0.524955
906.319051	0.524118
906.500577	0.523333
906.682085	0.522955
906.863575	0.523426
907.045046	0.522425
907.226500	0.522147
907.407935	0.522084
907.589352	0.521425
907.770750	0.521248
907.952131	0.520586
908.133493	0.520137
908.314837	0.519963
908.496163	0.519367
908.677470	0.519032
908.858760	0.519044
909.040031	0.517867
909.221284	0.517515
909.402518	0.516745
909.583735	0.515379
909.764933	0.515320
909.946113	0.514216
910.127275	0.513434
910.308418	0.512335
910.489544	0.510708
910.670651	0.510534
910.851740	0.510464
911.032810	0.509805
911.213863	0.510145
911.394897	0.508507
911.575913	0.507729
911.756911	0.506400
911.937890	0.506181
912.118851	0.505459
912.299794	0.505320
912.480719	0.503725
912.661626	0.503081
912.842514	0.502326
913.023384	0.502197
913.204236	0.501338
913.385070	0.501132
913.565886	0.499999
913.746683	0.499913
913.927462	0.498389
914.108223	0.497894
914.288965	0.496896
914.469690	0.496277
914.650396	0.496152
914.831084	0.496010
915.011754	0.495339
915.192405	0.495303
915.373038	0.493965
915.553653	0.493719
915.734250	0.492973
915.914829	0.492232
916.095389	0.490966
916.275931	0.489742
916.456455	0.489779
916.636961	0.489672
916.817448	0.488468
916.997917	0.488055
917.178368	0.486883
917.358801	0.485778
917.539216	0.484875
917.719612	0.483718
917.899990	0.482409
918.080350	0.480147
918.260692	0.478863
918.441015	0.477540
918.621320	0.476221
918.801607	0.474743
918.981876	0.474483
919.162127	0.474044
919.342359	0.473526
919.522573	0.472717
919.702769	0.472266
919.882947	0.471751
920.063106	0.470931
920.243247	0.469809
920.423370	0.470316
920.603475	0.469084
920.783562	0.467078
920.963630	0.466233
921.143680	0.465346
921.323712	0.464083
921.503725	0.463005
921.683721	0.462585
921.863698	0.462207
922.043657	0.460343
922.223598	0.459644
922.403520	0.459586
922.583424	0.459145
922.763311	0.458290
922.943178	0.458059
923.123028	0.457328
923.302859	0.456167
923.482673	0.455012
923.662467	0.454946
923.842244	0.454033
924.022003	0.452177
924.201743	0.451001
924.381465	0.450298
924.561169	0.448982
924.740854	0.447535
924.920522	0.447672
925.100171	0.447468
925.279802	0.445863
925.459414	0.445320
925.639009	0.444638
925.818585	0.443373
925.998143	0.442259
926.177683	0.440789
926.357205	0.439726
926.536708	0.436585
926.716193	0.434865
926.895660	0.433703
927.075109	0.431563
927.254539	0.430596
927.433951	0.429023
927.613345	0.427452
927.792721	0.427230
927.972079	0.426045
928.151418	0.425063
928.330739	0.423484
928.510042	0.422012
928.689327	0.420781
928.868593	0.420062
929.047841	0.419789
929.227071	0.418813
929.406283	0.417322
929.585476	0.416053
929.764652	0.415703
929.943809	0.414937
930.122948	0.413829
930.302068	0.413723
930.481171	0.412531
930.660255	0.411687
930.839321	0.411073
931.018369	0.410005
931.197398	0.408833
931.376409	0.407835
931.555402	0.406735
931.734377	0.405436
931.913334	0.404018
932.092272	0.402665
932.271192	0.400942
932.450094	0.399308
932.628978	0.397343
932.807844	0.395491
932.986691	0.393148
933.165520	0.391498
933.344331	0.390645
933.523123	0.387508
933.701898	0.386193
933.880654	0.384918
934.059392	0.382862
934.238111	0.381759
934.416813	0.380261
934.595496	0.379866
934.774161	0.378041
934.952808	0.376845
935.131437	0.376811
935.310047	0.376059
935.488639	0.375110
935.667213	0.374247
935.845769	0.372582
936.024306	0.371975
936.202825	0.369764
936.381326	0.368921
936.559809	0.367116
936.738274	0.365901
936.916720	0.364602
937.095148	0.362203
937.273558	0.360773
937.451950	0.360791
937.630323	0.359429
937.808678	0.358835
937.987015	0.359102
938.165334	0.358380
938.343635	0.356010
938.521917	0.354573
938.700181	0.353451
938.878427	0.353620
939.056655	0.352312
939.234864	0.351426
939.413055	0.349539
939.591228	0.346537
939.769383	0.344532
939.947519	0.343996
940.125638	0.342807
940.303738	0.341878
940.481820	0.339750
940.659883	0.336650
940.837929	0.336399
941.015956	0.335827
941.193965	0.334567
941.371955	0.333800
941.549928	0.331721
941.727882	0.330665
941.905818	0.329314
942.083736	0.327097
942.261636	0.326123
942.439517	0.322764
942.617380	0.321415
942.795225	0.319323
942.973052	0.317484
943.150860	0.315978
943.328651	0.312965
943.506423	0.310650
943.684176	0.309312
943.861912	0.307072
944.039629	0.305641
944.217328	0.303275
944.395009	0.301456
944.572672	0.299437
944.750317	0.297158
944.927943	0.295425
945.105551	0.293811
945.283141	0.292359
945.460712	0.293270
945.638265	0.290344
945.815801	0.289446
945.993317	0.288344
946.170816	0.286719
946.348297	0.285416
946.525759	0.283766
946.703203	0.283366
946.880629	0.283000
947.058036	0.280152
947.235425	0.278918
947.412797	0.277214
947.590149	0.274781
947.767484	0.273369
947.944800	0.274593
948.122099	0.274640
948.299379	0.272341
948.476640	0.269840
948.653884	0.267840
948.831109	0.267639
949.008316	0.264094
949.185505	0.264539
949.362676	0.262721
949.539828	0.258782
949.716962	0.257555
949.894078	0.256036
950.071176	0.253439
950.248256	0.250991
950.425317	0.249466
950.602360	0.249034
950.779385	0.246302
950.956391	0.246981
951.133380	0.246549
951.310350	0.242762
951.487302	0.241500
951.664235	0.239720
951.841151	0.238077
952.018048	0.236206
952.194927	0.235599
952.371788	0.234958
952.548631	0.231224
952.725455	0.229789
952.902261	0.229436
953.079049	0.226663
953.255819	0.225646
953.432570	0.225676
953.609303	0.223163
953.786018	0.223689
953.962715	0.221095
954.139394	0.221047
954.316054	0.220378
954.492696	0.219153
954.669320	0.217972
954.845926	0.217054
955.022513	0.214489
955.199083	0.215105
955.375634	0.210135
955.552166	0.210637
955.728681	0.209570
955.905177	0.207360
956.081655	0.203126
956.258115	0.202518
956.434557	0.202209
956.610980	0.200935
956.787385	0.199050
956.963772	0.198707
957.140141	0.197980
957.316492	0.194459
957.492824	0.193316
957.669138	0.196215
957.845434	0.196257
958.021712	0.193311
958.197971	0.193914
958.374212	0.191925
958.550435	0.192444
958.726640	0.190589
958.902826	0.189310
959.078995	0.188647
959.255145	0.185250
959.431277	0.184835
959.607390	0.185626
959.783486	0.183746
959.959563	0.182636
960.135622	0.181104
960.311662	0.177564
960.487685	0.177948
960.663689	0.176344
960.839675	0.176141
961.015643	0.175030
961.191593	0.174577
961.367524	0.174409
961.543437	0.175545
961.719332	0.176337
961.895209	0.177398
962.071067	0.177250
962.246907	0.177330
962.422730	0.176711
962.598533	0.175142
962.774319	0.172302
962.950086	0.172607
963.125835	0.171565
963.301566	0.169323
963.477279	0.168693
963.652973	0.165350
963.828650	0.163992
964.004308	0.164823
964.179947	0.165093
964.355569	0.168886
964.531172	0.170138
964.706757	0.172645
964.882324	0.173213
965.057873	0.175784
965.233403	0.178288
965.408916	0.180618
965.584410	0.177408
965.759885	0.178129
965.935343	0.172674
966.110782	0.169109
966.286203	0.166719
966.461606	0.166484
966.636991	0.164118
966.812357	0.162349
966.987705	0.160761
967.163035	0.163327
967.338347	0.160773
967.513641	0.164063
967.688916	0.164796
967.864173	0.166399
968.039412	0.168390
968.214632	0.170185
968.389835	0.170737
968.565019	0.170341
968.740185	0.168723
968.915333	0.169567
969.090462	0.169075
969.265573	0.168803
969.440667	0.168250
969.615741	0.166418
969.790798	0.164502
969.965836	0.165043
970.140856	0.164145
970.315858	0.163900
970.490842	0.164192
970.665808	0.164300
970.840755	0.163280
971.015684	0.162628
971.190595	0.163017
971.365487	0.163221
971.540362	0.160800
971.715218	0.159813
971.890056	0.160350
972.064875	0.159725
972.239677	0.156557
972.414460	0.157822
972.589225	0.158207
972.763972	0.156787
972.938700	0.155866
973.113411	0.158360
973.288103	0.159904
973.462777	0.161625
973.637432	0.162609
973.812070	0.165940
973.986689	0.164103
974.161290	0.163638
974.335873	0.163486
974.510437	0.163503
974.684984	0.163856
974.859512	0.162132
975.034022	0.159477
975.208513	0.158644
975.382987	0.158694
975.557442	0.160109
975.731879	0.159252
975.906298	0.156745
976.080698	0.161330
976.255080	0.160086
976.429445	0.160113
976.603790	0.162139
976.778118	0.164163
976.952427	0.161764
977.126719	0.162523
977.300992	0.163193
977.475246	0.166065
977.649483	0.161661
977.823701	0.160248
977.997901	0.162704
978.172083	0.161409
978.346247	0.159320
978.520392	0.161979
978.694519	0.161093
978.868628	0.158910
979.042719	0.158076
979.216791	0.158154
979.390845	0.159735
979.564882	0.159045
979.738899	0.158152
979.912899	0.157641
980.086880	0.153624
980.260843	0.153855
980.434788	0.155390
980.608715	0.154899
980.782623	0.156067
980.956514	0.156287
981.130386	0.153810
981.304240	0.157018
981.478075	0.157888
981.651892	0.160540
981.825692	0.160170
981.999472	0.162335
982.173235	0.162598
982.346980	0.161176
982.520706	0.161599
982.694414	0.163879
982.868104	0.161620
983.041775	0.162199
983.215428	0.161509
983.389064	0.161347
983.562680	0.159469
983.736279	0.159232
983.909860	0.159775
984.083422	0.159911
984.256966	0.158506
984.430491	0.159181
984.603999	0.158525
984.777488	0.158032
984.950959	0.158676
985.124412	0.158886
985.297847	0.157825
985.471263	0.156667
985.644661	0.156765
985.818041	0.158709
985.991403	0.159959
986.164747	0.158100
986.338072	0.160854
986.511379	0.159781
986.684668	0.159675
986.857938	0.161055
987.031191	0.162598
987.204425	0.160989
987.377641	0.161472
987.550839	0.160049
987.724018	0.162826
987.897179	0.161677
988.070322	0.164438
988.243447	0.164571
988.416554	0.166387
988.589642	0.167607
988.762712	0.169990
988.935764	0.170979
989.108798	0.171486
989.281813	0.171226
989.454811	0.172083
989.627790	0.169076
989.800751	0.167285
989.973693	0.168246
990.146617	0.167729
990.319524	0.167833
990.492412	0.167099
990.665281	0.166116
990.838133	0.165882
991.010966	0.166027
991.183781	0.167916
991.356578	0.166524
991.529356	0.166839
991.702117	0.164438
991.874859	0.162624
992.047583	0.162849
992.220288	0.164539
992.392976	0.165044
992.565645	0.164178
992.738296	0.163736
992.910929	0.168739
993.083543	0.166198
993.256139	0.168342
993.428718	0.169819
993.601277	0.167326
993.773819	0.164691
993.946342	0.162919
994.118848	0.162746
994.291335	0.163057
994.463803	0.161870
994.636254	0.161467
994.808686	0.161596
994.981100	0.160878
995.153496	0.160048
995.325874	0.160634
995.498233	0.162788
995.670574	0.162722
995.842897	0.161026
996.015202	0.160131
996.187488	0.162886
996.359757	0.163315
996.532007	0.164201
996.704239	0.168743
996.876452	0.169159
997.048648	0.168595
997.220825	0.169776
997.392984	0.171751
997.565124	0.171084
997.737247	0.169657
997.909351	0.170734
998.081437	0.169170
998.253505	0.167738
998.425554	0.169191
998.597586	0.168559
998.769599	0.168455
998.941594	0.168027
999.113571	0.169828
999.285529	0.170406
999.457469	0.169425
999.629391	0.170145
999.801295	0.170953
999.973181	0.169975
1000.145048	0.169247
1000.316897	0.168834
1000.488728	0.168287
1000.660541	0.165732
1000.832335	0.165554
1001.004111	0.164592
1001.175869	0.164546
1001.347609	0.161487
1001.519331	0.161784
1001.691034	0.163487
1001.862719	0.162627
1002.034386	0.163132
1002.206035	0.164712
1002.377665	0.163774
1002.549277	0.163374
1002.720871	0.163205
1002.892447	0.165674
1003.064004	0.165366
1003.235544	0.164704
1003.407065	0.164347
1003.578568	0.165729
1003.750052	0.164856
1003.921519	0.165821
1004.092967	0.166887
1004.264397	0.168510
1004.435809	0.167492
1004.607202	0.168476
1004.778577	0.168913
1004.949934	0.171091
1005.121273	0.169622
1005.292594	0.171158
1005.463896	0.171862
1005.635180	0.170518
1005.806446	0.170715
1005.977694	0.170349
1006.148923	0.169342
1006.320135	0.168183
1006.491328	0.165519
1006.662503	0.164913
1006.833659	0.164518
1007.004798	0.163593
1007.175918	0.165830
1007.347020	0.163648
1007.518103	0.163628
1007.689169	0.165309
1007.860216	0.168243
1008.031245	0.169661
1008.202256	0.170182
1008.373248	0.168611
1008.544223	0.168641
1008.715179	0.167106
1008.886117	0.168268
1009.057036	0.167770
1009.227938	0.169015
1009.398821	0.167009
1009.569686	0.166241
1009.740533	0.165402
1009.911361	0.167114
1010.082172	0.167121
1010.252964	0.167034
1010.423738	0.166700
1010.594493	0.166969
1010.765231	0.164974
1010.935950	0.165314
1011.106651	0.165893
1011.277334	0.168843
1011.447998	0.167546
1011.618645	0.166516
1011.789273	0.166992
1011.959882	0.168075
1012.130474	0.168045
1012.301048	0.167460
1012.471603	0.166592
1012.642140	0.168850
1012.812658	0.166342
1012.983159	0.166965
1013.153641	0.168019
1013.324105	0.168522
1013.494551	0.168481
1013.664979	0.169977
1013.835388	0.170830
1014.005779	0.169100
1014.176152	0.166988
1014.346507	0.167813
1014.516843	0.166569
1014.687162	0.167078
1014.857462	0.166804
1015.027744	0.165364
1015.198007	0.163806
1015.368252	0.162599
1015.538480	0.164346
1015.708689	0.164457
1015.878879	0.162461
1016.049052	0.163935
1016.219206	0.164423
1016.389342	0.163734
1016.559460	0.163250
1016.729559	0.165779
1016.899641	0.165644
1017.069704	0.164035
1017.239749	0.162281
1017.409775	0.163406
1017.579784	0.162869
1017.749774	0.161106
1017.919746	0.160424
1018.089700	0.161491
1018.259635	0.158517
1018.429553	0.159382
1018.599452	0.162346
1018.769333	0.164408
1018.939195	0.166521
1019.109040	0.167920
1019.278866	0.167597
1019.448674	0.169989
1019.618464	0.169680
1019.788235	0.170545
1019.957989	0.169568
1020.127724	0.166438
1020.297441	0.164113
1020.467139	0.162215
1020.636820	0.160076
1020.806482	0.160917
1020.976126	0.160059
1021.145752	0.159125
1021.315359	0.158653
1021.484948	0.159275
1021.654519	0.161131
1021.824072	0.164281
1021.993607	0.163654
1022.163123	0.164374
1022.332621	0.164476
1022.502101	0.165614
1022.671563	0.166121
1022.841007	0.168013
1023.010432	0.168151
1023.179839	0.168455
1023.349228	0.165356
1023.518598	0.166116
1023.687951	0.165509
1023.857285	0.163626
1024.026601	0.160889
1024.195899	0.160369
1024.365178	0.160519
1024.534439	0.159523
1024.703682	0.159703
1024.872907	0.161516
1025.042114	0.161998
1025.211302	0.162049
1025.380472	0.164784
1025.549624	0.163882
1025.718758	0.164095
1025.887873	0.162652
1026.056970	0.162522
1026.226049	0.161127
1026.395110	0.161712
1026.564153	0.160105
1026.733177	0.162275
1026.902183	0.160780
1027.071171	0.162115
1027.240141	0.163413
1027.409092	0.162523
1027.578026	0.164520
1027.746940	0.165899
1027.915837	0.164008
1028.084716	0.163940
1028.253576	0.161636
1028.422418	0.162225
1028.591242	0.161667
1028.760048	0.160878
1028.928835	0.162065
1029.097604	0.161992
1029.266355	0.163573
1029.435088	0.163555
1029.603803	0.164914
1029.772499	0.166362
1029.941177	0.165336
1030.109837	0.165488
1030.278478	0.167126
1030.447102	0.166952
1030.615707	0.165535
1030.784294	0.162516
1030.952863	0.161952
1031.121413	0.161143
1031.289945	0.161595
1031.458460	0.162895
1031.626955	0.163078
1031.795433	0.163187
1031.963892	0.162194
1032.132334	0.163360
1032.300756	0.163876
1032.469161	0.163947
1032.637548	0.163629
1032.805916	0.163261
1032.974266	0.160663
1033.142598	0.160360
1033.310911	0.159032
1033.479207	0.159302
1033.647484	0.160324
1033.815743	0.160281
1033.983983	0.161230
1034.152206	0.161734
1034.320410	0.162546
1034.488596	0.164124
1034.656764	0.164072
1034.824914	0.163646
1034.993045	0.161882
1035.161158	0.160373
1035.329253	0.160092
1035.497330	0.159664
1035.665388	0.160605
1035.833428	0.159430
1036.001450	0.159527
1036.169454	0.160316
1036.337440	0.159798
1036.505407	0.162883
1036.673356	0.161606
1036.841287	0.160577
1037.009200	0.163379
1037.177094	0.162057
1037.344970	0.162909
1037.512828	0.162233
1037.680668	0.162380
1037.848489	0.162544
1038.016293	0.161006
1038.184078	0.160300
1038.351845	0.162195
1038.519593	0.159550
1038.687324	0.159777
1038.855036	0.158562
1039.022730	0.159681
1039.190406	0.156747
1039.358063	0.155599
1039.525702	0.156859
1039.693323	0.157181
1039.860926	0.157019
1040.028511	0.157879
1040.196077	0.158417
1040.363625	0.157637
1040.531155	0.156842
1040.698667	0.159968
1040.866161	0.160833
1041.033636	0.159157
1041.201093	0.159053
1041.368532	0.156817
1041.535952	0.156179
1041.703355	0.155577
1041.870739	0.155097
1042.038105	0.155471
1042.205452	0.154621
1042.372782	0.154979
1042.540093	0.154930
1042.707386	0.155754
1042.874661	0.159359
1043.041918	0.159772
1043.209156	0.161630
1043.376376	0.163105
1043.543578	0.165350
1043.710762	0.165217
1043.877927	0.166411
1044.045074	0.165798
1044.212203	0.164543
1044.379314	0.164494
1044.546407	0.163211
1044.713481	0.162468
1044.880537	0.162351
1045.047575	0.159757
1045.214595	0.160059
1045.381596	0.160057
1045.548579	0.161134
1045.715544	0.162504
1045.882491	0.159855
1046.049420	0.159651
1046.216330	0.158882
1046.383222	0.158211
1046.550096	0.159726
1046.716951	0.159696
1046.883789	0.159139
1047.050608	0.157867
1047.217409	0.158610
1047.384192	0.160479
1047.550956	0.161818
1047.717703	0.162474
1047.884431	0.163644
1048.051140	0.161233
1048.217832	0.162569
1048.384505	0.161098
1048.551161	0.165016
1048.717798	0.164035
1048.884416	0.161583
1049.051017	0.161570
1049.217599	0.160549
1049.384163	0.161351
1049.550709	0.163891
1049.717237	0.163166
1049.883746	0.164345
1050.050237	0.161911
1050.216710	0.164045
1050.383165	0.166566
1050.549601	0.167366
1050.716019	0.166885
1050.882420	0.164670
1051.048801	0.164988
1051.215165	0.164553
1051.381510	0.164796
1051.547837	0.165752
1051.714146	0.164007
1051.880437	0.163955
1052.046709	0.163852
1052.212964	0.165208
1052.379200	0.165855
1052.545417	0.163371
1052.711617	0.163841
1052.877798	0.162738
1053.043961	0.161787
1053.210106	0.164500
1053.376233	0.163265
1053.542341	0.162664
1053.708432	0.161115
1053.874504	0.161495
1054.040557	0.163096
1054.206593	0.161233
1054.372610	0.162599
1054.538609	0.166635
1054.704590	0.164680
1054.870553	0.165688
1055.036497	0.165209
1055.202424	0.167017
1055.368331	0.167210
1055.534221	0.167459
1055.700093	0.170114
1055.865946	0.168863
1056.031781	0.166108
1056.197598	0.164290
1056.363397	0.163500
1056.529177	0.163553
1056.694939	0.162718
1056.860683	0.166027
1057.026409	0.166314
1057.192116	0.166103
1057.357806	0.166341
1057.523477	0.169360
1057.689130	0.169585
1057.854764	0.169265
1058.020381	0.171200
1058.185979	0.172954
1058.351559	0.170031
1058.517120	0.169300
1058.682664	0.169446
1058.848189	0.171016
1059.013696	0.166382
1059.179185	0.167322
1059.344656	0.167252
1059.510108	0.169261
1059.675542	0.167976
1059.840958	0.167968
1060.006356	0.166609
1060.171735	0.166403
1060.337096	0.164776
1060.502439	0.166050
1060.667764	0.165687
1060.833071	0.165844
1060.998359	0.163776
1061.163629	0.163327
1061.328881	0.162305
1061.494115	0.164824
1061.659330	0.165023
1061.824527	0.166213
1061.989706	0.166534
1062.154867	0.168003
1062.320010	0.167618
1062.485134	0.167623
1062.650240	0.167078
1062.815328	0.169841
1062.980398	0.169171
1063.145449	0.170715
1063.310482	0.170281
1063.475497	0.169056
1063.640494	0.168897
1063.805473	0.170247
1063.970433	0.171851
1064.135375	0.173804
1064.300299	0.170965
1064.465204	0.171878
1064.630092	0.169417
1064.794961	0.168023
1064.959812	0.168497
1065.124645	0.169348
1065.289459	0.169174
1065.454256	0.166870
1065.619034	0.165814
1065.783793	0.166685
1065.948535	0.165991
1066.113258	0.166264
1066.277964	0.168767
1066.442651	0.170338
1066.607319	0.169080
1066.771970	0.170778
1066.936602	0.171876
1067.101216	0.173914
1067.265812	0.173997
1067.430389	0.173241
1067.594949	0.171594
1067.759490	0.172435
1067.924013	0.171129
1068.088518	0.169478
1068.253004	0.169190
1068.417472	0.169572
1068.581922	0.168883
1068.746354	0.167736
1068.910768	0.167316
1069.075163	0.168872
1069.239540	0.169409
1069.403899	0.171631
1069.568240	0.172904
1069.732562	0.171654
1069.896866	0.170664
1070.061152	0.170817
1070.225420	0.172804
1070.389670	0.175367
1070.553901	0.178422
1070.718114	0.176532
1070.882309	0.173439
1071.046486	0.173281
1071.210644	0.173620
1071.374784	0.173655
1071.538906	0.170816
1071.703010	0.170173
1071.867096	0.168939
1072.031163	0.166716
1072.195212	0.164976
1072.359243	0.164820
1072.523256	0.166333
1072.687250	0.162982
1072.851226	0.164090
1073.015184	0.166487
1073.179124	0.165656
1073.343045	0.165668
1073.506949	0.168406
1073.670834	0.171905
1073.834701	0.172694
1073.998549	0.169778
1074.162380	0.170899
1074.326192	0.169017
1074.489986	0.171453
1074.653761	0.172957
1074.817519	0.174376
1074.981258	0.170972
1075.144979	0.170224
1075.308682	0.171894
1075.472367	0.173971
1075.636033	0.176346
1075.799681	0.177807
1075.963311	0.175652
1076.126923	0.174920
1076.290516	0.174431
1076.454092	0.173900
1076.617649	0.172694
1076.781187	0.170689
1076.944708	0.171438
1077.108210	0.173338
1077.271695	0.172894
1077.435160	0.169123
1077.598608	0.168578
1077.762038	0.164444
1077.925449	0.165837
1078.088842	0.167054
1078.252217	0.167018
1078.415573	0.168358
1078.578912	0.168406
1078.742232	0.168738
1078.905534	0.173235
1079.068817	0.173505
1079.232083	0.174979
1079.395330	0.174028
1079.558559	0.172703
1079.721770	0.173390
1079.884962	0.172467
1080.048136	0.169817
1080.211293	0.170309
1080.374430	0.169622
1080.537550	0.176186
1080.700651	0.180013
1080.863735	0.180418
1081.026800	0.182619
1081.189846	0.184553
1081.352875	0.187430
1081.515885	0.189262
1081.678877	0.190910
1081.841851	0.190224
1082.004807	0.188915
1082.167744	0.189477
1082.330663	0.188508
1082.493564	0.189148
1082.656447	0.189067
1082.819312	0.186149
1082.982158	0.187227
1083.144986	0.184336
1083.307796	0.185813
1083.470587	0.179487
1083.633361	0.176762
1083.796116	0.176461
1083.958853	0.174425
1084.121571	0.174660
1084.284272	0.174455
1084.446954	0.175646
1084.609618	0.175617
1084.772264	0.173512
1084.934892	0.173439
1085.097501	0.171779
1085.260092	0.173779
1085.422665	0.172152
1085.585220	0.173051
1085.747756	0.174927
1085.910274	0.172658
1086.072774	0.172268
1086.235256	0.174706
1086.397720	0.177855
1086.560165	0.180289
1086.722592	0.180571
1086.885001	0.184263
1087.047392	0.182500
1087.209764	0.180012
1087.372119	0.180983
1087.534455	0.184365
1087.696772	0.182447
1087.859072	0.181300
1088.021353	0.180336
1088.183616	0.181665
1088.345861	0.179850
1088.508088	0.181322
1088.670296	0.181890
1088.832486	0.181025
1088.994658	0.179738
1089.156812	0.181868
1089.318948	0.182740
1089.481065	0.183228
1089.643164	0.182373
1089.805245	0.179197
1089.967308	0.178680
1090.129352	0.178343
1090.291378	0.180400
1090.453386	0.178124
1090.615376	0.175663
1090.777347	0.178208
1090.939301	0.178793
1091.101236	0.178843
1091.263153	0.181061
1091.425051	0.179364
1091.586932	0.182925
1091.748794	0.180042
1091.910638	0.183464
1092.072463	0.184187
1092.234271	0.181349
1092.396060	0.180499
1092.557831	0.184670
1092.719584	0.185935
1092.881319	0.189924
1093.043035	0.186028
1093.204733	0.188305
1093.366413	0.185894
1093.528075	0.188697
1093.689718	0.190689
1093.851343	0.190943
1094.012950	0.187011
1094.174539	0.189076
1094.336110	0.188656
1094.497662	0.188448
1094.659196	0.187310
1094.820712	0.187326
1094.982210	0.186429
1095.143689	0.182391
1095.305151	0.186102
1095.466594	0.183368
1095.628018	0.182982
1095.789425	0.179552
1095.950813	0.182759
1096.112183	0.183278
1096.273535	0.183350
1096.434869	0.182641
1096.596184	0.180330
1096.757482	0.179916
1096.918761	0.179641
1097.080021	0.178506
1097.241264	0.178369
1097.402488	0.181200
1097.563694	0.183973
1097.724882	0.181364
1097.886052	0.183071
1098.047203	0.186724
1098.208336	0.186845
1098.369451	0.188410
1098.530548	0.187308
1098.691627	0.191235
1098.852687	0.189693
1099.013729	0.188732
1099.174753	0.196003
1099.335758	0.192028
1099.496746	0.194341
1099.657715	0.191944
1099.818666	0.193437
1099.979599	0.195255
1100.140513	0.193939
1100.301409	0.190306
1100.462287	0.185410
1100.623147	0.184785
1100.783989	0.182874
1100.944812	0.183400
1101.105617	0.189447
1101.266404	0.186726
1101.427173	0.187598
1101.587923	0.184601
1101.748656	0.184727
1101.909370	0.186539
1102.070066	0.184143
1102.230743	0.188469
1102.391403	0.187889
1102.552044	0.180798
1102.712667	0.188247
1102.873271	0.192112
1103.033858	0.195119
1103.194426	0.196598
1103.354976	0.199674
1103.515508	0.199851
1103.676021	0.201383
1103.836517	0.198927
1103.996994	0.200403
1104.157453	0.195818
1104.317893	0.195872
1104.478316	0.195088
1104.638720	0.193544
1104.799106	0.195865
1104.959474	0.197776
1105.119823	0.195322
1105.280155	0.197755
1105.440468	0.199623
1105.600763	0.200031
1105.761039	0.196648
1105.921298	0.202103
1106.081538	0.207396
1106.241760	0.202011
1106.401964	0.200258
1106.562149	0.201598
1106.722316	0.201768
1106.882465	0.201238
1107.042596	0.201270
1107.202709	0.201888
1107.362803	0.199938
1107.522879	0.196889
1107.682937	0.196060
1107.842977	0.196324
1108.002999	0.197680
1108.163002	0.199233
1108.322987	0.196929
1108.482954	0.201211
1108.642902	0.203121
1108.802833	0.199024
1108.962745	0.199256
1109.122639	0.205784
1109.282515	0.205591
1109.442372	0.211204
1109.602211	0.212871
1109.762032	0.210436
1109.921835	0.210040
1110.081620	0.209117
1110.241386	0.206601
1110.401134	0.203961
1110.560864	0.197734
1110.720576	0.201086
1110.880269	0.195605
1111.039945	0.192556
1111.199602	0.195301
1111.359240	0.195484
1111.518861	0.192018
1111.678463	0.195808
1111.838047	0.196215
1111.997613	0.196906
1112.157161	0.194900
1112.316690	0.195433
1112.476202	0.197384
1112.635695	0.201268
1112.795169	0.200477
1112.954626	0.202778
1113.114064	0.198326
1113.273484	0.202914
1113.432886	0.207215
1113.592270	0.205965
1113.751635	0.207573
1113.910983	0.205996
1114.070312	0.204084
1114.229622	0.204118
1114.388915	0.203489
1114.548189	0.214981
1114.707445	0.214156
1114.866683	0.215138
1115.025903	0.215344
1115.185104	0.216641
1115.344287	0.215068
1115.503452	0.211331
1115.662599	0.209508
1115.821727	0.212441
1115.980838	0.208665
1116.139930	0.205034
1116.299004	0.203362
1116.458059	0.203933
1116.617097	0.199333
1116.776116	0.199631
1116.935117	0.203545
1117.094099	0.205333
1117.253064	0.202771
1117.412010	0.203527
1117.570938	0.205355
1117.729848	0.203127
1117.888740	0.200820
1118.047613	0.201671
1118.206468	0.200637
1118.365305	0.200822
1118.524124	0.197620
1118.682924	0.193579
1118.841707	0.189537
1119.000471	0.189956
1119.159216	0.183440
1119.317944	0.183889
1119.476653	0.184567
1119.635344	0.187883
1119.794017	0.190035
1119.952672	0.196621
1120.111308	0.203462
1120.269927	0.207602
1120.428527	0.204504
1120.587108	0.213436
1120.745672	0.213198
1120.904217	0.216271
1121.062744	0.211157
1121.221253	0.208696
1121.379744	0.204549
1121.538216	0.200054
1121.696671	0.196039
1121.855107	0.198586
1122.013524	0.198917
1122.171924	0.197808
1122.330305	0.197668
1122.488668	0.199604
1122.647013	0.205011
1122.805340	0.204293
1122.963648	0.210695
1123.121938	0.214720
1123.280210	0.217829
1123.438464	0.217742
1123.596700	0.219091
1123.754917	0.211063
1123.913116	0.209158
1124.071297	0.203953
1124.229459	0.203110
1124.387604	0.199236
1124.545730	0.195490
1124.703838	0.195861
1124.861928	0.200088
1125.019999	0.204444
1125.178052	0.206949
1125.336088	0.213211
1125.494104	0.214274
1125.652103	0.212611
1125.810083	0.210171
1125.968045	0.213273
1126.125989	0.210646
1126.283915	0.201145
1126.441823	0.201365
1126.599712	0.198459
1126.757583	0.193270
1126.915436	0.197007
1127.073270	0.198628
1127.231087	0.200351
1127.388885	0.196240
1127.546665	0.195963
1127.704426	0.200407
1127.862170	0.199557
1128.019895	0.205814
1128.177602	0.211883
1128.335291	0.210115
1128.492961	0.211799
1128.650614	0.214386
1128.808248	0.217976
1128.965864	0.214576
1129.123461	0.214338
1129.281041	0.213641
1129.438602	0.212011
1129.596145	0.213889
1129.753670	0.208312
1129.911176	0.206557
1130.068665	0.206699
1130.226135	0.203644
1130.383587	0.209583
1130.541020	0.212295
1130.698436	0.209856
1130.855833	0.207437
1131.013212	0.204276
1131.170573	0.205127
1131.327915	0.207590
1131.485239	0.205178
1131.642545	0.210508
1131.799833	0.206461
1131.957103	0.200743
1132.114354	0.202653
1132.271588	0.205371
1132.428803	0.203727
1132.585999	0.208473
1132.743178	0.202985
1132.900338	0.205156
1133.057480	0.201330
1133.214604	0.201380
1133.371710	0.202884
1133.528797	0.208351
1133.685866	0.214935
1133.842917	0.221046
1133.999950	0.214533
1134.156964	0.220021
1134.313960	0.222084
1134.470938	0.224209
1134.627898	0.225624
1134.784840	0.227273
1134.941763	0.219858
1135.098668	0.207356
1135.255555	0.206033
1135.412424	0.208522
1135.569274	0.206006
1135.726107	0.198448
1135.882921	0.191420
1136.039716	0.195558
1136.196494	0.200537
1136.353253	0.203527
1136.509995	0.210373
1136.666717	0.206505
1136.823422	0.212851
1136.980109	0.211899
1137.136777	0.208040
1137.293427	0.214932
1137.450059	0.214917
1137.606672	0.205120
1137.763267	0.214830
1137.919844	0.211402
1138.076403	0.209587
1138.232944	0.202804
1138.389466	0.203832
1138.545971	0.207539
1138.702457	0.212879
1138.858924	0.211716
1139.015374	0.212617
1139.171805	0.196541
1139.328218	0.202630
1139.484613	0.212468
1139.640990	0.217559
1139.797348	0.212756
1139.953688	0.215776
1140.110010	0.205426
1140.266314	0.210092
1140.422600	0.208356
1140.578867	0.214538
1140.735116	0.215209
1140.891347	0.209436
1141.047559	0.202793
1141.203754	0.206422
1141.359930	0.203304
1141.516088	0.206079
1141.672228	0.194996
1141.828349	0.207864
1141.984452	0.207550
1142.140537	0.203968
1142.296604	0.199468
1142.452653	0.204682
1142.608683	0.195467
1142.764695	0.187088
1142.920689	0.186565
1143.076665	0.197062
1143.232622	0.187989
1143.388562	0.184818
1143.544483	0.185785
1143.700385	0.184479
1143.856270	0.180320
1144.012136	0.189742
1144.167985	0.201278
1144.323814	0.202407
1144.479626	0.198819
1144.635420	0.205008
1144.791195	0.203983
1144.946952	0.206056
1145.102691	0.216641
1145.258411	0.221110
1145.414113	0.219506
1145.569798	0.221624
1145.725463	0.216397
1145.881111	0.219358
1146.036741	0.212598
1146.192352	0.218724
1146.347945	0.217727
1146.503519	0.211943
1146.659076	0.210417
1146.814614	0.215167
1146.970134	0.214498
1147.125636	0.220060
1147.281120	0.215075
1147.436585	0.219449
1147.592032	0.215267
1147.747461	0.217988
1147.902872	0.214673
1148.058265	0.221613
1148.213639	0.216545
1148.368995	0.209121
1148.524333	0.207478
1148.679653	0.196314
1148.834954	0.194265
1148.990237	0.199978
1149.145502	0.181440
1149.300749	0.184748
1149.455977	0.171875
1149.611188	0.170781
1149.766380	0.176825
1149.921553	0.177771
1150.076709	0.182140
1150.231846	0.179858
1150.386966	0.180085
1150.542066	0.193706
1150.697149	0.192680
1150.852214	0.192536
1151.007260	0.203129
1151.162288	0.198008
1151.317298	0.197048
1151.472289	0.202195
1151.627263	0.201849
1151.782218	0.197453
1151.937155	0.196169
1152.092073	0.196321
1152.246974	0.198735
1152.401856	0.192370
1152.556720	0.192448
1152.711566	0.195363
1152.866393	0.189522
1153.021203	0.185760
1153.175994	0.184091
1153.330767	0.179586
1153.485521	0.177269
1153.640258	0.180418
1153.794976	0.175221
1153.949676	0.181075
1154.104358	0.178023
1154.259021	0.183481
1154.413667	0.188832
1154.568294	0.181383
1154.722903	0.199448
1154.877493	0.201589
1155.032066	0.202839
1155.186620	0.213137
1155.341156	0.216074
1155.495674	0.205749
1155.650173	0.203104
1155.804654	0.206062
1155.959118	0.203311
1156.113562	0.188520
1156.267989	0.178952
1156.422397	0.184563
1156.576788	0.176795
1156.731160	0.169915
1156.885513	0.174093
1157.039849	0.176331
1157.194166	0.177051
1157.348465	0.190551
1157.502746	0.191072
1157.657009	0.192417
1157.811253	0.190502
1157.965479	0.202558
1158.119687	0.201178
1158.273877	0.207971
1158.428048	0.199806
1158.582201	0.215687
1158.736337	0.214376
1158.890453	0.210081
1159.044552	0.220759
1159.198632	0.212162
1159.352694	0.191966
1159.506738	0.189668
1159.660764	0.181025
1159.814771	0.180654
1159.968761	0.160545
1160.122732	0.156722
1160.276685	0.165624
1160.430619	0.160168
1160.584535	0.165597
1160.738434	0.176416
1160.892313	0.181340
1161.046175	0.196331
1161.200019	0.207108
1161.353844	0.202265
1161.507651	0.202627
1161.661440	0.194926
1161.815210	0.209684
1161.968962	0.198697
1162.122697	0.195359
1162.276412	0.204437
1162.430110	0.202306
1162.583789	0.200549
1162.737451	0.204084
1162.891094	0.209666
1163.044718	0.213762
1163.198325	0.200262
1163.351913	0.199437
1163.505483	0.205386
1163.659035	0.203402
1163.812569	0.189325
1163.966084	0.195930
1164.119581	0.202836
1164.273060	0.193569
1164.426521	0.208488
1164.579964	0.207042
1164.733388	0.205114
1164.886794	0.199139
1165.040182	0.201715
1165.193551	0.205301
1165.346903	0.190888
1165.500236	0.188231
1165.653551	0.189154
1165.806848	0.188127
1165.960126	0.191856
1166.113386	0.200303
1166.266628	0.195958
1166.419852	0.173194
1166.573058	0.179142
1166.726245	0.186103
1166.879414	0.183705
1167.032565	0.174438
1167.185698	0.168409
1167.338812	0.164901
1167.491909	0.158047
1167.644987	0.148831
1167.798046	0.169192
1167.951088	0.167696
1168.104111	0.169096
1168.257117	0.172576
1168.410103	0.181233
1168.563072	0.171074
1168.716023	0.181440
1168.868955	0.197194
1169.021869	0.206254
1169.174765	0.197082
1169.327642	0.201899
1169.480501	0.199463
1169.633343	0.197983
1169.786165	0.214277
1169.938970	0.217565
1170.091757	0.205476
1170.244525	0.197175
1170.397275	0.196761
1170.550007	0.206112
1170.702720	0.191996
1170.855415	0.190084
1171.008092	0.193398
1171.160751	0.185712
1171.313392	0.187072
1171.466014	0.179700
1171.618619	0.218337
1171.771205	0.218337
1171.923772	0.218337
