sample name	sample
index	1206
start time	 04-26-2021  01:00:39 PM


Wavelength (nm)	Absorbance
494.344910	NaN
494.563924	NaN
494.782919	NaN
495.001897	-0.498841
495.220856	-0.612264
495.439797	-0.587683
495.658719	-0.643276
495.877624	-0.459501
496.096510	-0.444032
496.315378	-0.533849
496.534227	-0.612651
496.753059	-0.597255
496.971872	-0.320540
497.190667	0.125363
497.409444	0.152978
497.628203	0.160643
497.846943	0.160325
498.065665	0.160082
498.284369	0.159936
498.503055	0.161203
498.721723	0.162718
498.940372	0.160624
499.159003	0.160526
499.377616	0.159629
499.596210	0.159113
499.814787	0.159029
500.033345	0.159319
500.251885	0.159535
500.470406	0.159028
500.688910	0.158065
500.907395	0.157610
501.125862	0.157330
501.344311	0.157491
501.562742	0.156859
501.781154	0.157337
501.999548	0.157931
502.217924	0.157827
502.436282	0.158248
502.654621	0.158630
502.872942	0.159221
503.091245	0.159123
503.309530	0.160940
503.527797	0.161788
503.746045	0.162270
503.964275	0.161183
504.182487	0.162160
504.400681	0.161731
504.618856	0.161628
504.837013	0.162241
505.055152	0.163365
505.273273	0.162115
505.491376	0.161479
505.709460	0.160717
505.927526	0.160117
506.145574	0.158641
506.363604	0.159017
506.581615	0.159280
506.799608	0.158401
507.017583	0.156971
507.235540	0.156851
507.453478	0.158044
507.671399	0.157725
507.889301	0.158714
508.107185	0.158503
508.325050	0.157723
508.542898	0.157740
508.760727	0.158488
508.978538	0.158910
509.196330	0.158791
509.414105	0.158132
509.631861	0.158573
509.849599	0.158103
510.067319	0.158359
510.285021	0.159545
510.502704	0.158801
510.720369	0.158452
510.938016	0.159457
511.155645	0.159986
511.373255	0.160164
511.590848	0.159616
511.808422	0.159784
512.025977	0.160055
512.243515	0.160025
512.461034	0.161263
512.678536	0.161308
512.896018	0.160466
513.113483	0.160489
513.330930	0.160746
513.548358	0.160510
513.765768	0.160838
513.983160	0.161248
514.200533	0.161469
514.417889	0.160608
514.635226	0.160850
514.852545	0.160894
515.069845	0.160687
515.287128	0.160637
515.504392	0.161080
515.721638	0.161097
515.938866	0.161678
516.156075	0.161709
516.373267	0.162362
516.590440	0.161818
516.807594	0.162194
517.024731	0.164072
517.241850	0.164118
517.458950	0.164708
517.676032	0.164480
517.893095	0.163726
518.110141	0.163290
518.327168	0.163750
518.544177	0.164645
518.761168	0.164605
518.978141	0.162666
519.195095	0.162606
519.412031	0.162601
519.628949	0.163836
519.845849	0.164443
520.062731	0.164673
520.279594	0.164398
520.496439	0.165007
520.713266	0.165237
520.930074	0.165364
521.146865	0.165533
521.363637	0.166301
521.580391	0.166439
521.797127	0.166230
522.013844	0.166569
522.230543	0.167085
522.447224	0.166548
522.663887	0.167015
522.880532	0.168856
523.097158	0.169489
523.313766	0.169209
523.530356	0.169501
523.746928	0.169954
523.963481	0.169836
524.180017	0.169246
524.396534	0.169288
524.613032	0.169766
524.829513	0.169020
525.045975	0.169226
525.262420	0.169539
525.478845	0.169372
525.695253	0.170329
525.911643	0.170966
526.128014	0.171564
526.344367	0.171763
526.560702	0.171300
526.777018	0.170956
526.993316	0.171160
527.209597	0.171108
527.425858	0.171625
527.642102	0.171740
527.858328	0.171139
528.074535	0.171549
528.290724	0.171628
528.506894	0.172531
528.723047	0.173258
528.939181	0.173492
529.155297	0.174322
529.371395	0.174194
529.587475	0.173958
529.803536	0.174422
530.019579	0.173942
530.235604	0.174609
530.451611	0.174075
530.667600	0.174553
530.883570	0.174312
531.099522	0.174565
531.315456	0.174500
531.531372	0.174505
531.747269	0.174964
531.963148	0.175929
532.179009	0.176413
532.394852	0.177563
532.610676	0.177993
532.826482	0.178727
533.042271	0.178443
533.258040	0.179219
533.473792	0.179392
533.689525	0.179992
533.905240	0.180512
534.120937	0.181033
534.336616	0.180720
534.552277	0.180453
534.767919	0.181193
534.983543	0.181554
535.199149	0.181748
535.414736	0.182188
535.630306	0.182134
535.845857	0.182389
536.061390	0.181899
536.276904	0.182683
536.492401	0.182730
536.707879	0.182647
536.923339	0.182802
537.138781	0.182992
537.354204	0.183253
537.569610	0.183753
537.784997	0.183169
538.000366	0.183872
538.215716	0.184145
538.431049	0.184643
538.646363	0.184871
538.861659	0.184913
539.076937	0.185255
539.292196	0.185463
539.507438	0.185636
539.722661	0.186668
539.937866	0.186741
540.153052	0.186202
540.368221	0.186528
540.583371	0.186621
540.798503	0.187035
541.013617	0.187300
541.228712	0.187353
541.443789	0.188131
541.658848	0.187881
541.873889	0.188298
542.088912	0.189131
542.303916	0.189629
542.518902	0.189973
542.733870	0.190633
542.948820	0.191060
543.163752	0.192024
543.378665	0.191716
543.593560	0.191758
543.808437	0.192273
544.023295	0.193039
544.238136	0.193226
544.452958	0.193183
544.667762	0.193380
544.882548	0.193333
545.097315	0.194025
545.312064	0.194190
545.526795	0.195154
545.741508	0.195375
545.956203	0.195227
546.170879	0.194807
546.385537	0.195392
546.600177	0.195463
546.814799	0.195389
547.029402	0.194955
547.243988	0.195356
547.458555	0.195425
547.673103	0.195209
547.887634	0.195097
548.102146	0.196075
548.316640	0.196042
548.531116	0.196006
548.745574	0.196523
548.960013	0.196706
549.174435	0.196671
549.388838	0.196372
549.603222	0.196590
549.817589	0.196832
550.031937	0.196426
550.246267	0.196254
550.460579	0.196954
550.674873	0.196696
550.889148	0.196582
551.103405	0.196866
551.317644	0.197215
551.531865	0.197556
551.746068	0.198157
551.960252	0.198797
552.174418	0.199235
552.388566	0.198905
552.602696	0.199376
552.816807	0.199629
553.030900	0.199647
553.244975	0.199794
553.459032	0.199591
553.673070	0.199119
553.887091	0.198849
554.101093	0.198992
554.315077	0.199413
554.529042	0.199201
554.742990	0.199180
554.956919	0.199501
555.170830	0.199643
555.384722	0.199828
555.598597	0.199662
555.812453	0.199993
556.026291	0.199913
556.240111	0.199892
556.453913	0.200313
556.667696	0.200280
556.881461	0.200230
557.095208	0.200421
557.308937	0.200643
557.522647	0.201119
557.736339	0.201071
557.950013	0.201218
558.163669	0.201164
558.377307	0.201324
558.590926	0.202181
558.804527	0.201975
559.018110	0.201971
559.231675	0.202156
559.445221	0.202489
559.658749	0.202785
559.872259	0.203086
560.085751	0.203562
560.299225	0.204145
560.512680	0.204075
560.726117	0.204847
560.939536	0.205091
561.152937	0.205100
561.366319	0.204723
561.579683	0.205059
561.793029	0.205330
562.006357	0.205708
562.219667	0.205548
562.432958	0.205485
562.646231	0.205571
562.859486	0.205812
563.072723	0.206192
563.285941	0.206809
563.499141	0.207084
563.712323	0.206628
563.925487	0.206470
564.138632	0.206225
564.351760	0.206075
564.564869	0.205649
564.777960	0.205616
564.991032	0.205644
565.204087	0.205807
565.417123	0.205442
565.630141	0.205605
565.843140	0.205493
566.056122	0.205865
566.269085	0.206131
566.482030	0.206893
566.694957	0.206997
566.907866	0.206814
567.120756	0.206357
567.333628	0.206521
567.546482	0.206832
567.759318	0.207158
567.972135	0.207145
568.184935	0.207559
568.397716	0.207364
568.610478	0.207521
568.823223	0.207963
569.035949	0.208483
569.248657	0.208486
569.461347	0.208856
569.674019	0.209051
569.886672	0.209111
570.099308	0.208754
570.311925	0.209234
570.524523	0.209229
570.737104	0.209486
570.949666	0.209620
571.162210	0.209957
571.374736	0.210092
571.587244	0.209964
571.799733	0.210497
572.012205	0.211158
572.224658	0.211051
572.437092	0.211143
572.649509	0.211099
572.861907	0.211265
573.074287	0.211334
573.286649	0.211782
573.498993	0.211853
573.711318	0.211678
573.923625	0.211784
574.135914	0.211535
574.348185	0.212034
574.560438	0.212260
574.772672	0.212467
574.984888	0.212711
575.197086	0.212533
575.409266	0.212958
575.621427	0.213004
575.833570	0.213292
576.045695	0.214018
576.257802	0.214232
576.469890	0.214191
576.681961	0.214460
576.894013	0.214750
577.106046	0.214928
577.318062	0.214954
577.530059	0.215644
577.742039	0.215667
577.954000	0.215573
578.165942	0.215717
578.377867	0.216083
578.589773	0.216134
578.801661	0.216169
579.013531	0.216393
579.225382	0.216410
579.437216	0.216438
579.649031	0.216345
579.860828	0.216616
580.072606	0.216448
580.284367	0.216432
580.496109	0.216568
580.707833	0.216687
580.919539	0.216931
581.131227	0.217065
581.342896	0.217025
581.554547	0.217253
581.766180	0.216980
581.977795	0.216844
582.189391	0.217048
582.400969	0.217214
582.612529	0.217159
582.824071	0.217216
583.035595	0.217579
583.247100	0.217825
583.458587	0.217968
583.670056	0.218308
583.881506	0.219098
584.092939	0.219184
584.304353	0.219332
584.515749	0.219718
584.727127	0.220083
584.938486	0.220324
585.149828	0.220440
585.361151	0.220763
585.572456	0.220648
585.783742	0.220684
585.995011	0.221181
586.206261	0.221551
586.417493	0.222005
586.628706	0.222137
586.839902	0.222125
587.051079	0.222303
587.262238	0.222613
587.473379	0.223145
587.684502	0.222997
587.895606	0.222861
588.106692	0.222722
588.317760	0.222520
588.528810	0.222655
588.739841	0.223028
588.950855	0.222936
589.161850	0.223017
589.372827	0.223319
589.583785	0.223343
589.794726	0.223878
590.005648	0.224154
590.216552	0.224177
590.427437	0.224265
590.638305	0.223905
590.849154	0.224457
591.059985	0.224317
591.270798	0.224747
591.481592	0.225249
591.692369	0.225748
591.903127	0.225933
592.113867	0.226402
592.324588	0.226622
592.535292	0.227336
592.745977	0.227528
592.956644	0.227597
593.167293	0.227328
593.377923	0.227538
593.588536	0.226833
593.799130	0.226834
594.009706	0.226947
594.220263	0.226896
594.430803	0.226900
594.641324	0.226777
594.851827	0.227108
595.062312	0.227338
595.272778	0.227187
595.483227	0.227291
595.693657	0.227694
595.904069	0.227646
596.114462	0.227726
596.324838	0.227660
596.535195	0.227728
596.745534	0.227818
596.955855	0.228140
597.166157	0.228541
597.376441	0.228811
597.586707	0.228539
597.796955	0.228424
598.007185	0.228332
598.217396	0.228904
598.427589	0.228778
598.637764	0.228848
598.847921	0.228466
599.058060	0.228425
599.268180	0.228453
599.478282	0.228448
599.688366	0.228623
599.898431	0.228773
600.108479	0.228657
600.318508	0.229021
600.528519	0.229262
600.738511	0.229842
600.948486	0.230076
601.158442	0.230426
601.368380	0.230710
601.578300	0.231436
601.788202	0.231964
601.998085	0.232127
602.207950	0.232059
602.417797	0.232181
602.627626	0.232271
602.837436	0.232757
603.047228	0.232601
603.257002	0.233013
603.466758	0.233006
603.676496	0.232978
603.886215	0.233029
604.095916	0.233499
604.305599	0.233454
604.515264	0.233348
604.724910	0.233290
604.934538	0.233414
605.144148	0.233582
605.353740	0.233333
605.563314	0.233413
605.772869	0.233818
605.982406	0.233917
606.191925	0.234251
606.401425	0.234395
606.610908	0.234508
606.820372	0.234781
607.029818	0.234901
607.239246	0.235308
607.448655	0.235652
607.658047	0.235504
607.867420	0.235634
608.076775	0.235913
608.286111	0.236227
608.495430	0.236317
608.704730	0.236780
608.914012	0.236830
609.123275	0.236949
609.332521	0.237131
609.541748	0.237425
609.750957	0.237428
609.960148	0.237636
610.169321	0.237673
610.378475	0.238021
610.587611	0.238024
610.796729	0.238310
611.005829	0.238593
611.214910	0.238386
611.423974	0.238426
611.633019	0.238684
611.842045	0.238348
612.051054	0.238167
612.260044	0.237869
612.469017	0.237606
612.677970	0.237712
612.886906	0.237676
613.095824	0.237884
613.304723	0.238107
613.513604	0.238214
613.722467	0.238528
613.931311	0.238976
614.140138	0.239545
614.348946	0.240174
614.557736	0.240088
614.766507	0.240318
614.975261	0.240680
615.183996	0.241127
615.392713	0.241457
615.601412	0.241646
615.810092	0.241928
616.018754	0.241863
616.227399	0.241999
616.436024	0.242186
616.644632	0.242307
616.853222	0.242243
617.061793	0.242289
617.270346	0.242389
617.478880	0.242519
617.687397	0.242625
617.895895	0.242796
618.104375	0.242683
618.312837	0.242695
618.521281	0.242850
618.729706	0.243091
618.938113	0.242841
619.146502	0.242934
619.354873	0.243326
619.563226	0.243471
619.771560	0.243689
619.979876	0.243895
620.188174	0.244351
620.396453	0.244321
620.604715	0.244552
620.812958	0.244731
621.021183	0.244896
621.229390	0.244904
621.437578	0.244953
621.645748	0.244924
621.853900	0.244837
622.062034	0.244790
622.270150	0.245324
622.478247	0.245365
622.686326	0.245754
622.894387	0.246023
623.102430	0.246234
623.310454	0.246389
623.518461	0.246451
623.726449	0.246860
623.934418	0.247131
624.142370	0.246880
624.350303	0.246857
624.558218	0.246753
624.766115	0.246941
624.973994	0.246678
625.181855	0.246858
625.389697	0.247408
625.597521	0.247794
625.805327	0.247690
626.013114	0.248217
626.220883	0.248911
626.428634	0.249237
626.636367	0.249047
626.844082	0.249309
627.051778	0.249422
627.259457	0.249320
627.467117	0.249350
627.674758	0.249710
627.882382	0.249623
628.089987	0.249407
628.297574	0.249446
628.505143	0.249814
628.712694	0.250294
628.920226	0.250412
629.127740	0.250405
629.335236	0.250441
629.542714	0.250606
629.750174	0.250717
629.957615	0.250944
630.165038	0.251241
630.372443	0.251330
630.579829	0.251263
630.787198	0.251440
630.994548	0.251835
631.201880	0.251771
631.409194	0.251849
631.616489	0.252221
631.823766	0.252005
632.031025	0.251987
632.238266	0.252283
632.445489	0.252555
632.652693	0.252487
632.859879	0.252596
633.067047	0.252774
633.274197	0.253259
633.481329	0.253378
633.688442	0.253824
633.895537	0.254147
634.102614	0.254273
634.309672	0.254213
634.516713	0.254676
634.723735	0.254757
634.930739	0.255004
635.137724	0.254973
635.344692	0.254833
635.551641	0.254861
635.758572	0.254560
635.965485	0.254631
636.172379	0.254766
636.379256	0.254449
636.586114	0.254389
636.792954	0.254686
636.999775	0.254519
637.206579	0.254851
637.413364	0.255045
637.620131	0.255234
637.826880	0.255229
638.033610	0.255638
638.240323	0.256053
638.447017	0.256384
638.653692	0.256327
638.860350	0.256525
639.066990	0.256644
639.273611	0.257098
639.480214	0.257397
639.686798	0.257426
639.893365	0.257618
640.099913	0.257948
640.306443	0.257738
640.512955	0.258082
640.719449	0.258261
640.925924	0.258327
641.132381	0.258258
641.338820	0.258696
641.545241	0.258983
641.751644	0.259130
641.958028	0.259027
642.164394	0.259744
642.370742	0.260072
642.577071	0.260299
642.783383	0.260610
642.989676	0.260882
643.195951	0.260764
643.402207	0.260930
643.608446	0.261010
643.814666	0.261205
644.020868	0.260974
644.227052	0.260813
644.433218	0.260923
644.639365	0.261018
644.845494	0.261043
645.051605	0.261550
645.257698	0.261802
645.463772	0.261844
645.669828	0.262347
645.875866	0.262498
646.081886	0.262927
646.287888	0.263304
646.493871	0.263078
646.699836	0.263248
646.905783	0.263088
647.111712	0.263212
647.317622	0.263434
647.523514	0.263341
647.729388	0.263689
647.935244	0.263754
648.141082	0.263638
648.346901	0.264177
648.552702	0.264039
648.758485	0.264400
648.964250	0.264415
649.169996	0.264666
649.375724	0.264817
649.581434	0.265100
649.787126	0.265404
649.992800	0.265762
650.198455	0.265939
650.404092	0.266429
650.609711	0.266459
650.815311	0.266552
651.020894	0.266588
651.226458	0.266822
651.432004	0.266887
651.637532	0.266850
651.843041	0.266987
652.048532	0.267122
652.254006	0.266994
652.459460	0.267120
652.664897	0.267335
652.870315	0.267322
653.075716	0.267342
653.281097	0.267440
653.486461	0.267551
653.691807	0.267514
653.897134	0.267742
654.102443	0.268248
654.307734	0.268343
654.513006	0.268701
654.718261	0.269203
654.923497	0.269328
655.128715	0.269574
655.333915	0.269656
655.539096	0.269990
655.744259	0.270062
655.949404	0.270165
656.154531	0.270157
656.359640	0.270312
656.564730	0.270153
656.769802	0.270551
656.974856	0.270786
657.179892	0.271221
657.384909	0.271623
657.589908	0.271983
657.794889	0.272608
657.999852	0.273258
658.204797	0.273265
658.409723	0.273709
658.614631	0.273697
658.819521	0.273561
659.024393	0.273499
659.229246	0.273371
659.434081	0.273465
659.638898	0.273162
659.843697	0.273266
660.048478	0.273644
660.253240	0.273656
660.457984	0.274051
660.662710	0.274316
660.867417	0.274794
661.072107	0.275062
661.276778	0.275356
661.481431	0.275407
661.686066	0.275540
661.890682	0.275743
662.095281	0.276120
662.299861	0.276531
662.504422	0.277337
662.708966	0.277485
662.913491	0.277845
663.117999	0.277650
663.322488	0.278241
663.526958	0.278429
663.731411	0.278681
663.935845	0.279024
664.140261	0.279157
664.344659	0.278943
664.549038	0.278893
664.753400	0.279148
664.957743	0.279752
665.162068	0.279901
665.366375	0.280084
665.570663	0.280190
665.774933	0.280243
665.979185	0.280300
666.183419	0.280687
666.387635	0.281146
666.591832	0.281326
666.796011	0.281505
667.000172	0.281494
667.204315	0.281720
667.408439	0.281634
667.612545	0.281682
667.816634	0.281708
668.020703	0.281915
668.224755	0.282076
668.428788	0.282148
668.632803	0.282251
668.836800	0.282293
669.040779	0.282487
669.244739	0.282850
669.448681	0.283340
669.652605	0.283741
669.856511	0.283806
670.060399	0.283889
670.264268	0.284097
670.468119	0.284439
670.671952	0.285140
670.875767	0.285356
671.079563	0.285708
671.283341	0.285979
671.487101	0.286087
671.690843	0.285958
671.894567	0.286444
672.098272	0.286869
672.301959	0.287113
672.505628	0.287080
672.709278	0.287291
672.912911	0.287337
673.116525	0.287312
673.320121	0.287481
673.523699	0.287984
673.727258	0.287822
673.930799	0.287839
674.134322	0.288066
674.337827	0.288298
674.541314	0.288566
674.744782	0.288954
674.948232	0.289291
675.151664	0.289632
675.355078	0.289870
675.558474	0.290303
675.761851	0.290681
675.965210	0.290766
676.168551	0.291053
676.371873	0.291169
676.575178	0.291269
676.778464	0.291383
676.981732	0.291503
677.184981	0.291750
677.388213	0.291737
677.591426	0.291557
677.794621	0.291670
677.997798	0.291781
678.200956	0.291825
678.404097	0.292007
678.607219	0.292319
678.810323	0.292542
679.013408	0.292406
679.216476	0.292731
679.419525	0.293126
679.622556	0.293304
679.825569	0.293576
680.028563	0.294098
680.231540	0.294584
680.434498	0.294703
680.637438	0.295063
680.840359	0.295577
681.043263	0.295972
681.246148	0.296304
681.449015	0.296387
681.651864	0.296539
681.854694	0.296525
682.057506	0.296427
682.260301	0.296624
682.463076	0.296753
682.665834	0.296972
682.868573	0.296980
683.071295	0.296876
683.273998	0.297038
683.476682	0.297100
683.679349	0.297563
683.881997	0.297837
684.084627	0.297828
684.287239	0.297788
684.489833	0.297742
684.692408	0.297791
684.894965	0.297808
685.097504	0.298091
685.300025	0.298234
685.502527	0.298089
685.705012	0.298180
685.907478	0.298453
686.109925	0.298658
686.312355	0.299153
686.514766	0.299418
686.717159	0.299838
686.919534	0.299783
687.121891	0.299872
687.324230	0.300359
687.526550	0.300808
687.728852	0.300995
687.931136	0.301286
688.133401	0.301439
688.335649	0.301728
688.537878	0.302046
688.740089	0.302432
688.942281	0.302695
689.144456	0.302601
689.346612	0.302462
689.548750	0.302669
689.750870	0.302790
689.952971	0.302966
690.155055	0.303329
690.357120	0.303545
690.559167	0.303894
690.761195	0.304407
690.963206	0.304654
691.165198	0.305122
691.367172	0.305430
691.569128	0.305428
691.771065	0.305443
691.972984	0.305548
692.174885	0.305652
692.376768	0.305635
692.578633	0.305412
692.780479	0.305660
692.982308	0.305532
693.184118	0.305266
693.385909	0.305876
693.587683	0.305899
693.789438	0.305705
693.991175	0.305822
694.192894	0.306084
694.394595	0.306545
694.596277	0.306458
694.797941	0.306761
694.999587	0.307185
695.201215	0.307083
695.402824	0.307548
695.604416	0.307806
695.805989	0.307919
696.007543	0.308001
696.209080	0.307998
696.410598	0.308101
696.612099	0.308194
696.813580	0.308033
697.015044	0.308001
697.216490	0.307914
697.417917	0.307911
697.619326	0.307762
697.820717	0.307925
698.022089	0.307916
698.223444	0.308305
698.424780	0.308703
698.626098	0.309079
698.827397	0.309295
699.028679	0.309276
699.229942	0.309471
699.431187	0.309749
699.632414	0.309783
699.833622	0.310070
700.034813	0.310353
700.235985	0.310250
700.437139	0.310455
700.638274	0.310590
700.839392	0.310938
701.040491	0.311207
701.241572	0.311341
701.442635	0.311355
701.643679	0.311198
701.844706	0.311230
702.045714	0.311128
702.246704	0.310868
702.447675	0.311007
702.648629	0.310835
702.849564	0.310832
703.050481	0.310965
703.251380	0.311149
703.452260	0.311265
703.653122	0.311187
703.853966	0.311393
704.054792	0.311698
704.255600	0.311394
704.456389	0.311492
704.657160	0.311496
704.857913	0.311423
705.058648	0.311760
705.259365	0.312056
705.460063	0.312033
705.660743	0.312292
705.861405	0.312433
706.062048	0.312890
706.262674	0.312983
706.463281	0.312835
706.663870	0.313143
706.864441	0.312923
707.064993	0.312882
707.265527	0.313076
707.466043	0.312987
707.666541	0.313071
707.867021	0.313184
708.067482	0.313641
708.267925	0.314252
708.468350	0.314480
708.668757	0.314494
708.869145	0.314765
709.069516	0.314692
709.269868	0.314706
709.470201	0.314809
709.670517	0.314747
709.870814	0.314609
710.071093	0.314409
710.271354	0.314224
710.471597	0.314351
710.671821	0.314171
710.872028	0.314294
711.072216	0.314648
711.272385	0.314324
711.472537	0.314415
711.672670	0.314129
711.872785	0.314086
712.072882	0.314134
712.272961	0.314049
712.473021	0.313817
712.673063	0.313671
712.873087	0.313256
713.073093	0.313480
713.273081	0.313399
713.473050	0.313413
713.673001	0.313252
713.872934	0.312894
714.072849	0.312846
714.272745	0.313212
714.472623	0.313089
714.672483	0.313091
714.872325	0.313029
715.072148	0.312903
715.271954	0.312904
715.471741	0.313015
715.671509	0.313185
715.871260	0.313044
716.070992	0.312617
716.270707	0.312781
716.470403	0.312766
716.670080	0.312840
716.869740	0.312997
717.069381	0.312976
717.269004	0.312939
717.468609	0.312730
717.668195	0.312652
717.867764	0.312821
718.067314	0.312490
718.266846	0.312317
718.466360	0.312304
718.665855	0.312156
718.865332	0.312175
719.064791	0.312019
719.264232	0.312344
719.463655	0.312575
719.663059	0.312447
719.862445	0.312720
720.061813	0.312937
720.261163	0.312891
720.460494	0.312816
720.659807	0.312626
720.859102	0.312698
721.058379	0.312482
721.257638	0.312139
721.456878	0.312220
721.656100	0.312356
721.855304	0.311988
722.054490	0.311711
722.253657	0.311455
722.452806	0.311391
722.651937	0.311283
722.851050	0.311172
723.050145	0.311112
723.249221	0.310879
723.448279	0.310454
723.647319	0.310488
723.846340	0.310138
724.045344	0.310035
724.244329	0.309806
724.443296	0.309413
724.642245	0.309133
724.841175	0.309035
725.040088	0.308530
725.238982	0.308171
725.437857	0.307701
725.636715	0.307582
725.835554	0.307559
726.034376	0.307464
726.233179	0.307487
726.431963	0.307362
726.630730	0.307054
726.829478	0.307211
727.028208	0.307188
727.226920	0.307226
727.425614	0.307161
727.624289	0.307066
727.822946	0.306805
728.021585	0.306522
728.220206	0.306263
728.418808	0.306121
728.617392	0.306004
728.815958	0.305792
729.014506	0.305811
729.213036	0.305808
729.411547	0.305325
729.610040	0.305535
729.808515	0.305426
730.006972	0.305317
730.205410	0.305471
730.403831	0.305313
730.602233	0.305119
730.800616	0.304772
730.998982	0.304426
731.197329	0.304169
731.395658	0.303916
731.593969	0.303859
731.792262	0.303881
731.990536	0.303781
732.188793	0.303831
732.387031	0.303908
732.585250	0.304089
732.783452	0.304082
732.981635	0.304416
733.179800	0.304609
733.377947	0.304544
733.576076	0.304490
733.774186	0.304429
733.972278	0.304336
734.170352	0.304128
734.368408	0.303748
734.566446	0.303628
734.764465	0.303595
734.962466	0.303183
735.160449	0.303107
735.358413	0.302982
735.556360	0.302791
735.754288	0.302874
735.952198	0.302866
736.150090	0.302941
736.347963	0.302787
736.545818	0.302607
736.743655	0.302577
736.941474	0.302473
737.139275	0.302369
737.337057	0.302178
737.534821	0.301403
737.732567	0.301208
737.930295	0.301196
738.128005	0.301274
738.325696	0.300979
738.523369	0.300805
738.721024	0.300586
738.918660	0.300456
739.116279	0.300281
739.313879	0.300610
739.511461	0.300580
739.709024	0.300320
739.906570	0.300304
740.104097	0.300324
740.301606	0.299954
740.499097	0.300035
740.696569	0.299769
740.894024	0.299796
741.091460	0.299538
741.288878	0.299434
741.486277	0.298934
741.683659	0.298683
741.881022	0.298607
742.078367	0.298731
742.275694	0.298320
742.473002	0.298279
742.670293	0.298346
742.867565	0.298185
743.064819	0.298012
743.262054	0.298360
743.459272	0.298201
743.656471	0.298223
743.853652	0.298193
744.050815	0.298239
744.247959	0.298287
744.445085	0.297966
744.642194	0.298103
744.839283	0.298043
745.036355	0.297855
745.233408	0.297684
745.430444	0.297366
745.627461	0.297353
745.824459	0.297321
746.021440	0.296961
746.218402	0.296957
746.415346	0.297130
746.612272	0.296933
746.809180	0.296530
747.006069	0.296313
747.202940	0.296169
747.399793	0.295941
747.596628	0.295733
747.793444	0.295490
747.990243	0.295146
748.187023	0.294278
748.383784	0.294028
748.580528	0.293913
748.777253	0.293669
748.973960	0.293404
749.170649	0.293056
749.367320	0.292739
749.563973	0.292771
749.760607	0.292739
749.957223	0.292788
750.153821	0.292645
750.350400	0.292601
750.546962	0.292265
750.743505	0.292026
750.940030	0.291746
751.136536	0.291382
751.333025	0.291341
751.529495	0.291015
751.725947	0.290799
751.922381	0.290445
752.118796	0.290004
752.315194	0.290028
752.511573	0.289891
752.707934	0.289688
752.904276	0.289668
753.100601	0.289295
753.296907	0.289057
753.493195	0.289240
753.689465	0.289325
753.885716	0.289191
754.081949	0.288990
754.278164	0.288936
754.474361	0.288715
754.670540	0.288702
754.866700	0.288629
755.062843	0.288517
755.258967	0.288055
755.455072	0.287914
755.651160	0.288043
755.847229	0.288203
756.043280	0.287907
756.239313	0.287918
756.435328	0.287756
756.631324	0.287271
756.827302	0.286778
757.023262	0.286628
757.219204	0.286428
757.415127	0.286073
757.611033	0.285861
757.806920	0.286039
758.002788	0.286080
758.198639	0.286156
758.394471	0.286169
758.590286	0.286436
758.786081	0.286320
758.981859	0.286115
759.177619	0.286013
759.373360	0.285830
759.569083	0.285462
759.764788	0.285356
759.960474	0.284956
760.156143	0.285112
760.351793	0.284901
760.547425	0.284855
760.743038	0.285087
760.938634	0.285196
761.134211	0.285173
761.329770	0.285312
761.525311	0.285341
761.720833	0.285424
761.916338	0.285339
762.111824	0.285408
762.307292	0.285327
762.502741	0.285270
762.698173	0.285168
762.893586	0.284991
763.088981	0.284925
763.284358	0.284708
763.479716	0.284649
763.675057	0.284454
763.870379	0.284466
764.065683	0.284302
764.260968	0.283895
764.456236	0.283850
764.651485	0.283687
764.846716	0.283292
765.041929	0.283020
765.237123	0.282930
765.432299	0.283185
765.627457	0.282783
765.822597	0.282881
766.017719	0.282949
766.212822	0.282946
766.407907	0.283081
766.602974	0.283009
766.798023	0.283167
766.993054	0.283073
767.188066	0.282776
767.383060	0.283102
767.578036	0.283004
767.772993	0.283037
767.967933	0.282875
768.162854	0.282990
768.357757	0.283077
768.552642	0.282823
768.747508	0.282700
768.942356	0.282627
769.137186	0.282468
769.331998	0.282414
769.526792	0.282243
769.721567	0.282192
769.916324	0.281981
770.111063	0.281980
770.305784	0.282300
770.500486	0.282111
770.695171	0.281942
770.889837	0.281868
771.084484	0.281630
771.279114	0.281492
771.473725	0.281396
771.668318	0.281111
771.862893	0.280951
772.057450	0.280711
772.251988	0.280994
772.446509	0.281236
772.641011	0.281192
772.835494	0.281224
773.029960	0.281659
773.224407	0.281655
773.418836	0.281864
773.613247	0.281811
773.807640	0.281859
774.002014	0.281833
774.196370	0.281748
774.390708	0.281794
774.585028	0.281829
774.779330	0.281462
774.973613	0.281507
775.167878	0.281668
775.362125	0.282035
775.556354	0.281981
775.750564	0.281943
775.944756	0.281682
776.138930	0.281704
776.333086	0.281572
776.527223	0.281561
776.721343	0.281767
776.915444	0.281454
777.109526	0.281151
777.303591	0.280939
777.497637	0.280900
777.691666	0.281047
777.885676	0.280928
778.079667	0.280909
778.273641	0.281012
778.467596	0.280660
778.661533	0.280918
778.855452	0.281098
779.049352	0.281362
779.243235	0.281401
779.437099	0.281478
779.630945	0.281721
779.824773	0.282266
780.018582	0.282093
780.212373	0.282393
780.406146	0.282282
780.599901	0.282217
780.793638	0.281894
780.987356	0.281912
781.181056	0.281530
781.374738	0.281477
781.568402	0.281067
781.762047	0.281210
781.955674	0.280963
782.149283	0.281186
782.342874	0.281342
782.536447	0.281578
782.730001	0.281564
782.923537	0.282096
783.117055	0.282251
783.310555	0.282479
783.504036	0.282547
783.697499	0.282855
783.890944	0.282802
784.084371	0.282553
784.277780	0.282758
784.471170	0.282938
784.664542	0.282851
784.857896	0.282641
785.051231	0.282816
785.244549	0.283099
785.437848	0.283031
785.631129	0.283024
785.824392	0.283320
786.017636	0.283234
786.210863	0.283548
786.404071	0.283656
786.597260	0.283938
786.790432	0.283860
786.983585	0.283854
787.176721	0.283934
787.369838	0.284140
787.562936	0.284164
787.756017	0.284217
787.949079	0.283932
788.142123	0.283930
788.335149	0.283941
788.528156	0.284023
788.721146	0.284169
788.914117	0.284689
789.107070	0.285022
789.300005	0.285332
789.492921	0.285574
789.685819	0.285774
789.878699	0.286066
790.071561	0.286295
790.264405	0.286419
790.457230	0.286546
790.650037	0.286576
790.842826	0.286598
791.035597	0.287007
791.228349	0.287103
791.421084	0.287267
791.613800	0.287394
791.806497	0.287296
791.999177	0.287585
792.191838	0.287670
792.384481	0.287968
792.577106	0.288116
792.769713	0.287858
792.962301	0.287978
793.154871	0.288308
793.347423	0.288442
793.539957	0.288637
793.732473	0.288706
793.924970	0.289049
794.117449	0.288985
794.309910	0.289125
794.502353	0.289325
794.694777	0.289704
794.887183	0.289899
795.079571	0.289969
795.271941	0.290052
795.464293	0.290249
795.656626	0.290190
795.848941	0.290157
796.041238	0.290383
796.233516	0.290771
796.425777	0.290893
796.618019	0.291074
796.810243	0.291492
797.002449	0.291913
797.194636	0.292460
797.386805	0.292755
797.578956	0.293311
797.771089	0.293301
797.963204	0.293253
798.155300	0.293380
798.347378	0.293394
798.539438	0.293364
798.731480	0.293399
798.923503	0.293326
799.115509	0.293394
799.307496	0.293822
799.499465	0.294154
799.691415	0.294308
799.883348	0.294544
800.075262	0.294761
800.267158	0.295092
800.459035	0.295413
800.650895	0.295527
800.842736	0.295688
801.034559	0.295359
801.226364	0.295730
801.418150	0.296284
801.609919	0.296638
801.801669	0.297043
801.993401	0.297460
802.185114	0.297681
802.376810	0.297966
802.568487	0.298534
802.760146	0.298996
802.951787	0.298713
803.143409	0.298769
803.335014	0.299142
803.526600	0.299438
803.718168	0.299550
803.909717	0.299869
804.101249	0.299960
804.292762	0.299829
804.484257	0.299988
804.675734	0.300384
804.867192	0.300389
805.058632	0.300398
805.250054	0.300453
805.441458	0.300854
805.632844	0.301072
805.824211	0.301334
806.015561	0.302055
806.206891	0.302108
806.398204	0.302284
806.589499	0.302355
806.780775	0.302735
806.972033	0.302770
807.163273	0.302538
807.354495	0.302772
807.545698	0.302989
807.736883	0.302911
807.928050	0.303298
808.119199	0.303848
808.310329	0.304592
808.501441	0.304654
808.692535	0.305112
808.883611	0.305648
809.074669	0.306159
809.265708	0.306619
809.456729	0.306933
809.647732	0.307433
809.838717	0.307582
810.029683	0.307879
810.220632	0.308289
810.411562	0.308655
810.602474	0.309126
810.793367	0.309173
810.984242	0.309249
811.175100	0.309705
811.365938	0.309786
811.556759	0.310129
811.747562	0.310225
811.938346	0.310427
812.129112	0.310795
812.319860	0.310809
812.510589	0.311118
812.701300	0.311586
812.891994	0.311822
813.082668	0.312220
813.273325	0.312436
813.463964	0.313095
813.654584	0.313397
813.845186	0.313679
814.035769	0.314357
814.226335	0.314565
814.416882	0.314873
814.607411	0.314938
814.797922	0.315399
814.988415	0.315861
815.178889	0.316101
815.369345	0.316622
815.559783	0.316968
815.750203	0.316938
815.940605	0.317668
816.130988	0.318179
816.321353	0.318954
816.511700	0.318953
816.702028	0.319395
816.892339	0.319714
817.082631	0.319965
817.272905	0.319994
817.463161	0.320317
817.653398	0.320260
817.843617	0.320193
818.033819	0.320427
818.224001	0.320967
818.414166	0.321361
818.604312	0.321796
818.794440	0.322029
818.984550	0.322367
819.174642	0.322826
819.364716	0.323164
819.554771	0.323437
819.744808	0.323442
819.934827	0.323820
820.124827	0.323888
820.314810	0.323738
820.504774	0.324175
820.694720	0.324734
820.884647	0.325220
821.074557	0.325722
821.264448	0.326556
821.454321	0.327068
821.644176	0.327421
821.834012	0.328094
822.023831	0.328958
822.213631	0.329281
822.403413	0.329498
822.593176	0.329863
822.782922	0.330135
822.972649	0.330272
823.162358	0.330509
823.352049	0.330756
823.541721	0.330786
823.731376	0.330846
823.921012	0.331002
824.110629	0.331523
824.300229	0.331705
824.489811	0.332252
824.679374	0.332697
824.868919	0.333355
825.058445	0.333793
825.247954	0.334183
825.437444	0.334521
825.626916	0.335289
825.816370	0.335466
826.005806	0.336055
826.195223	0.336406
826.384622	0.336673
826.574003	0.337051
826.763366	0.337423
826.952711	0.337516
827.142037	0.337768
827.331345	0.337935
827.520635	0.338524
827.709906	0.338844
827.899160	0.338951
828.088395	0.339282
828.277612	0.339701
828.466810	0.339851
828.655991	0.340868
828.845153	0.341329
829.034297	0.341760
829.223423	0.342279
829.412531	0.342597
829.601620	0.343182
829.790691	0.343563
829.979744	0.343675
830.168779	0.344467
830.357795	0.344622
830.546793	0.345363
830.735773	0.345801
830.924735	0.346142
831.113679	0.346742
831.302604	0.347269
831.491511	0.347780
831.680400	0.348461
831.869271	0.349048
832.058123	0.349390
832.246957	0.350016
832.435773	0.350245
832.624571	0.350462
832.813351	0.350701
833.002112	0.351538
833.190855	0.352055
833.379580	0.352454
833.568287	0.352402
833.756975	0.352889
833.945645	0.352676
834.134297	0.352980
834.322931	0.353384
834.511547	0.353804
834.700144	0.353507
834.888723	0.354006
835.077284	0.354482
835.265826	0.355133
835.454351	0.355380
835.642857	0.355798
835.831345	0.356532
836.019815	0.356989
836.208266	0.357183
836.396699	0.357506
836.585114	0.357594
836.773511	0.358069
836.961890	0.358392
837.150250	0.359071
837.338592	0.359773
837.526916	0.359868
837.715222	0.360226
837.903510	0.361117
838.091779	0.361854
838.280030	0.362238
838.468263	0.362078
838.656477	0.362341
838.844674	0.362825
839.032852	0.363130
839.221012	0.363828
839.409153	0.364309
839.597277	0.364220
839.785382	0.364713
839.973469	0.365644
840.161538	0.366472
840.349589	0.366838
840.537621	0.366989
840.725635	0.367754
840.913631	0.368254
841.101609	0.368649
841.289568	0.369476
841.477509	0.370018
841.665432	0.370141
841.853337	0.370534
842.041224	0.371000
842.229092	0.371408
842.416942	0.371898
842.604774	0.372488
842.792588	0.373151
842.980383	0.373751
843.168160	0.373809
843.355919	0.374623
843.543660	0.375062
843.731382	0.375852
843.919087	0.376287
844.106773	0.376551
844.294441	0.376821
844.482090	0.377179
844.669722	0.377602
844.857335	0.378406
845.044930	0.378527
845.232507	0.379164
845.420065	0.379671
845.607605	0.380254
845.795127	0.380716
845.982631	0.380960
846.170117	0.381653
846.357584	0.382244
846.545033	0.382965
846.732464	0.383571
846.919877	0.383669
847.107272	0.384228
847.294648	0.384699
847.482006	0.385467
847.669346	0.386211
847.856667	0.387021
848.043971	0.387170
848.231256	0.387331
848.418523	0.387772
848.605771	0.388171
848.793002	0.388634
848.980214	0.389518
849.167408	0.389720
849.354584	0.390471
849.541742	0.390342
849.728881	0.390785
849.916002	0.391300
850.103105	0.391918
850.290190	0.392843
850.477256	0.393232
850.664304	0.393426
850.851334	0.394215
851.038346	0.394133
851.225340	0.394314
851.412315	0.394498
851.599272	0.394736
851.786211	0.394968
851.973132	0.395446
852.160034	0.395641
852.346918	0.396274
852.533784	0.396135
852.720632	0.396339
852.907462	0.396987
853.094273	0.397358
853.281066	0.396963
853.467841	0.397225
853.654598	0.397266
853.841336	0.397677
854.028056	0.397458
854.214758	0.397843
854.401442	0.398702
854.588107	0.399177
854.774755	0.399915
854.961384	0.401322
855.147995	0.402111
855.334587	0.402202
855.521162	0.402224
855.707718	0.402688
855.894256	0.402936
856.080775	0.402961
856.267277	0.403112
856.453760	0.403109
856.640225	0.403060
856.826672	0.403209
857.013101	0.403891
857.199511	0.404795
857.385903	0.405701
857.572277	0.406315
857.758633	0.406694
857.944970	0.407191
858.131290	0.407950
858.317591	0.408680
858.503873	0.408970
858.690138	0.409354
858.876384	0.409345
859.062612	0.409678
859.248822	0.410169
859.435014	0.411450
859.621188	0.411829
859.807343	0.411929
859.993480	0.412576
860.179599	0.413179
860.365699	0.413622
860.551781	0.414322
860.737846	0.414732
860.923891	0.415461
861.109919	0.415849
861.295929	0.416962
861.481920	0.417833
861.667893	0.417775
861.853848	0.418417
862.039784	0.419335
862.225702	0.419602
862.411603	0.420023
862.597484	0.420122
862.783348	0.420313
862.969193	0.420163
863.155021	0.420609
863.340830	0.421388
863.526620	0.421369
863.712393	0.421233
863.898147	0.421662
864.083883	0.422026
864.269601	0.422568
864.455301	0.422706
864.640982	0.423168
864.826645	0.423341
865.012290	0.423535
865.197917	0.423756
865.383526	0.423863
865.569116	0.423964
865.754688	0.424008
865.940242	0.424221
866.125777	0.424590
866.311295	0.424443
866.496794	0.425313
866.682275	0.425725
866.867737	0.426281
867.053182	0.427031
867.238608	0.427864
867.424016	0.428190
867.609406	0.428347
867.794778	0.428727
867.980131	0.429269
868.165466	0.428728
868.350783	0.428753
868.536082	0.429145
868.721362	0.429838
868.906625	0.430196
869.091869	0.430706
869.277094	0.430957
869.462302	0.430880
869.647491	0.431269
869.832662	0.431802
870.017815	0.431964
870.202950	0.432105
870.388066	0.432059
870.573165	0.432058
870.758245	0.432091
870.943306	0.431909
871.128350	0.432488
871.313375	0.432742
871.498382	0.433202
871.683371	0.433672
871.868342	0.434232
872.053294	0.434319
872.238229	0.434454
872.423144	0.434753
872.608042	0.435231
872.792922	0.435315
872.977783	0.435524
873.162626	0.435046
873.347451	0.435768
873.532258	0.435809
873.717046	0.436110
873.901816	0.436657
874.086568	0.436971
874.271302	0.437215
874.456017	0.437967
874.640715	0.437851
874.825394	0.438447
875.010055	0.438195
875.194697	0.438379
875.379322	0.438683
875.563928	0.438889
875.748516	0.438843
875.933085	0.439356
876.117637	0.438884
876.302170	0.440068
876.486685	0.440452
876.671182	0.440919
876.855661	0.441261
877.040121	0.441453
877.224563	0.441434
877.408987	0.442063
877.593393	0.442468
877.777780	0.442839
877.962150	0.442728
878.146501	0.443081
878.330833	0.443009
878.515148	0.442448
878.699444	0.442422
878.883722	0.442327
879.067982	0.442141
879.252224	0.441896
879.436447	0.441959
879.620653	0.441756
879.804840	0.441765
879.989008	0.442003
880.173159	0.442862
880.357291	0.443033
880.541405	0.443578
880.725501	0.443842
880.909579	0.444086
881.093638	0.443736
881.277680	0.444263
881.461703	0.444228
881.645707	0.444048
881.829694	0.444167
882.013662	0.443781
882.197612	0.443814
882.381544	0.444169
882.565458	0.444015
882.749353	0.444441
882.933230	0.443850
883.117089	0.443896
883.300930	0.444324
883.484753	0.443936
883.668557	0.444207
883.852343	0.444169
884.036111	0.444390
884.219861	0.444784
884.403592	0.444997
884.587305	0.445464
884.771000	0.445254
884.954677	0.445441
885.138335	0.445194
885.321976	0.445680
885.505598	0.445902
885.689201	0.445367
885.872787	0.444912
886.056354	0.444973
886.239904	0.444721
886.423434	0.445356
886.606947	0.445406
886.790442	0.446062
886.973918	0.446607
887.157376	0.446699
887.340816	0.446881
887.524237	0.447662
887.707641	0.447679
887.891026	0.447726
888.074393	0.447804
888.257741	0.447483
888.441072	0.447162
888.624384	0.446488
888.807678	0.446500
888.990954	0.446003
889.174211	0.445522
889.357451	0.445369
889.540672	0.445570
889.723875	0.445387
889.907059	0.445024
890.090226	0.445287
890.273374	0.445555
890.456504	0.445562
890.639616	0.445983
890.822709	0.446290
891.005785	0.446717
891.188842	0.446793
891.371881	0.446270
891.554901	0.446497
891.737904	0.446223
891.920888	0.446176
892.103854	0.445693
892.286802	0.445346
892.469731	0.445398
892.652643	0.445040
892.835536	0.444948
893.018410	0.444920
893.201267	0.444815
893.384106	0.444767
893.566926	0.444193
893.749728	0.444474
893.932511	0.444206
894.115277	0.443794
894.298024	0.443512
894.480753	0.442932
894.663464	0.442969
894.846157	0.442988
895.028831	0.442762
895.211487	0.442951
895.394125	0.442698
895.576745	0.443117
895.759346	0.442888
895.941930	0.442951
896.124495	0.442879
896.307041	0.442636
896.489570	0.442756
896.672080	0.443056
896.854573	0.442333
897.037046	0.442262
897.219502	0.441772
897.401940	0.441431
897.584359	0.441154
897.766760	0.440622
897.949143	0.440450
898.131507	0.439806
898.313854	0.438810
898.496182	0.438833
898.678492	0.438513
898.860783	0.438210
899.043057	0.437790
899.225312	0.437378
899.407549	0.437312
899.589768	0.436861
899.771968	0.437123
899.954151	0.437509
900.136315	0.437338
900.318461	0.436959
900.500588	0.436816
900.682698	0.437352
900.864789	0.436740
901.046862	0.436503
901.228917	0.436196
901.410953	0.435215
901.592971	0.435271
901.774972	0.435219
901.956953	0.434670
902.138917	0.434330
902.320862	0.433473
902.502790	0.433350
902.684699	0.432807
902.866589	0.432926
903.048462	0.432311
903.230316	0.431827
903.412152	0.431076
903.593970	0.430966
903.775770	0.430342
903.957551	0.429894
904.139314	0.429592
904.321059	0.429772
904.502786	0.428913
904.684494	0.429276
904.866185	0.428128
905.047857	0.427626
905.229510	0.426272
905.411146	0.426007
905.592763	0.425833
905.774363	0.424881
905.955943	0.424756
906.137506	0.424138
906.319051	0.423665
906.500577	0.423171
906.682085	0.422704
906.863575	0.422702
907.045046	0.421964
907.226500	0.421152
907.407935	0.420781
907.589352	0.420114
907.770750	0.419562
907.952131	0.418518
908.133493	0.418286
908.314837	0.417691
908.496163	0.417411
908.677470	0.417323
908.858760	0.417190
909.040031	0.417328
909.221284	0.417158
909.402518	0.417088
909.583735	0.416528
909.764933	0.415859
909.946113	0.415562
910.127275	0.415355
910.308418	0.414936
910.489544	0.414029
910.670651	0.413675
910.851740	0.412522
911.032810	0.412484
911.213863	0.412316
911.394897	0.412262
911.575913	0.411877
911.756911	0.410721
911.937890	0.409684
912.118851	0.408845
912.299794	0.407962
912.480719	0.407355
912.661626	0.407186
912.842514	0.407174
913.023384	0.406659
913.204236	0.405727
913.385070	0.405719
913.565886	0.405724
913.746683	0.405730
913.927462	0.405013
914.108223	0.403908
914.288965	0.402487
914.469690	0.401010
914.650396	0.400226
914.831084	0.400063
915.011754	0.399270
915.192405	0.398397
915.373038	0.398021
915.553653	0.397054
915.734250	0.397424
915.914829	0.396002
916.095389	0.395694
916.275931	0.394844
916.456455	0.393818
916.636961	0.393282
916.817448	0.392708
916.997917	0.391914
917.178368	0.391718
917.358801	0.390534
917.539216	0.390687
917.719612	0.389351
917.899990	0.388617
918.080350	0.388016
918.260692	0.386979
918.441015	0.386061
918.621320	0.384325
918.801607	0.383324
918.981876	0.382649
919.162127	0.382077
919.342359	0.381688
919.522573	0.380881
919.702769	0.379978
919.882947	0.379603
920.063106	0.379332
920.243247	0.378554
920.423370	0.377652
920.603475	0.376683
920.783562	0.374916
920.963630	0.374065
921.143680	0.373442
921.323712	0.372260
921.503725	0.371313
921.683721	0.370532
921.863698	0.370448
922.043657	0.370141
922.223598	0.369988
922.403520	0.370512
922.583424	0.369901
922.763311	0.369286
922.943178	0.369297
923.123028	0.368672
923.302859	0.367026
923.482673	0.367131
923.662467	0.366213
923.842244	0.364612
924.022003	0.363475
924.201743	0.362610
924.381465	0.361530
924.561169	0.359925
924.740854	0.358799
924.920522	0.358497
925.100171	0.356652
925.279802	0.355366
925.459414	0.354075
925.639009	0.352829
925.818585	0.352186
925.998143	0.351067
926.177683	0.350882
926.357205	0.349564
926.536708	0.349003
926.716193	0.347371
926.895660	0.346868
927.075109	0.346372
927.254539	0.344960
927.433951	0.344314
927.613345	0.343769
927.792721	0.342064
927.972079	0.341682
928.151418	0.340264
928.330739	0.340356
928.510042	0.339025
928.689327	0.338291
928.868593	0.338325
929.047841	0.336863
929.227071	0.335487
929.406283	0.335103
929.585476	0.333349
929.764652	0.332068
929.943809	0.331099
930.122948	0.330563
930.302068	0.329476
930.481171	0.327974
930.660255	0.326726
930.839321	0.326159
931.018369	0.324785
931.197398	0.324881
931.376409	0.324828
931.555402	0.323676
931.734377	0.322347
931.913334	0.321280
932.092272	0.320493
932.271192	0.320000
932.450094	0.318558
932.628978	0.317867
932.807844	0.316419
932.986691	0.314213
933.165520	0.312798
933.344331	0.312178
933.523123	0.311380
933.701898	0.309556
933.880654	0.308206
934.059392	0.306342
934.238111	0.305168
934.416813	0.304258
934.595496	0.303537
934.774161	0.303103
934.952808	0.301847
935.131437	0.301425
935.310047	0.301095
935.488639	0.300150
935.667213	0.299906
935.845769	0.299148
936.024306	0.297417
936.202825	0.296433
936.381326	0.295595
936.559809	0.294406
936.738274	0.291911
936.916720	0.290858
937.095148	0.290271
937.273558	0.288570
937.451950	0.286234
937.630323	0.285044
937.808678	0.284154
937.987015	0.282176
938.165334	0.280650
938.343635	0.279417
938.521917	0.278846
938.700181	0.276938
938.878427	0.276964
939.056655	0.277169
939.234864	0.275946
939.413055	0.273799
939.591228	0.272856
939.769383	0.273687
939.947519	0.274261
940.125638	0.272596
940.303738	0.271218
940.481820	0.269475
940.659883	0.269295
940.837929	0.268523
941.015956	0.267941
941.193965	0.267331
941.371955	0.264698
941.549928	0.263717
941.727882	0.261140
941.905818	0.260858
942.083736	0.260167
942.261636	0.256424
942.439517	0.255333
942.617380	0.255867
942.795225	0.254167
942.973052	0.252356
943.150860	0.250508
943.328651	0.249790
943.506423	0.248501
943.684176	0.247333
943.861912	0.248043
944.039629	0.245998
944.217328	0.242408
944.395009	0.240088
944.572672	0.239665
944.750317	0.237416
944.927943	0.236823
945.105551	0.234736
945.283141	0.234891
945.460712	0.233038
945.638265	0.233485
945.815801	0.234508
945.993317	0.234328
946.170816	0.232565
946.348297	0.231420
946.525759	0.230232
946.703203	0.229262
946.880629	0.226897
947.058036	0.226593
947.235425	0.225075
947.412797	0.223433
947.590149	0.222775
947.767484	0.221792
947.944800	0.222372
948.122099	0.221864
948.299379	0.221032
948.476640	0.220527
948.653884	0.218937
948.831109	0.217158
949.008316	0.215785
949.185505	0.213698
949.362676	0.213011
949.539828	0.210616
949.716962	0.208267
949.894078	0.208362
950.071176	0.206415
950.248256	0.206418
950.425317	0.205907
950.602360	0.204263
950.779385	0.204210
950.956391	0.202666
951.133380	0.200168
951.310350	0.200312
951.487302	0.199579
951.664235	0.196996
951.841151	0.193778
952.018048	0.191286
952.194927	0.191182
952.371788	0.191246
952.548631	0.191918
952.725455	0.193294
952.902261	0.192033
953.079049	0.189107
953.255819	0.190355
953.432570	0.189448
953.609303	0.190220
953.786018	0.188245
953.962715	0.187499
954.139394	0.186609
954.316054	0.186076
954.492696	0.185981
954.669320	0.186804
954.845926	0.184649
955.022513	0.184968
955.199083	0.185524
955.375634	0.186250
955.552166	0.184187
955.728681	0.182667
955.905177	0.180022
956.081655	0.180659
956.258115	0.180095
956.434557	0.181290
956.610980	0.181735
956.787385	0.179098
956.963772	0.177898
957.140141	0.177054
957.316492	0.177078
957.492824	0.176793
957.669138	0.174325
957.845434	0.173137
958.021712	0.172563
958.197971	0.171359
958.374212	0.170887
958.550435	0.169827
958.726640	0.170953
958.902826	0.168380
959.078995	0.171555
959.255145	0.171496
959.431277	0.170560
959.607390	0.170079
959.783486	0.169411
959.959563	0.169525
960.135622	0.168621
960.311662	0.166791
960.487685	0.165679
960.663689	0.162415
960.839675	0.161687
961.015643	0.161729
961.191593	0.161585
961.367524	0.162040
961.543437	0.160865
961.719332	0.161248
961.895209	0.161705
962.071067	0.163404
962.246907	0.161728
962.422730	0.161787
962.598533	0.162015
962.774319	0.161912
962.950086	0.161269
963.125835	0.163493
963.301566	0.164050
963.477279	0.162836
963.652973	0.161127
963.828650	0.160992
964.004308	0.158972
964.179947	0.157002
964.355569	0.153452
964.531172	0.155212
964.706757	0.154108
964.882324	0.153254
965.057873	0.154282
965.233403	0.154573
965.408916	0.154883
965.584410	0.155497
965.759885	0.156816
965.935343	0.158438
966.110782	0.153657
966.286203	0.153158
966.461606	0.151639
966.636991	0.149144
966.812357	0.149795
966.987705	0.148191
967.163035	0.150959
967.338347	0.147743
967.513641	0.149221
967.688916	0.152924
967.864173	0.152282
968.039412	0.154004
968.214632	0.154018
968.389835	0.153694
968.565019	0.156873
968.740185	0.154548
968.915333	0.158724
969.090462	0.158803
969.265573	0.159336
969.440667	0.158138
969.615741	0.157719
969.790798	0.156774
969.965836	0.157494
970.140856	0.157406
970.315858	0.156923
970.490842	0.154787
970.665808	0.153536
970.840755	0.152326
971.015684	0.152644
971.190595	0.152592
971.365487	0.155640
971.540362	0.155548
971.715218	0.157275
971.890056	0.157321
972.064875	0.155990
972.239677	0.154890
972.414460	0.151364
972.589225	0.154358
972.763972	0.154500
972.938700	0.155235
973.113411	0.154915
973.288103	0.155242
973.462777	0.156706
973.637432	0.159104
973.812070	0.160462
973.986689	0.162275
974.161290	0.159867
974.335873	0.159659
974.510437	0.160844
974.684984	0.159897
974.859512	0.155722
975.034022	0.155288
975.208513	0.152309
975.382987	0.149983
975.557442	0.149061
975.731879	0.148983
975.906298	0.149143
976.080698	0.143807
976.255080	0.143984
976.429445	0.148738
976.603790	0.146399
976.778118	0.148136
976.952427	0.150777
977.126719	0.150417
977.300992	0.150895
977.475246	0.150694
977.649483	0.152006
977.823701	0.152200
977.997901	0.149522
978.172083	0.151282
978.346247	0.149921
978.520392	0.149796
978.694519	0.151638
978.868628	0.151885
979.042719	0.150550
979.216791	0.151801
979.390845	0.153349
979.564882	0.152660
979.738899	0.150256
979.912899	0.152413
980.086880	0.151858
980.260843	0.152093
980.434788	0.150219
980.608715	0.152957
980.782623	0.151821
980.956514	0.149208
981.130386	0.151203
981.304240	0.152040
981.478075	0.149730
981.651892	0.149899
981.825692	0.151792
981.999472	0.152686
982.173235	0.151140
982.346980	0.152251
982.520706	0.154935
982.694414	0.153539
982.868104	0.152907
983.041775	0.156049
983.215428	0.154549
983.389064	0.151408
983.562680	0.154181
983.736279	0.154014
983.909860	0.155183
984.083422	0.155389
984.256966	0.155060
984.430491	0.157155
984.603999	0.155857
984.777488	0.157090
984.950959	0.158991
985.124412	0.155701
985.297847	0.158291
985.471263	0.156576
985.644661	0.155113
985.818041	0.154706
985.991403	0.155036
986.164747	0.155547
986.338072	0.153837
986.511379	0.156892
986.684668	0.159289
986.857938	0.155804
987.031191	0.156367
987.204425	0.157769
987.377641	0.157634
987.550839	0.154883
987.724018	0.151641
987.897179	0.151629
988.070322	0.147517
988.243447	0.145254
988.416554	0.146638
988.589642	0.145788
988.762712	0.143955
988.935764	0.145079
989.108798	0.146892
989.281813	0.148875
989.454811	0.149207
989.627790	0.150311
989.800751	0.152577
989.973693	0.151206
990.146617	0.151265
990.319524	0.152088
990.492412	0.150685
990.665281	0.149503
990.838133	0.148481
991.010966	0.148712
991.183781	0.148229
991.356578	0.147685
991.529356	0.148110
991.702117	0.149747
991.874859	0.149762
992.047583	0.150276
992.220288	0.151438
992.392976	0.152563
992.565645	0.153240
992.738296	0.152589
992.910929	0.153165
993.083543	0.153108
993.256139	0.150984
993.428718	0.150238
993.601277	0.148128
993.773819	0.148884
993.946342	0.149410
994.118848	0.147488
994.291335	0.148229
994.463803	0.147010
994.636254	0.146647
994.808686	0.147712
994.981100	0.144983
995.153496	0.147397
995.325874	0.146362
995.498233	0.147673
995.670574	0.148575
995.842897	0.148531
996.015202	0.148650
996.187488	0.149052
996.359757	0.147179
996.532007	0.150445
996.704239	0.148357
996.876452	0.146853
997.048648	0.144100
997.220825	0.144007
997.392984	0.143257
997.565124	0.142257
997.737247	0.140695
997.909351	0.142742
998.081437	0.140150
998.253505	0.139324
998.425554	0.140418
998.597586	0.141946
998.769599	0.140775
998.941594	0.142199
999.113571	0.144886
999.285529	0.146524
999.457469	0.146406
999.629391	0.150023
999.801295	0.152043
999.973181	0.151182
1000.145048	0.150002
1000.316897	0.151725
1000.488728	0.150437
1000.660541	0.150834
1000.832335	0.151471
1001.004111	0.149374
1001.175869	0.148633
1001.347609	0.147445
1001.519331	0.146807
1001.691034	0.148733
1001.862719	0.146850
1002.034386	0.145960
1002.206035	0.142629
1002.377665	0.140581
1002.549277	0.142073
1002.720871	0.138900
1002.892447	0.139046
1003.064004	0.140590
1003.235544	0.139634
1003.407065	0.142086
1003.578568	0.142753
1003.750052	0.146163
1003.921519	0.147034
1004.092967	0.147718
1004.264397	0.150392
1004.435809	0.150507
1004.607202	0.149498
1004.778577	0.147716
1004.949934	0.145309
1005.121273	0.146969
1005.292594	0.144269
1005.463896	0.143593
1005.635180	0.142356
1005.806446	0.141816
1005.977694	0.145430
1006.148923	0.144874
1006.320135	0.145615
1006.491328	0.146901
1006.662503	0.144108
1006.833659	0.145140
1007.004798	0.144490
1007.175918	0.145455
1007.347020	0.145413
1007.518103	0.142025
1007.689169	0.141629
1007.860216	0.142686
1008.031245	0.143100
1008.202256	0.144291
1008.373248	0.144189
1008.544223	0.144862
1008.715179	0.145056
1008.886117	0.146493
1009.057036	0.147298
1009.227938	0.149748
1009.398821	0.149419
1009.569686	0.149104
1009.740533	0.148567
1009.911361	0.147599
1010.082172	0.147375
1010.252964	0.146065
1010.423738	0.144246
1010.594493	0.144951
1010.765231	0.143319
1010.935950	0.140664
1011.106651	0.140469
1011.277334	0.140462
1011.447998	0.140552
1011.618645	0.141550
1011.789273	0.141183
1011.959882	0.141977
1012.130474	0.139261
1012.301048	0.139505
1012.471603	0.141089
1012.642140	0.140558
1012.812658	0.141867
1012.983159	0.140798
1013.153641	0.138897
1013.324105	0.139339
1013.494551	0.140433
1013.664979	0.140217
1013.835388	0.140245
1014.005779	0.142106
1014.176152	0.141670
1014.346507	0.141364
1014.516843	0.141805
1014.687162	0.142386
1014.857462	0.142810
1015.027744	0.142636
1015.198007	0.145314
1015.368252	0.146644
1015.538480	0.145953
1015.708689	0.144849
1015.878879	0.145070
1016.049052	0.146181
1016.219206	0.145776
1016.389342	0.146157
1016.559460	0.142914
1016.729559	0.142570
1016.899641	0.141315
1017.069704	0.140626
1017.239749	0.141822
1017.409775	0.140168
1017.579784	0.139658
1017.749774	0.141504
1017.919746	0.140586
1018.089700	0.140523
1018.259635	0.137904
1018.429553	0.137612
1018.599452	0.137235
1018.769333	0.138077
1018.939195	0.137951
1019.109040	0.137336
1019.278866	0.138099
1019.448674	0.138314
1019.618464	0.140438
1019.788235	0.140994
1019.957989	0.140851
1020.127724	0.140023
1020.297441	0.138650
1020.467139	0.138822
1020.636820	0.138921
1020.806482	0.138202
1020.976126	0.138369
1021.145752	0.137845
1021.315359	0.138985
1021.484948	0.140571
1021.654519	0.142774
1021.824072	0.141962
1021.993607	0.141051
1022.163123	0.140547
1022.332621	0.138731
1022.502101	0.138438
1022.671563	0.138089
1022.841007	0.138221
1023.010432	0.138365
1023.179839	0.136408
1023.349228	0.138401
1023.518598	0.138749
1023.687951	0.140114
1023.857285	0.141250
1024.026601	0.141427
1024.195899	0.141419
1024.365178	0.141354
1024.534439	0.140856
1024.703682	0.140855
1024.872907	0.140409
1025.042114	0.139666
1025.211302	0.139738
1025.380472	0.141161
1025.549624	0.143045
1025.718758	0.143489
1025.887873	0.141753
1026.056970	0.141092
1026.226049	0.140342
1026.395110	0.141296
1026.564153	0.142361
1026.733177	0.140722
1026.902183	0.138412
1027.071171	0.135477
1027.240141	0.135363
1027.409092	0.137034
1027.578026	0.138454
1027.746940	0.141977
1027.915837	0.140884
1028.084716	0.141806
1028.253576	0.140905
1028.422418	0.140895
1028.591242	0.142992
1028.760048	0.141203
1028.928835	0.141043
1029.097604	0.140111
1029.266355	0.137669
1029.435088	0.139202
1029.603803	0.138105
1029.772499	0.140552
1029.941177	0.142662
1030.109837	0.140561
1030.278478	0.142129
1030.447102	0.141253
1030.615707	0.141658
1030.784294	0.142531
1030.952863	0.140482
1031.121413	0.141309
1031.289945	0.138311
1031.458460	0.135733
1031.626955	0.135685
1031.795433	0.135226
1031.963892	0.135483
1032.132334	0.134472
1032.300756	0.132493
1032.469161	0.133066
1032.637548	0.132318
1032.805916	0.132461
1032.974266	0.132286
1033.142598	0.133106
1033.310911	0.134641
1033.479207	0.132943
1033.647484	0.131962
1033.815743	0.132387
1033.983983	0.132122
1034.152206	0.130866
1034.320410	0.132929
1034.488596	0.133265
1034.656764	0.132910
1034.824914	0.131923
1034.993045	0.132868
1035.161158	0.132569
1035.329253	0.132789
1035.497330	0.133923
1035.665388	0.136067
1035.833428	0.135181
1036.001450	0.135074
1036.169454	0.134739
1036.337440	0.135296
1036.505407	0.137737
1036.673356	0.138453
1036.841287	0.137559
1037.009200	0.135637
1037.177094	0.134442
1037.344970	0.133773
1037.512828	0.135453
1037.680668	0.134737
1037.848489	0.134211
1038.016293	0.132894
1038.184078	0.132216
1038.351845	0.133951
1038.519593	0.134904
1038.687324	0.135989
1038.855036	0.138625
1039.022730	0.137434
1039.190406	0.137270
1039.358063	0.139735
1039.525702	0.138005
1039.693323	0.139479
1039.860926	0.139444
1040.028511	0.138100
1040.196077	0.137141
1040.363625	0.136178
1040.531155	0.137121
1040.698667	0.138715
1040.866161	0.135076
1041.033636	0.137051
1041.201093	0.137570
1041.368532	0.140692
1041.535952	0.142658
1041.703355	0.145013
1041.870739	0.146053
1042.038105	0.146937
1042.205452	0.147224
1042.372782	0.148740
1042.540093	0.149663
1042.707386	0.148578
1042.874661	0.143198
1043.041918	0.143176
1043.209156	0.140137
1043.376376	0.137660
1043.543578	0.136553
1043.710762	0.134137
1043.877927	0.132257
1044.045074	0.131077
1044.212203	0.131626
1044.379314	0.133424
1044.546407	0.131529
1044.713481	0.132853
1044.880537	0.133885
1045.047575	0.132492
1045.214595	0.134028
1045.381596	0.136026
1045.548579	0.135953
1045.715544	0.136961
1045.882491	0.135627
1046.049420	0.136985
1046.216330	0.137482
1046.383222	0.138567
1046.550096	0.137767
1046.716951	0.138576
1046.883789	0.138005
1047.050608	0.136560
1047.217409	0.136546
1047.384192	0.137622
1047.550956	0.138223
1047.717703	0.137660
1047.884431	0.134262
1048.051140	0.136716
1048.217832	0.136271
1048.384505	0.136118
1048.551161	0.136945
1048.717798	0.136327
1048.884416	0.135928
1049.051017	0.134793
1049.217599	0.134498
1049.384163	0.136422
1049.550709	0.135081
1049.717237	0.134652
1049.883746	0.134903
1050.050237	0.137304
1050.216710	0.136276
1050.383165	0.136398
1050.549601	0.138604
1050.716019	0.137137
1050.882420	0.136873
1051.048801	0.136904
1051.215165	0.137843
1051.381510	0.137084
1051.547837	0.134606
1051.714146	0.136827
1051.880437	0.137239
1052.046709	0.134390
1052.212964	0.134986
1052.379200	0.134891
1052.545417	0.135987
1052.711617	0.135170
1052.877798	0.135747
1053.043961	0.135249
1053.210106	0.132734
1053.376233	0.133594
1053.542341	0.133909
1053.708432	0.137028
1053.874504	0.137636
1054.040557	0.137751
1054.206593	0.134963
1054.372610	0.134806
1054.538609	0.134816
1054.704590	0.135541
1054.870553	0.135617
1055.036497	0.136661
1055.202424	0.131844
1055.368331	0.132181
1055.534221	0.132268
1055.700093	0.135768
1055.865946	0.136020
1056.031781	0.138116
1056.197598	0.138439
1056.363397	0.138101
1056.529177	0.137186
1056.694939	0.139174
1056.860683	0.138757
1057.026409	0.135799
1057.192116	0.133996
1057.357806	0.132830
1057.523477	0.130395
1057.689130	0.130221
1057.854764	0.129471
1058.020381	0.130394
1058.185979	0.131496
1058.351559	0.129483
1058.517120	0.129021
1058.682664	0.131236
1058.848189	0.133045
1059.013696	0.134028
1059.179185	0.133990
1059.344656	0.132569
1059.510108	0.132074
1059.675542	0.130576
1059.840958	0.132283
1060.006356	0.132202
1060.171735	0.133017
1060.337096	0.130380
1060.502439	0.132328
1060.667764	0.131953
1060.833071	0.135577
1060.998359	0.136046
1061.163629	0.135690
1061.328881	0.135105
1061.494115	0.136677
1061.659330	0.134579
1061.824527	0.137218
1061.989706	0.134581
1062.154867	0.135465
1062.320010	0.132284
1062.485134	0.132190
1062.650240	0.134945
1062.815328	0.138792
1062.980398	0.141424
1063.145449	0.139491
1063.310482	0.137160
1063.475497	0.136642
1063.640494	0.134906
1063.805473	0.136759
1063.970433	0.137636
1064.135375	0.137933
1064.300299	0.133325
1064.465204	0.131576
1064.630092	0.133615
1064.794961	0.135230
1064.959812	0.138289
1065.124645	0.140837
1065.289459	0.139142
1065.454256	0.136711
1065.619034	0.133951
1065.783793	0.137710
1065.948535	0.138563
1066.113258	0.139907
1066.277964	0.139065
1066.442651	0.136629
1066.607319	0.135069
1066.771970	0.137024
1066.936602	0.138936
1067.101216	0.142226
1067.265812	0.138721
1067.430389	0.138762
1067.594949	0.139176
1067.759490	0.141046
1067.924013	0.143275
1068.088518	0.142099
1068.253004	0.141417
1068.417472	0.141413
1068.581922	0.140318
1068.746354	0.142987
1068.910768	0.143145
1069.075163	0.140929
1069.239540	0.137980
1069.403899	0.134807
1069.568240	0.134787
1069.732562	0.133727
1069.896866	0.131454
1070.061152	0.131162
1070.225420	0.128211
1070.389670	0.128654
1070.553901	0.128929
1070.718114	0.130946
1070.882309	0.133608
1071.046486	0.133064
1071.210644	0.135652
1071.374784	0.138207
1071.538906	0.135773
1071.703010	0.135141
1071.867096	0.134849
1072.031163	0.136766
1072.195212	0.135652
1072.359243	0.134741
1072.523256	0.136699
1072.687250	0.133860
1072.851226	0.132641
1073.015184	0.135839
1073.179124	0.139202
1073.343045	0.137831
1073.506949	0.137351
1073.670834	0.136809
1073.834701	0.140429
1073.998549	0.142650
1074.162380	0.145706
1074.326192	0.148531
1074.489986	0.146697
1074.653761	0.143821
1074.817519	0.145994
1074.981258	0.144793
1075.144979	0.146431
1075.308682	0.140534
1075.472367	0.137263
1075.636033	0.135878
1075.799681	0.134521
1075.963311	0.136647
1076.126923	0.139229
1076.290516	0.141011
1076.454092	0.140776
1076.617649	0.141307
1076.781187	0.146321
1076.944708	0.147485
1077.108210	0.148057
1077.271695	0.148862
1077.435160	0.148100
1077.598608	0.148027
1077.762038	0.144626
1077.925449	0.144555
1078.088842	0.140666
1078.252217	0.139166
1078.415573	0.138797
1078.578912	0.136673
1078.742232	0.136391
1078.905534	0.138945
1079.068817	0.141617
1079.232083	0.142639
1079.395330	0.145920
1079.558559	0.150652
1079.721770	0.150724
1079.884962	0.151425
1080.048136	0.151152
1080.211293	0.151158
1080.374430	0.147043
1080.537550	0.144180
1080.700651	0.145432
1080.863735	0.144773
1081.026800	0.146551
1081.189846	0.147261
1081.352875	0.148267
1081.515885	0.153466
1081.678877	0.152464
1081.841851	0.153358
1082.004807	0.153935
1082.167744	0.152185
1082.330663	0.151785
1082.493564	0.149589
1082.656447	0.149160
1082.819312	0.145944
1082.982158	0.145624
1083.144986	0.147658
1083.307796	0.145013
1083.470587	0.146044
1083.633361	0.146043
1083.796116	0.146657
1083.958853	0.147600
1084.121571	0.148339
1084.284272	0.148603
1084.446954	0.144469
1084.609618	0.144011
1084.772264	0.148697
1084.934892	0.147363
1085.097501	0.149860
1085.260092	0.146668
1085.422665	0.141754
1085.585220	0.136754
1085.747756	0.140195
1085.910274	0.140976
1086.072774	0.138292
1086.235256	0.138252
1086.397720	0.139600
1086.560165	0.138351
1086.722592	0.139786
1086.885001	0.142570
1087.047392	0.144612
1087.209764	0.145380
1087.372119	0.148426
1087.534455	0.151048
1087.696772	0.151054
1087.859072	0.153632
1088.021353	0.152223
1088.183616	0.154046
1088.345861	0.157127
1088.508088	0.159740
1088.670296	0.160478
1088.832486	0.161427
1088.994658	0.160691
1089.156812	0.157947
1089.318948	0.156296
1089.481065	0.159185
1089.643164	0.158076
1089.805245	0.155442
1089.967308	0.152938
1090.129352	0.149872
1090.291378	0.149821
1090.453386	0.149913
1090.615376	0.151208
1090.777347	0.147604
1090.939301	0.146081
1091.101236	0.148352
1091.263153	0.150340
1091.425051	0.152268
1091.586932	0.153838
1091.748794	0.152075
1091.910638	0.151919
1092.072463	0.152052
1092.234271	0.155758
1092.396060	0.151013
1092.557831	0.148150
1092.719584	0.147199
1092.881319	0.147256
1093.043035	0.148193
1093.204733	0.149085
1093.366413	0.145740
1093.528075	0.148587
1093.689718	0.142584
1093.851343	0.146446
1094.012950	0.148987
1094.174539	0.151320
1094.336110	0.150538
1094.497662	0.150972
1094.659196	0.145892
1094.820712	0.149055
1094.982210	0.148324
1095.143689	0.155752
1095.305151	0.156294
1095.466594	0.154072
1095.628018	0.147368
1095.789425	0.147217
1095.950813	0.144587
1096.112183	0.149391
1096.273535	0.149734
1096.434869	0.143679
1096.596184	0.139887
1096.757482	0.141937
1096.918761	0.142870
1097.080021	0.147515
1097.241264	0.149439
1097.402488	0.150971
1097.563694	0.152145
1097.724882	0.153336
1097.886052	0.154998
1098.047203	0.154121
1098.208336	0.155354
1098.369451	0.155233
1098.530548	0.155852
1098.691627	0.153918
1098.852687	0.151342
1099.013729	0.149001
1099.174753	0.146951
1099.335758	0.150648
1099.496746	0.153479
1099.657715	0.148709
1099.818666	0.145676
1099.979599	0.144822
1100.140513	0.147779
1100.301409	0.152733
1100.462287	0.155198
1100.623147	0.155263
1100.783989	0.154532
1100.944812	0.154379
1101.105617	0.153436
1101.266404	0.155497
1101.427173	0.154688
1101.587923	0.151024
1101.748656	0.145714
1101.909370	0.143401
1102.070066	0.142547
1102.230743	0.142703
1102.391403	0.142787
1102.552044	0.146892
1102.712667	0.148930
1102.873271	0.150618
1103.033858	0.153941
1103.194426	0.153792
1103.354976	0.151274
1103.515508	0.154629
1103.676021	0.155980
1103.836517	0.158969
1103.996994	0.157501
1104.157453	0.160149
1104.317893	0.161980
1104.478316	0.160937
1104.638720	0.163327
1104.799106	0.164983
1104.959474	0.163475
1105.119823	0.169471
1105.280155	0.161197
1105.440468	0.163675
1105.600763	0.160885
1105.761039	0.157719
1105.921298	0.158990
1106.081538	0.159537
1106.241760	0.159703
1106.401964	0.161111
1106.562149	0.152802
1106.722316	0.160739
1106.882465	0.158276
1107.042596	0.157736
1107.202709	0.163444
1107.362803	0.163686
1107.522879	0.160095
1107.682937	0.161149
1107.842977	0.162105
1108.002999	0.157532
1108.163002	0.157053
1108.322987	0.155111
1108.482954	0.154077
1108.642902	0.147701
1108.802833	0.147686
1108.962745	0.151856
1109.122639	0.153248
1109.282515	0.155929
1109.442372	0.157745
1109.602211	0.156868
1109.762032	0.153069
1109.921835	0.152543
1110.081620	0.151212
1110.241386	0.150475
1110.401134	0.149457
1110.560864	0.149169
1110.720576	0.148946
1110.880269	0.153885
1111.039945	0.152100
1111.199602	0.157012
1111.359240	0.158354
1111.518861	0.156789
1111.678463	0.156555
1111.838047	0.157239
1111.997613	0.158789
1112.157161	0.158496
1112.316690	0.152788
1112.476202	0.153025
1112.635695	0.155945
1112.795169	0.154028
1112.954626	0.158007
1113.114064	0.159310
1113.273484	0.161384
1113.432886	0.164964
1113.592270	0.163205
1113.751635	0.170733
1113.910983	0.171718
1114.070312	0.170883
1114.229622	0.173938
1114.388915	0.173314
1114.548189	0.175878
1114.707445	0.173163
1114.866683	0.165355
1115.025903	0.160027
1115.185104	0.164090
1115.344287	0.165759
1115.503452	0.167877
1115.662599	0.174145
1115.821727	0.178000
1115.980838	0.179175
1116.139930	0.176417
1116.299004	0.180008
1116.458059	0.189874
1116.617097	0.187414
1116.776116	0.185936
1116.935117	0.182849
1117.094099	0.177355
1117.253064	0.177295
1117.412010	0.174257
1117.570938	0.185602
1117.729848	0.179562
1117.888740	0.174828
1118.047613	0.177036
1118.206468	0.172247
1118.365305	0.170255
1118.524124	0.169419
1118.682924	0.168874
1118.841707	0.171630
1119.000471	0.168170
1119.159216	0.172162
1119.317944	0.169868
1119.476653	0.164741
1119.635344	0.171350
1119.794017	0.180086
1119.952672	0.176166
1120.111308	0.174542
1120.269927	0.174493
1120.428527	0.171714
1120.587108	0.176940
1120.745672	0.175394
1120.904217	0.174623
1121.062744	0.172647
1121.221253	0.170431
1121.379744	0.176806
1121.538216	0.178296
1121.696671	0.180875
1121.855107	0.182373
1122.013524	0.185031
1122.171924	0.189630
1122.330305	0.192098
1122.488668	0.191267
1122.647013	0.187154
1122.805340	0.185832
1122.963648	0.177615
1123.121938	0.175341
1123.280210	0.175280
1123.438464	0.167245
1123.596700	0.168900
1123.754917	0.169715
1123.913116	0.172834
1124.071297	0.173532
1124.229459	0.179042
1124.387604	0.185386
1124.545730	0.184959
1124.703838	0.179499
1124.861928	0.175897
1125.019999	0.177878
1125.178052	0.176663
1125.336088	0.177529
1125.494104	0.182374
1125.652103	0.174740
1125.810083	0.172038
1125.968045	0.162795
1126.125989	0.171677
1126.283915	0.167836
1126.441823	0.161130
1126.599712	0.160127
1126.757583	0.157709
1126.915436	0.157856
1127.073270	0.160901
1127.231087	0.166019
1127.388885	0.175178
1127.546665	0.173582
1127.704426	0.181517
1127.862170	0.177704
1128.019895	0.179919
1128.177602	0.184466
1128.335291	0.178326
1128.492961	0.171404
1128.650614	0.173725
1128.808248	0.174314
1128.965864	0.174099
1129.123461	0.174285
1129.281041	0.186573
1129.438602	0.178804
1129.596145	0.168251
1129.753670	0.170944
1129.911176	0.178410
1130.068665	0.174234
1130.226135	0.179007
1130.383587	0.171673
1130.541020	0.174088
1130.698436	0.167124
1130.855833	0.176057
1131.013212	0.184787
1131.170573	0.187417
1131.327915	0.184747
1131.485239	0.184534
1131.642545	0.178348
1131.799833	0.182237
1131.957103	0.187069
1132.114354	0.186702
1132.271588	0.184615
1132.428803	0.181221
1132.585999	0.181705
1132.743178	0.182215
1132.900338	0.181237
1133.057480	0.188018
1133.214604	0.181775
1133.371710	0.177475
1133.528797	0.187175
1133.685866	0.184473
1133.842917	0.188694
1133.999950	0.181913
1134.156964	0.185256
1134.313960	0.190921
1134.470938	0.178469
1134.627898	0.180763
1134.784840	0.187769
1134.941763	0.190178
1135.098668	0.191664
1135.255555	0.194853
1135.412424	0.200531
1135.569274	0.198804
1135.726107	0.196131
1135.882921	0.202690
1136.039716	0.198860
1136.196494	0.183985
1136.353253	0.181419
1136.509995	0.179619
1136.666717	0.175365
1136.823422	0.166293
1136.980109	0.171750
1137.136777	0.179964
1137.293427	0.173796
1137.450059	0.185304
1137.606672	0.197922
1137.763267	0.194959
1137.919844	0.197646
1138.076403	0.183716
1138.232944	0.191967
1138.389466	0.181411
1138.545971	0.176038
1138.702457	0.177905
1138.858924	0.177568
1139.015374	0.164450
1139.171805	0.158645
1139.328218	0.154332
1139.484613	0.163061
1139.640990	0.156724
1139.797348	0.163045
1139.953688	0.164995
1140.110010	0.160199
1140.266314	0.155594
1140.422600	0.157244
1140.578867	0.154692
1140.735116	0.150828
1140.891347	0.153631
1141.047559	0.163984
1141.203754	0.156647
1141.359930	0.150774
1141.516088	0.158059
1141.672228	0.151677
1141.828349	0.156719
1141.984452	0.154411
1142.140537	0.159806
1142.296604	0.155313
1142.452653	0.143831
1142.608683	0.146537
1142.764695	0.144546
1142.920689	0.146868
1143.076665	0.166334
1143.232622	0.163536
1143.388562	0.168083
1143.544483	0.170045
1143.700385	0.188098
1143.856270	0.187698
1144.012136	0.183010
1144.167985	0.191381
1144.323814	0.192651
1144.479626	0.181622
1144.635420	0.183522
1144.791195	0.200609
1144.946952	0.209239
1145.102691	0.198748
1145.258411	0.215218
1145.414113	0.225751
1145.569798	0.223860
1145.725463	0.215875
1145.881111	0.205804
1146.036741	0.206247
1146.192352	0.186109
1146.347945	0.190580
1146.503519	0.185651
1146.659076	0.198776
1146.814614	0.184471
1146.970134	0.186619
1147.125636	0.180277
1147.281120	0.188530
1147.436585	0.182909
1147.592032	0.188414
1147.747461	0.176580
1147.902872	0.184177
1148.058265	0.165682
1148.213639	0.173203
1148.368995	0.174795
1148.524333	0.184706
1148.679653	0.192141
1148.834954	0.192422
1148.990237	0.192795
1149.145502	0.184175
1149.300749	0.177290
1149.455977	0.177030
1149.611188	0.178874
1149.766380	0.165972
1149.921553	0.178734
1150.076709	0.172883
1150.231846	0.182711
1150.386966	0.178637
1150.542066	0.185612
1150.697149	0.176731
1150.852214	0.161897
1151.007260	0.172948
1151.162288	0.173101
1151.317298	0.156698
1151.472289	0.159571
1151.627263	0.165183
1151.782218	0.167663
1151.937155	0.169499
1152.092073	0.172977
1152.246974	0.177024
1152.401856	0.171853
1152.556720	0.189987
1152.711566	0.197772
1152.866393	0.198743
1153.021203	0.189446
1153.175994	0.178564
1153.330767	0.168620
1153.485521	0.174284
1153.640258	0.183042
1153.794976	0.185155
1153.949676	0.178886
1154.104358	0.174674
1154.259021	0.172799
1154.413667	0.188370
1154.568294	0.208093
1154.722903	0.218782
1154.877493	0.215279
1155.032066	0.223452
1155.186620	0.215772
1155.341156	0.207364
1155.495674	0.198903
1155.650173	0.205212
1155.804654	0.184952
1155.959118	0.167989
1156.113562	0.179923
1156.267989	0.182528
1156.422397	0.177101
1156.576788	0.167077
1156.731160	0.167309
1156.885513	0.172111
1157.039849	0.150692
1157.194166	0.159479
1157.348465	0.171790
1157.502746	0.162990
1157.657009	0.143613
1157.811253	0.134865
1157.965479	0.131381
1158.119687	0.129173
1158.273877	0.125494
1158.428048	0.133978
1158.582201	0.138829
1158.736337	0.130144
1158.890453	0.132856
1159.044552	0.148966
1159.198632	0.150150
1159.352694	0.165635
1159.506738	0.169143
1159.660764	0.185257
1159.814771	0.192873
1159.968761	0.176719
1160.122732	0.181843
1160.276685	0.169538
1160.430619	0.170633
1160.584535	0.181557
1160.738434	0.201050
1160.892313	0.203851
1161.046175	0.189689
1161.200019	0.189990
1161.353844	0.203340
1161.507651	0.214319
1161.661440	0.234899
1161.815210	0.244110
1161.968962	0.246349
1162.122697	0.221987
1162.276412	0.240075
1162.430110	0.239753
1162.583789	0.237285
1162.737451	0.227992
1162.891094	0.221804
1163.044718	0.214417
1163.198325	0.204200
1163.351913	0.214862
1163.505483	0.210974
1163.659035	0.205362
1163.812569	0.183789
1163.966084	0.182470
1164.119581	0.178443
1164.273060	0.184472
1164.426521	0.178385
1164.579964	0.188052
1164.733388	0.155294
1164.886794	0.159429
1165.040182	0.157055
1165.193551	0.188572
1165.346903	0.193237
1165.500236	0.179948
1165.653551	0.188280
1165.806848	0.188855
1165.960126	0.187296
1166.113386	0.203735
1166.266628	0.225027
1166.419852	0.209597
1166.573058	0.219237
1166.726245	0.216390
1166.879414	0.230508
1167.032565	0.209313
1167.185698	0.212841
1167.338812	0.193963
1167.491909	0.184900
1167.644987	0.152968
1167.798046	0.148682
1167.951088	0.129391
1168.104111	0.120062
1168.257117	0.124425
1168.410103	0.125635
1168.563072	0.130656
1168.716023	0.147131
1168.868955	0.174910
1169.021869	0.179745
1169.174765	0.197392
1169.327642	0.178262
1169.480501	0.222694
1169.633343	0.228156
1169.786165	0.207759
1169.938970	0.191025
1170.091757	0.186802
1170.244525	0.166771
1170.397275	0.160887
1170.550007	0.143611
1170.702720	0.148348
1170.855415	0.104348
1171.008092	0.104644
1171.160751	0.123491
1171.313392	0.131727
1171.466014	0.068567
1171.618619	0.212760
1171.771205	0.212760
1171.923772	0.212760
