sample name	sample
index	674
start time	 03-22-2021  11:25:56 AM


Wavelength (nm)	Absorbance
494.344910	0.257808
494.563924	0.257808
494.782919	0.257808
495.001897	0.020323
495.220856	0.007319
495.439797	-0.005698
495.658719	-0.031563
495.877624	-0.083552
496.096510	-0.070292
496.315378	-0.062411
496.534227	-0.090513
496.753059	-0.084446
496.971872	-0.049872
497.190667	0.043771
497.409444	0.054547
497.628203	0.056923
497.846943	0.063910
498.065665	0.064257
498.284369	0.063721
498.503055	0.064468
498.721723	0.065151
498.940372	0.065575
499.159003	0.066258
499.377616	0.066284
499.596210	0.066885
499.814787	0.066252
500.033345	0.066473
500.251885	0.067525
500.470406	0.067987
500.688910	0.067455
500.907395	0.067525
501.125862	0.067846
501.344311	0.067489
501.562742	0.068346
501.781154	0.067015
501.999548	0.066771
502.217924	0.066590
502.436282	0.066387
502.654621	0.066776
502.872942	0.066699
503.091245	0.066088
503.309530	0.066903
503.527797	0.066079
503.746045	0.066789
503.964275	0.067044
504.182487	0.066685
504.400681	0.067162
504.618856	0.067457
504.837013	0.066906
505.055152	0.067031
505.273273	0.066556
505.491376	0.067408
505.709460	0.067767
505.927526	0.067288
506.145574	0.067131
506.363604	0.065985
506.581615	0.066048
506.799608	0.066453
507.017583	0.066707
507.235540	0.067481
507.453478	0.066521
507.671399	0.066193
507.889301	0.066971
508.107185	0.068439
508.325050	0.067885
508.542898	0.067340
508.760727	0.067307
508.978538	0.067180
509.196330	0.066211
509.414105	0.066706
509.631861	0.066171
509.849599	0.066291
510.067319	0.065387
510.285021	0.065830
510.502704	0.065861
510.720369	0.066317
510.938016	0.066443
511.155645	0.067227
511.373255	0.067172
511.590848	0.067903
511.808422	0.067629
512.025977	0.067540
512.243515	0.068512
512.461034	0.068038
512.678536	0.067278
512.896018	0.066939
513.113483	0.066377
513.330930	0.065832
513.548358	0.065665
513.765768	0.064981
513.983160	0.064525
514.200533	0.064332
514.417889	0.064815
514.635226	0.065245
514.852545	0.065436
515.069845	0.065873
515.287128	0.065997
515.504392	0.065868
515.721638	0.066174
515.938866	0.066265
516.156075	0.065746
516.373267	0.065919
516.590440	0.065784
516.807594	0.065219
517.024731	0.065136
517.241850	0.065484
517.458950	0.065697
517.676032	0.065710
517.893095	0.065826
518.110141	0.066197
518.327168	0.065918
518.544177	0.066440
518.761168	0.067270
518.978141	0.067163
519.195095	0.067309
519.412031	0.066919
519.628949	0.066848
519.845849	0.067127
520.062731	0.067089
520.279594	0.067539
520.496439	0.066997
520.713266	0.067561
520.930074	0.067164
521.146865	0.067418
521.363637	0.068206
521.580391	0.068584
521.797127	0.068137
522.013844	0.068189
522.230543	0.068639
522.447224	0.069354
522.663887	0.069071
522.880532	0.069902
523.097158	0.069713
523.313766	0.069221
523.530356	0.068722
523.746928	0.068703
523.963481	0.068850
524.180017	0.068350
524.396534	0.067595
524.613032	0.066959
524.829513	0.066335
525.045975	0.066363
525.262420	0.066632
525.478845	0.066832
525.695253	0.067528
525.911643	0.067595
526.128014	0.067715
526.344367	0.068266
526.560702	0.068592
526.777018	0.068919
526.993316	0.068479
527.209597	0.068367
527.425858	0.068698
527.642102	0.068559
527.858328	0.068510
528.074535	0.068565
528.290724	0.068433
528.506894	0.068923
528.723047	0.069427
528.939181	0.069613
529.155297	0.070081
529.371395	0.069902
529.587475	0.069945
529.803536	0.069795
530.019579	0.069540
530.235604	0.069988
530.451611	0.069690
530.667600	0.069586
530.883570	0.070126
531.099522	0.069962
531.315456	0.070124
531.531372	0.070169
531.747269	0.070243
531.963148	0.070639
532.179009	0.070564
532.394852	0.070382
532.610676	0.070158
532.826482	0.070521
533.042271	0.070299
533.258040	0.070068
533.473792	0.070226
533.689525	0.070226
533.905240	0.070438
534.120937	0.070332
534.336616	0.070481
534.552277	0.070830
534.767919	0.070826
534.983543	0.071460
535.199149	0.071382
535.414736	0.071338
535.630306	0.071424
535.845857	0.071671
536.061390	0.071605
536.276904	0.071954
536.492401	0.071906
536.707879	0.071519
536.923339	0.071550
537.138781	0.071809
537.354204	0.072112
537.569610	0.072442
537.784997	0.071890
538.000366	0.071708
538.215716	0.071340
538.431049	0.071346
538.646363	0.071226
538.861659	0.070931
539.076937	0.070970
539.292196	0.070727
539.507438	0.070745
539.722661	0.070932
539.937866	0.071356
540.153052	0.071234
540.368221	0.071539
540.583371	0.071758
540.798503	0.071297
541.013617	0.071472
541.228712	0.071825
541.443789	0.071658
541.658848	0.071837
541.873889	0.072033
542.088912	0.072317
542.303916	0.072060
542.518902	0.072028
542.733870	0.072684
542.948820	0.073240
543.163752	0.072767
543.378665	0.072422
543.593560	0.072477
543.808437	0.072308
544.023295	0.072741
544.238136	0.073033
544.452958	0.073128
544.667762	0.073098
544.882548	0.072673
545.097315	0.072580
545.312064	0.073062
545.526795	0.072877
545.741508	0.073201
545.956203	0.072980
546.170879	0.072689
546.385537	0.072946
546.600177	0.072896
546.814799	0.073246
547.029402	0.074002
547.243988	0.074140
547.458555	0.074472
547.673103	0.074150
547.887634	0.074202
548.102146	0.074761
548.316640	0.074310
548.531116	0.074687
548.745574	0.074388
548.960013	0.074219
549.174435	0.074244
549.388838	0.074328
549.603222	0.074651
549.817589	0.074533
550.031937	0.074460
550.246267	0.074625
550.460579	0.074263
550.674873	0.074361
550.889148	0.074190
551.103405	0.074234
551.317644	0.073899
551.531865	0.073564
551.746068	0.073842
551.960252	0.073557
552.174418	0.073729
552.388566	0.073776
552.602696	0.074162
552.816807	0.074073
553.030900	0.074050
553.244975	0.074191
553.459032	0.074593
553.673070	0.074401
553.887091	0.074396
554.101093	0.074503
554.315077	0.074785
554.529042	0.074520
554.742990	0.075278
554.956919	0.075135
555.170830	0.075238
555.384722	0.075111
555.598597	0.075319
555.812453	0.075583
556.026291	0.075254
556.240111	0.075258
556.453913	0.075430
556.667696	0.075154
556.881461	0.075249
557.095208	0.075412
557.308937	0.075379
557.522647	0.075376
557.736339	0.075486
557.950013	0.076011
558.163669	0.076122
558.377307	0.075968
558.590926	0.075992
558.804527	0.076067
559.018110	0.076078
559.231675	0.076117
559.445221	0.075958
559.658749	0.076148
559.872259	0.076084
560.085751	0.075971
560.299225	0.075748
560.512680	0.075366
560.726117	0.075569
560.939536	0.075715
561.152937	0.076150
561.366319	0.076193
561.579683	0.075685
561.793029	0.075862
562.006357	0.076155
562.219667	0.076845
562.432958	0.076923
562.646231	0.076728
562.859486	0.076610
563.072723	0.076244
563.285941	0.076572
563.499141	0.076769
563.712323	0.076356
563.925487	0.076240
564.138632	0.075918
564.351760	0.076064
564.564869	0.076286
564.777960	0.076233
564.991032	0.076235
565.204087	0.076227
565.417123	0.076161
565.630141	0.076482
565.843140	0.076535
566.056122	0.076481
566.269085	0.076447
566.482030	0.076452
566.694957	0.076435
566.907866	0.076705
567.120756	0.076660
567.333628	0.076900
567.546482	0.077211
567.759318	0.077252
567.972135	0.077344
568.184935	0.077567
568.397716	0.077701
568.610478	0.077612
568.823223	0.077568
569.035949	0.077785
569.248657	0.077777
569.461347	0.077505
569.674019	0.077426
569.886672	0.077793
570.099308	0.077932
570.311925	0.077664
570.524523	0.077836
570.737104	0.077817
570.949666	0.077772
571.162210	0.077930
571.374736	0.078127
571.587244	0.077720
571.799733	0.077769
572.012205	0.077798
572.224658	0.078188
572.437092	0.078533
572.649509	0.078147
572.861907	0.077887
573.074287	0.077781
573.286649	0.077782
573.498993	0.078319
573.711318	0.077802
573.923625	0.078039
574.135914	0.078187
574.348185	0.077849
574.560438	0.078274
574.772672	0.078450
574.984888	0.078421
575.197086	0.078192
575.409266	0.078103
575.621427	0.078471
575.833570	0.078052
576.045695	0.077894
576.257802	0.077855
576.469890	0.077646
576.681961	0.077632
576.894013	0.077680
577.106046	0.078151
577.318062	0.078303
577.530059	0.078472
577.742039	0.078332
577.954000	0.078270
578.165942	0.078343
578.377867	0.078776
578.589773	0.078962
578.801661	0.079000
579.013531	0.078649
579.225382	0.078413
579.437216	0.078201
579.649031	0.078793
579.860828	0.078578
580.072606	0.078884
580.284367	0.078678
580.496109	0.078808
580.707833	0.078851
580.919539	0.078788
581.131227	0.078889
581.342896	0.079130
581.554547	0.078637
581.766180	0.078944
581.977795	0.078372
582.189391	0.078217
582.400969	0.078139
582.612529	0.078435
582.824071	0.078734
583.035595	0.079075
583.247100	0.079132
583.458587	0.079368
583.670056	0.079375
583.881506	0.079972
584.092939	0.080327
584.304353	0.080317
584.515749	0.080342
584.727127	0.080332
584.938486	0.080430
585.149828	0.080362
585.361151	0.080478
585.572456	0.080625
585.783742	0.080598
585.995011	0.080705
586.206261	0.080774
586.417493	0.080748
586.628706	0.080737
586.839902	0.080666
587.051079	0.080471
587.262238	0.080714
587.473379	0.080746
587.684502	0.080843
587.895606	0.080788
588.106692	0.080821
588.317760	0.080507
588.528810	0.080133
588.739841	0.080073
588.950855	0.080491
589.161850	0.080378
589.372827	0.080072
589.583785	0.080159
589.794726	0.080297
590.005648	0.080325
590.216552	0.080543
590.427437	0.080947
590.638305	0.081173
590.849154	0.081025
591.059985	0.080773
591.270798	0.081072
591.481592	0.080824
591.692369	0.080823
591.903127	0.080977
592.113867	0.081113
592.324588	0.081276
592.535292	0.080995
592.745977	0.081156
592.956644	0.081678
593.167293	0.081950
593.377923	0.082151
593.588536	0.082346
593.799130	0.082499
594.009706	0.082553
594.220263	0.082429
594.430803	0.082658
594.641324	0.082439
594.851827	0.082380
595.062312	0.082057
595.272778	0.082449
595.483227	0.082272
595.693657	0.082416
595.904069	0.082476
596.114462	0.082832
596.324838	0.082729
596.535195	0.083101
596.745534	0.083353
596.955855	0.083649
597.166157	0.083388
597.376441	0.083312
597.586707	0.083058
597.796955	0.083060
598.007185	0.082731
598.217396	0.082746
598.427589	0.082480
598.637764	0.082078
598.847921	0.082135
599.058060	0.081925
599.268180	0.082002
599.478282	0.082050
599.688366	0.081945
599.898431	0.082083
600.108479	0.082127
600.318508	0.082133
600.528519	0.082199
600.738511	0.082338
600.948486	0.082681
601.158442	0.082836
601.368380	0.082984
601.578300	0.083031
601.788202	0.083259
601.998085	0.083232
602.207950	0.083004
602.417797	0.083289
602.627626	0.082965
602.837436	0.082840
603.047228	0.082982
603.257002	0.083067
603.466758	0.083219
603.676496	0.083145
603.886215	0.083334
604.095916	0.083785
604.305599	0.083659
604.515264	0.083990
604.724910	0.084275
604.934538	0.084216
605.144148	0.084089
605.353740	0.083987
605.563314	0.084074
605.772869	0.084204
605.982406	0.084247
606.191925	0.084142
606.401425	0.084022
606.610908	0.083818
606.820372	0.083771
607.029818	0.083679
607.239246	0.083709
607.448655	0.083838
607.658047	0.083657
607.867420	0.083705
608.076775	0.083749
608.286111	0.083749
608.495430	0.083647
608.704730	0.083660
608.914012	0.083627
609.123275	0.083661
609.332521	0.083379
609.541748	0.083328
609.750957	0.083056
609.960148	0.082937
610.169321	0.082772
610.378475	0.082572
610.587611	0.082560
610.796729	0.082743
611.005829	0.082731
611.214910	0.082932
611.423974	0.083343
611.633019	0.083609
611.842045	0.083727
612.051054	0.083725
612.260044	0.083985
612.469017	0.084015
612.677970	0.083937
612.886906	0.083976
613.095824	0.083882
613.304723	0.083848
613.513604	0.083628
613.722467	0.083768
613.931311	0.083854
614.140138	0.083935
614.348946	0.083955
614.557736	0.084187
614.766507	0.084362
614.975261	0.084205
615.183996	0.083834
615.392713	0.083896
615.601412	0.083959
615.810092	0.083911
616.018754	0.084069
616.227399	0.084192
616.436024	0.084036
616.644632	0.083800
616.853222	0.084038
617.061793	0.084338
617.270346	0.084532
617.478880	0.084482
617.687397	0.084739
617.895895	0.084833
618.104375	0.084694
618.312837	0.084711
618.521281	0.085083
618.729706	0.084954
618.938113	0.084936
619.146502	0.084896
619.354873	0.084819
619.563226	0.084742
619.771560	0.084664
619.979876	0.084892
620.188174	0.084887
620.396453	0.084759
620.604715	0.084856
620.812958	0.085001
621.021183	0.084984
621.229390	0.085213
621.437578	0.085417
621.645748	0.085573
621.853900	0.085715
622.062034	0.086051
622.270150	0.086086
622.478247	0.086268
622.686326	0.086181
622.894387	0.086126
623.102430	0.085971
623.310454	0.085922
623.518461	0.085788
623.726449	0.085359
623.934418	0.085158
624.142370	0.085193
624.350303	0.085065
624.558218	0.085146
624.766115	0.085155
624.973994	0.085354
625.181855	0.085437
625.389697	0.085524
625.597521	0.085783
625.805327	0.086011
626.013114	0.086116
626.220883	0.086172
626.428634	0.086141
626.636367	0.086253
626.844082	0.086201
627.051778	0.086148
627.259457	0.086021
627.467117	0.085774
627.674758	0.085626
627.882382	0.085534
628.089987	0.085500
628.297574	0.085409
628.505143	0.085319
628.712694	0.085238
628.920226	0.084986
629.127740	0.085104
629.335236	0.085440
629.542714	0.085477
629.750174	0.085421
629.957615	0.085390
630.165038	0.085445
630.372443	0.085551
630.579829	0.085482
630.787198	0.085494
630.994548	0.085509
631.201880	0.085729
631.409194	0.085451
631.616489	0.085575
631.823766	0.085718
632.031025	0.085739
632.238266	0.085834
632.445489	0.086072
632.652693	0.086537
632.859879	0.086499
633.067047	0.086073
633.274197	0.086316
633.481329	0.086393
633.688442	0.086697
633.895537	0.086594
634.102614	0.086581
634.309672	0.086424
634.516713	0.086200
634.723735	0.086317
634.930739	0.086480
635.137724	0.086361
635.344692	0.086356
635.551641	0.086137
635.758572	0.086241
635.965485	0.086016
636.172379	0.086350
636.379256	0.086516
636.586114	0.086431
636.792954	0.086607
636.999775	0.086822
637.206579	0.086882
637.413364	0.086873
637.620131	0.086814
637.826880	0.087040
638.033610	0.086947
638.240323	0.086899
638.447017	0.086892
638.653692	0.086698
638.860350	0.086550
639.066990	0.086473
639.273611	0.086495
639.480214	0.086710
639.686798	0.086841
639.893365	0.087001
640.099913	0.086970
640.306443	0.087249
640.512955	0.087537
640.719449	0.087711
640.925924	0.087707
641.132381	0.087663
641.338820	0.087650
641.545241	0.087593
641.751644	0.087455
641.958028	0.087347
642.164394	0.087158
642.370742	0.087150
642.577071	0.087305
642.783383	0.087502
642.989676	0.087523
643.195951	0.087622
643.402207	0.087563
643.608446	0.087750
643.814666	0.088018
644.020868	0.088142
644.227052	0.088079
644.433218	0.087810
644.639365	0.087854
644.845494	0.088088
645.051605	0.088054
645.257698	0.088298
645.463772	0.088240
645.669828	0.088086
645.875866	0.088072
646.081886	0.088204
646.287888	0.088347
646.493871	0.088279
646.699836	0.088377
646.905783	0.088600
647.111712	0.088488
647.317622	0.088484
647.523514	0.088620
647.729388	0.088641
647.935244	0.088620
648.141082	0.088815
648.346901	0.088929
648.552702	0.088628
648.758485	0.088474
648.964250	0.088499
649.169996	0.088478
649.375724	0.088505
649.581434	0.088647
649.787126	0.088512
649.992800	0.088385
650.198455	0.088271
650.404092	0.088509
650.609711	0.088456
650.815311	0.088485
651.020894	0.088418
651.226458	0.088381
651.432004	0.088124
651.637532	0.088227
651.843041	0.088257
652.048532	0.088173
652.254006	0.087917
652.459460	0.087967
652.664897	0.087936
652.870315	0.087992
653.075716	0.088086
653.281097	0.088317
653.486461	0.088330
653.691807	0.088269
653.897134	0.088347
654.102443	0.088640
654.307734	0.088580
654.513006	0.088715
654.718261	0.088941
654.923497	0.088946
655.128715	0.089016
655.333915	0.089179
655.539096	0.089406
655.744259	0.089588
655.949404	0.089507
656.154531	0.089697
656.359640	0.089844
656.564730	0.089671
656.769802	0.089936
656.974856	0.089964
657.179892	0.089909
657.384909	0.090040
657.589908	0.090041
657.794889	0.090239
657.999852	0.090549
658.204797	0.090559
658.409723	0.090568
658.614631	0.090570
658.819521	0.090629
659.024393	0.090878
659.229246	0.090768
659.434081	0.090673
659.638898	0.090741
659.843697	0.090515
660.048478	0.090516
660.253240	0.090816
660.457984	0.090831
660.662710	0.090862
660.867417	0.090759
661.072107	0.090799
661.276778	0.090961
661.481431	0.090943
661.686066	0.091007
661.890682	0.091093
662.095281	0.091042
662.299861	0.090810
662.504422	0.090735
662.708966	0.090624
662.913491	0.090492
663.117999	0.090505
663.322488	0.090485
663.526958	0.090394
663.731411	0.090327
663.935845	0.090180
664.140261	0.090312
664.344659	0.090358
664.549038	0.090437
664.753400	0.090579
664.957743	0.090706
665.162068	0.090746
665.366375	0.090683
665.570663	0.090685
665.774933	0.090782
665.979185	0.090948
666.183419	0.090831
666.387635	0.091030
666.591832	0.091200
666.796011	0.091241
667.000172	0.091257
667.204315	0.091429
667.408439	0.091548
667.612545	0.091573
667.816634	0.091360
668.020703	0.091645
668.224755	0.091474
668.428788	0.091289
668.632803	0.091172
668.836800	0.091207
669.040779	0.091253
669.244739	0.091176
669.448681	0.091284
669.652605	0.091506
669.856511	0.091359
670.060399	0.091483
670.264268	0.091745
670.468119	0.091738
670.671952	0.091770
670.875767	0.091907
671.079563	0.092036
671.283341	0.092181
671.487101	0.092266
671.690843	0.092372
671.894567	0.092381
672.098272	0.092274
672.301959	0.092455
672.505628	0.092531
672.709278	0.092524
672.912911	0.092615
673.116525	0.092558
673.320121	0.092525
673.523699	0.092693
673.727258	0.092923
673.930799	0.092798
674.134322	0.092863
674.337827	0.092803
674.541314	0.092799
674.744782	0.092716
674.948232	0.092573
675.151664	0.092578
675.355078	0.092383
675.558474	0.092202
675.761851	0.092317
675.965210	0.092279
676.168551	0.092293
676.371873	0.092369
676.575178	0.092398
676.778464	0.092645
676.981732	0.092575
677.184981	0.092539
677.388213	0.092622
677.591426	0.092755
677.794621	0.092828
677.997798	0.092970
678.200956	0.092911
678.404097	0.092945
678.607219	0.092897
678.810323	0.093107
679.013408	0.093290
679.216476	0.093180
679.419525	0.093151
679.622556	0.092950
679.825569	0.093037
680.028563	0.093182
680.231540	0.093357
680.434498	0.093412
680.637438	0.093433
680.840359	0.093421
681.043263	0.093701
681.246148	0.093658
681.449015	0.093800
681.651864	0.093800
681.854694	0.093674
682.057506	0.093651
682.260301	0.093725
682.463076	0.093654
682.665834	0.093807
682.868573	0.093695
683.071295	0.093902
683.273998	0.093911
683.476682	0.093676
683.679349	0.093756
683.881997	0.093803
684.084627	0.093820
684.287239	0.093742
684.489833	0.093521
684.692408	0.093477
684.894965	0.093327
685.097504	0.093420
685.300025	0.093831
685.502527	0.093744
685.705012	0.093773
685.907478	0.093723
686.109925	0.093902
686.312355	0.094163
686.514766	0.094252
686.717159	0.094410
686.919534	0.094354
687.121891	0.094163
687.324230	0.094366
687.526550	0.094181
687.728852	0.094068
687.931136	0.093990
688.133401	0.093898
688.335649	0.093816
688.537878	0.093808
688.740089	0.094019
688.942281	0.093982
689.144456	0.094022
689.346612	0.094298
689.548750	0.094555
689.750870	0.094679
689.952971	0.094756
690.155055	0.094995
690.357120	0.094979
690.559167	0.094936
690.761195	0.094981
690.963206	0.094957
691.165198	0.094896
691.367172	0.094810
691.569128	0.094750
691.771065	0.094774
691.972984	0.094673
692.174885	0.094897
692.376768	0.094926
692.578633	0.095069
692.780479	0.095071
692.982308	0.095050
693.184118	0.095156
693.385909	0.095326
693.587683	0.095483
693.789438	0.095552
693.991175	0.095364
694.192894	0.095333
694.394595	0.095168
694.596277	0.095134
694.797941	0.095163
694.999587	0.095074
695.201215	0.095000
695.402824	0.095035
695.604416	0.095239
695.805989	0.095377
696.007543	0.095418
696.209080	0.095534
696.410598	0.095784
696.612099	0.095806
696.813580	0.095913
697.015044	0.096060
697.216490	0.095878
697.417917	0.095719
697.619326	0.095695
697.820717	0.095705
698.022089	0.095843
698.223444	0.095780
698.424780	0.095835
698.626098	0.095712
698.827397	0.095636
699.028679	0.095825
699.229942	0.096027
699.431187	0.095826
699.632414	0.095653
699.833622	0.095603
700.034813	0.095572
700.235985	0.095387
700.437139	0.095473
700.638274	0.095340
700.839392	0.095410
701.040491	0.095347
701.241572	0.095564
701.442635	0.095794
701.643679	0.095674
701.844706	0.095753
702.045714	0.095821
702.246704	0.095878
702.447675	0.096078
702.648629	0.096028
702.849564	0.095876
703.050481	0.096016
703.251380	0.096067
703.452260	0.096268
703.653122	0.096234
703.853966	0.096491
704.054792	0.096377
704.255600	0.096483
704.456389	0.096569
704.657160	0.096588
704.857913	0.096462
705.058648	0.096449
705.259365	0.096323
705.460063	0.096103
705.660743	0.095972
705.861405	0.096075
706.062048	0.096092
706.262674	0.096067
706.463281	0.096155
706.663870	0.096139
706.864441	0.095969
707.064993	0.096025
707.265527	0.096215
707.466043	0.096214
707.666541	0.096378
707.867021	0.096247
708.067482	0.096213
708.267925	0.096019
708.468350	0.096164
708.668757	0.096331
708.869145	0.096371
709.069516	0.096493
709.269868	0.096594
709.470201	0.096411
709.670517	0.096399
709.870814	0.096279
710.071093	0.096402
710.271354	0.096202
710.471597	0.096008
710.671821	0.096216
710.872028	0.096033
711.072216	0.096068
711.272385	0.096071
711.472537	0.096083
711.672670	0.095969
711.872785	0.095936
712.072882	0.096045
712.272961	0.096203
712.473021	0.096090
712.673063	0.096267
712.873087	0.096210
713.073093	0.096226
713.273081	0.096238
713.473050	0.096380
713.673001	0.096427
713.872934	0.096358
714.072849	0.096355
714.272745	0.096172
714.472623	0.095893
714.672483	0.095866
714.872325	0.095947
715.072148	0.096037
715.271954	0.095878
715.471741	0.095796
715.671509	0.095853
715.871260	0.095899
716.070992	0.095977
716.270707	0.096032
716.470403	0.095952
716.670080	0.095857
716.869740	0.095774
717.069381	0.095961
717.269004	0.096042
717.468609	0.096135
717.668195	0.096157
717.867764	0.096096
718.067314	0.096174
718.266846	0.096317
718.466360	0.096376
718.665855	0.096116
718.865332	0.096105
719.064791	0.096076
719.264232	0.095975
719.463655	0.096054
719.663059	0.096197
719.862445	0.096259
720.061813	0.096373
720.261163	0.096492
720.460494	0.096755
720.659807	0.096776
720.859102	0.096740
721.058379	0.096669
721.257638	0.096439
721.456878	0.096394
721.656100	0.096406
721.855304	0.096294
722.054490	0.096161
722.253657	0.095984
722.452806	0.095981
722.651937	0.095883
722.851050	0.095903
723.050145	0.096026
723.249221	0.096046
723.448279	0.095880
723.647319	0.095899
723.846340	0.095803
724.045344	0.095849
724.244329	0.095810
724.443296	0.095932
724.642245	0.095972
724.841175	0.095764
725.040088	0.095751
725.238982	0.095830
725.437857	0.095688
725.636715	0.095523
725.835554	0.095450
726.034376	0.095314
726.233179	0.095215
726.431963	0.095104
726.630730	0.095173
726.829478	0.094742
727.028208	0.094527
727.226920	0.094551
727.425614	0.094603
727.624289	0.094912
727.822946	0.094872
728.021585	0.095010
728.220206	0.095265
728.418808	0.095108
728.617392	0.095373
728.815958	0.095369
729.014506	0.095181
729.213036	0.095146
729.411547	0.094848
729.610040	0.094843
729.808515	0.094616
730.006972	0.094444
730.205410	0.094599
730.403831	0.094468
730.602233	0.094412
730.800616	0.094460
730.998982	0.094369
731.197329	0.094330
731.395658	0.094400
731.593969	0.094336
731.792262	0.094258
731.990536	0.094290
732.188793	0.094232
732.387031	0.094472
732.585250	0.094234
732.783452	0.094382
732.981635	0.094390
733.179800	0.094156
733.377947	0.094170
733.576076	0.094013
733.774186	0.093689
733.972278	0.093729
734.170352	0.093632
734.368408	0.093764
734.566446	0.093751
734.764465	0.093612
734.962466	0.093761
735.160449	0.093839
735.358413	0.093833
735.556360	0.094066
735.754288	0.094097
735.952198	0.094145
736.150090	0.094153
736.347963	0.094136
736.545818	0.094212
736.743655	0.094132
736.941474	0.094134
737.139275	0.094305
737.337057	0.094079
737.534821	0.094037
737.732567	0.093719
737.930295	0.093610
738.128005	0.093551
738.325696	0.093318
738.523369	0.093510
738.721024	0.093590
738.918660	0.093356
739.116279	0.093408
739.313879	0.093418
739.511461	0.093482
739.709024	0.093671
739.906570	0.093568
740.104097	0.093568
740.301606	0.093355
740.499097	0.093192
740.696569	0.093300
740.894024	0.093203
741.091460	0.092987
741.288878	0.092904
741.486277	0.092701
741.683659	0.092776
741.881022	0.092909
742.078367	0.092806
742.275694	0.092837
742.473002	0.092450
742.670293	0.092507
742.867565	0.092551
743.064819	0.092622
743.262054	0.092712
743.459272	0.092592
743.656471	0.092627
743.853652	0.092635
744.050815	0.092370
744.247959	0.092621
744.445085	0.092431
744.642194	0.092427
744.839283	0.092364
745.036355	0.092226
745.233408	0.092230
745.430444	0.091971
745.627461	0.091975
745.824459	0.091978
746.021440	0.092097
746.218402	0.092180
746.415346	0.092347
746.612272	0.092387
746.809180	0.092430
747.006069	0.092512
747.202940	0.092594
747.399793	0.092710
747.596628	0.092816
747.793444	0.092743
747.990243	0.092894
748.187023	0.092713
748.383784	0.092507
748.580528	0.092584
748.777253	0.092525
748.973960	0.092687
749.170649	0.092527
749.367320	0.092470
749.563973	0.092226
749.760607	0.092087
749.957223	0.092003
750.153821	0.092242
750.350400	0.092132
750.546962	0.092263
750.743505	0.092025
750.940030	0.092105
751.136536	0.092107
751.333025	0.092357
751.529495	0.092276
751.725947	0.092422
751.922381	0.092328
752.118796	0.092432
752.315194	0.092478
752.511573	0.092731
752.707934	0.092387
752.904276	0.092408
753.100601	0.092190
753.296907	0.092100
753.493195	0.091967
753.689465	0.091790
753.885716	0.091586
754.081949	0.091163
754.278164	0.090816
754.474361	0.091099
754.670540	0.090890
754.866700	0.090723
755.062843	0.090724
755.258967	0.090550
755.455072	0.090608
755.651160	0.090537
755.847229	0.090456
756.043280	0.090417
756.239313	0.090301
756.435328	0.090391
756.631324	0.090524
756.827302	0.090431
757.023262	0.090322
757.219204	0.090211
757.415127	0.090209
757.611033	0.090428
757.806920	0.090504
758.002788	0.090475
758.198639	0.090364
758.394471	0.090138
758.590286	0.090101
758.786081	0.090187
758.981859	0.090190
759.177619	0.089950
759.373360	0.089631
759.569083	0.089404
759.764788	0.089282
759.960474	0.089168
760.156143	0.089390
760.351793	0.089497
760.547425	0.089456
760.743038	0.089516
760.938634	0.089560
761.134211	0.089680
761.329770	0.089836
761.525311	0.089884
761.720833	0.089944
761.916338	0.089991
762.111824	0.089890
762.307292	0.089886
762.502741	0.089825
762.698173	0.089938
762.893586	0.089990
763.088981	0.090080
763.284358	0.090189
763.479716	0.090147
763.675057	0.090094
763.870379	0.090128
764.065683	0.090160
764.260968	0.090333
764.456236	0.090397
764.651485	0.090338
764.846716	0.090308
765.041929	0.090176
765.237123	0.090080
765.432299	0.090061
765.627457	0.090224
765.822597	0.090288
766.017719	0.090190
766.212822	0.090272
766.407907	0.090216
766.602974	0.090204
766.798023	0.090040
766.993054	0.090240
767.188066	0.090320
767.383060	0.090446
767.578036	0.090390
767.772993	0.090413
767.967933	0.090410
768.162854	0.090593
768.357757	0.090646
768.552642	0.090868
768.747508	0.090747
768.942356	0.090648
769.137186	0.090436
769.331998	0.090387
769.526792	0.090297
769.721567	0.090121
769.916324	0.089986
770.111063	0.089938
770.305784	0.090005
770.500486	0.090207
770.695171	0.089969
770.889837	0.089887
771.084484	0.090051
771.279114	0.090253
771.473725	0.090322
771.668318	0.090399
771.862893	0.090579
772.057450	0.090495
772.251988	0.090649
772.446509	0.090871
772.641011	0.091052
772.835494	0.090976
773.029960	0.090815
773.224407	0.090551
773.418836	0.090700
773.613247	0.090452
773.807640	0.090480
774.002014	0.090127
774.196370	0.090156
774.390708	0.090109
774.585028	0.090166
774.779330	0.090227
774.973613	0.090554
775.167878	0.090494
775.362125	0.090775
775.556354	0.090798
775.750564	0.090757
775.944756	0.090932
776.138930	0.090997
776.333086	0.090989
776.527223	0.091100
776.721343	0.091054
776.915444	0.090909
777.109526	0.090487
777.303591	0.090470
777.497637	0.090687
777.691666	0.090330
777.885676	0.090150
778.079667	0.090246
778.273641	0.090014
778.467596	0.089931
778.661533	0.090093
778.855452	0.090296
779.049352	0.090115
779.243235	0.090012
779.437099	0.090259
779.630945	0.090387
779.824773	0.090335
780.018582	0.090322
780.212373	0.090582
780.406146	0.090335
780.599901	0.090455
780.793638	0.090601
780.987356	0.090702
781.181056	0.090545
781.374738	0.090493
781.568402	0.090529
781.762047	0.090483
781.955674	0.090263
782.149283	0.090371
782.342874	0.090335
782.536447	0.090323
782.730001	0.090527
782.923537	0.090681
783.117055	0.090892
783.310555	0.090999
783.504036	0.091339
783.697499	0.091299
783.890944	0.091493
784.084371	0.091584
784.277780	0.091596
784.471170	0.091496
784.664542	0.091496
784.857896	0.091408
785.051231	0.091371
785.244549	0.091250
785.437848	0.091255
785.631129	0.091055
785.824392	0.090933
786.017636	0.090974
786.210863	0.090865
786.404071	0.091034
786.597260	0.091029
786.790432	0.090996
786.983585	0.091000
787.176721	0.091090
787.369838	0.091190
787.562936	0.091155
787.756017	0.091309
787.949079	0.091288
788.142123	0.090969
788.335149	0.091007
788.528156	0.091046
788.721146	0.091173
788.914117	0.091190
789.107070	0.091295
789.300005	0.091407
789.492921	0.091136
789.685819	0.091261
789.878699	0.091386
790.071561	0.091233
790.264405	0.091126
790.457230	0.090973
790.650037	0.091000
790.842826	0.090961
791.035597	0.091128
791.228349	0.091370
791.421084	0.091287
791.613800	0.091586
791.806497	0.091693
791.999177	0.091887
792.191838	0.091973
792.384481	0.092117
792.577106	0.092484
792.769713	0.092607
792.962301	0.092584
793.154871	0.092848
793.347423	0.092721
793.539957	0.092979
793.732473	0.093036
793.924970	0.093205
794.117449	0.093183
794.309910	0.092993
794.502353	0.092880
794.694777	0.093096
794.887183	0.093249
795.079571	0.093360
795.271941	0.093245
795.464293	0.093201
795.656626	0.093232
795.848941	0.093407
796.041238	0.093433
796.233516	0.093564
796.425777	0.093765
796.618019	0.093680
796.810243	0.093775
797.002449	0.093861
797.194636	0.094051
797.386805	0.094120
797.578956	0.094081
797.771089	0.093963
797.963204	0.093885
798.155300	0.093553
798.347378	0.093525
798.539438	0.093601
798.731480	0.093790
798.923503	0.093661
799.115509	0.093751
799.307496	0.093790
799.499465	0.093977
799.691415	0.093986
799.883348	0.094096
800.075262	0.094172
800.267158	0.094168
800.459035	0.094213
800.650895	0.094273
800.842736	0.094133
801.034559	0.094318
801.226364	0.094367
801.418150	0.094418
801.609919	0.094520
801.801669	0.094639
801.993401	0.094811
802.185114	0.094770
802.376810	0.094902
802.568487	0.094865
802.760146	0.094719
802.951787	0.094812
803.143409	0.094898
803.335014	0.095121
803.526600	0.095266
803.718168	0.095246
803.909717	0.095403
804.101249	0.095380
804.292762	0.095658
804.484257	0.095639
804.675734	0.095639
804.867192	0.095654
805.058632	0.095749
805.250054	0.095755
805.441458	0.095558
805.632844	0.095416
805.824211	0.095505
806.015561	0.095521
806.206891	0.095821
806.398204	0.095921
806.589499	0.096005
806.780775	0.095960
806.972033	0.095850
807.163273	0.096117
807.354495	0.096262
807.545698	0.096408
807.736883	0.096560
807.928050	0.096532
808.119199	0.096563
808.310329	0.096615
808.501441	0.096640
808.692535	0.096705
808.883611	0.096652
809.074669	0.096805
809.265708	0.096755
809.456729	0.096551
809.647732	0.096546
809.838717	0.096790
810.029683	0.096851
810.220632	0.096839
810.411562	0.096922
810.602474	0.096924
810.793367	0.096881
810.984242	0.097083
811.175100	0.097368
811.365938	0.097749
811.556759	0.097682
811.747562	0.097720
811.938346	0.097838
812.129112	0.098138
812.319860	0.098433
812.510589	0.098552
812.701300	0.098614
812.891994	0.098784
813.082668	0.098814
813.273325	0.099036
813.463964	0.098890
813.654584	0.098996
813.845186	0.098782
814.035769	0.098756
814.226335	0.098841
814.416882	0.098843
814.607411	0.098821
814.797922	0.098798
814.988415	0.098669
815.178889	0.099087
815.369345	0.099005
815.559783	0.099098
815.750203	0.099189
815.940605	0.099142
816.130988	0.099169
816.321353	0.099025
816.511700	0.098869
816.702028	0.098969
816.892339	0.098828
817.082631	0.099056
817.272905	0.099201
817.463161	0.099234
817.653398	0.099207
817.843617	0.099526
818.033819	0.099899
818.224001	0.100060
818.414166	0.100026
818.604312	0.100463
818.794440	0.100365
818.984550	0.100224
819.174642	0.100344
819.364716	0.100675
819.554771	0.100764
819.744808	0.100728
819.934827	0.100742
820.124827	0.100870
820.314810	0.100663
820.504774	0.100828
820.694720	0.101316
820.884647	0.101452
821.074557	0.101607
821.264448	0.101527
821.454321	0.101619
821.644176	0.101885
821.834012	0.102043
822.023831	0.102295
822.213631	0.102361
822.403413	0.102272
822.593176	0.102236
822.782922	0.102068
822.972649	0.101993
823.162358	0.102056
823.352049	0.101920
823.541721	0.101821
823.731376	0.101721
823.921012	0.101820
824.110629	0.101992
824.300229	0.102066
824.489811	0.102214
824.679374	0.102378
824.868919	0.102226
825.058445	0.102283
825.247954	0.102457
825.437444	0.102452
825.626916	0.102557
825.816370	0.102320
826.005806	0.102281
826.195223	0.102188
826.384622	0.102373
826.574003	0.102637
826.763366	0.102743
826.952711	0.102872
827.142037	0.103216
827.331345	0.103225
827.520635	0.103562
827.709906	0.103923
827.899160	0.104329
828.088395	0.104438
828.277612	0.104653
828.466810	0.105159
828.655991	0.105480
828.845153	0.105585
829.034297	0.105970
829.223423	0.106270
829.412531	0.106391
829.601620	0.106342
829.790691	0.106662
829.979744	0.106554
830.168779	0.106263
830.357795	0.106226
830.546793	0.106234
830.735773	0.106363
830.924735	0.106304
831.113679	0.106548
831.302604	0.106713
831.491511	0.106595
831.680400	0.106891
831.869271	0.107323
832.058123	0.107229
832.246957	0.107575
832.435773	0.107605
832.624571	0.107667
832.813351	0.107475
833.002112	0.107269
833.190855	0.107246
833.379580	0.107308
833.568287	0.107166
833.756975	0.107098
833.945645	0.107040
834.134297	0.107026
834.322931	0.106875
834.511547	0.107109
834.700144	0.107139
834.888723	0.107143
835.077284	0.107054
835.265826	0.106996
835.454351	0.107229
835.642857	0.107077
835.831345	0.106993
836.019815	0.107085
836.208266	0.107012
836.396699	0.107271
836.585114	0.107613
836.773511	0.107850
836.961890	0.108086
837.150250	0.108229
837.338592	0.108633
837.526916	0.108856
837.715222	0.109160
837.903510	0.109166
838.091779	0.109371
838.280030	0.109235
838.468263	0.109517
838.656477	0.109822
838.844674	0.110054
839.032852	0.110326
839.221012	0.110586
839.409153	0.110745
839.597277	0.111233
839.785382	0.111520
839.973469	0.111851
840.161538	0.111937
840.349589	0.112129
840.537621	0.112610
840.725635	0.112356
840.913631	0.112380
841.101609	0.112725
841.289568	0.112673
841.477509	0.112891
841.665432	0.113105
841.853337	0.113323
842.041224	0.113349
842.229092	0.113406
842.416942	0.113777
842.604774	0.114179
842.792588	0.114225
842.980383	0.114455
843.168160	0.114360
843.355919	0.114585
843.543660	0.114931
843.731382	0.115015
843.919087	0.114671
844.106773	0.114823
844.294441	0.114859
844.482090	0.114830
844.669722	0.114819
844.857335	0.115187
845.044930	0.114899
845.232507	0.114566
845.420065	0.114669
845.607605	0.115113
845.795127	0.115121
845.982631	0.115255
846.170117	0.115650
846.357584	0.115983
846.545033	0.115969
846.732464	0.116227
846.919877	0.116512
847.107272	0.116873
847.294648	0.116904
847.482006	0.117142
847.669346	0.117266
847.856667	0.117292
848.043971	0.117123
848.231256	0.117138
848.418523	0.117272
848.605771	0.117437
848.793002	0.117195
848.980214	0.117549
849.167408	0.117681
849.354584	0.117591
849.541742	0.118020
849.728881	0.118142
849.916002	0.118274
850.103105	0.118490
850.290190	0.118463
850.477256	0.118947
850.664304	0.118874
850.851334	0.118783
851.038346	0.119097
851.225340	0.119034
851.412315	0.119212
851.599272	0.119480
851.786211	0.119713
851.973132	0.120035
852.160034	0.119890
852.346918	0.119863
852.533784	0.120126
852.720632	0.120195
852.907462	0.119950
853.094273	0.120091
853.281066	0.120394
853.467841	0.120330
853.654598	0.120266
853.841336	0.120622
854.028056	0.121183
854.214758	0.121669
854.401442	0.121853
854.588107	0.122457
854.774755	0.122762
854.961384	0.122970
855.147995	0.123532
855.334587	0.123866
855.521162	0.123935
855.707718	0.124048
855.894256	0.124033
856.080775	0.124227
856.267277	0.124126
856.453760	0.124511
856.640225	0.124317
856.826672	0.124093
857.013101	0.123996
857.199511	0.124284
857.385903	0.124150
857.572277	0.124063
857.758633	0.124412
857.944970	0.124630
858.131290	0.124435
858.317591	0.124606
858.503873	0.125062
858.690138	0.125407
858.876384	0.125555
859.062612	0.125623
859.248822	0.126027
859.435014	0.125751
859.621188	0.125836
859.807343	0.126177
859.993480	0.126430
860.179599	0.126095
860.365699	0.126094
860.551781	0.125980
860.737846	0.126402
860.923891	0.126244
861.109919	0.126198
861.295929	0.126359
861.481920	0.126057
861.667893	0.125964
861.853848	0.126052
862.039784	0.126093
862.225702	0.126222
862.411603	0.126149
862.597484	0.126408
862.783348	0.126476
862.969193	0.126455
863.155021	0.126953
863.340830	0.127136
863.526620	0.127332
863.712393	0.127616
863.898147	0.127800
864.083883	0.128013
864.269601	0.128295
864.455301	0.128648
864.640982	0.128906
864.826645	0.128746
865.012290	0.129055
865.197917	0.129328
865.383526	0.129369
865.569116	0.129508
865.754688	0.129550
865.940242	0.129583
866.125777	0.129873
866.311295	0.129924
866.496794	0.130196
866.682275	0.130619
866.867737	0.130800
867.053182	0.131237
867.238608	0.131279
867.424016	0.131550
867.609406	0.131412
867.794778	0.131708
867.980131	0.131800
868.165466	0.132044
868.350783	0.131775
868.536082	0.131635
868.721362	0.131442
868.906625	0.131294
869.091869	0.131188
869.277094	0.131308
869.462302	0.131024
869.647491	0.131165
869.832662	0.130986
870.017815	0.131140
870.202950	0.131331
870.388066	0.131491
870.573165	0.131553
870.758245	0.131725
870.943306	0.132000
871.128350	0.132094
871.313375	0.131995
871.498382	0.132208
871.683371	0.132187
871.868342	0.132499
872.053294	0.132347
872.238229	0.132781
872.423144	0.132835
872.608042	0.132707
872.792922	0.132766
872.977783	0.133030
873.162626	0.133462
873.347451	0.133405
873.532258	0.133042
873.717046	0.133084
873.901816	0.133028
874.086568	0.133018
874.271302	0.133121
874.456017	0.133257
874.640715	0.133178
874.825394	0.132723
875.010055	0.133296
875.194697	0.133402
875.379322	0.133541
875.563928	0.133799
875.748516	0.133765
875.933085	0.133864
876.117637	0.133974
876.302170	0.134108
876.486685	0.134581
876.671182	0.134444
876.855661	0.134790
877.040121	0.135385
877.224563	0.135274
877.408987	0.135351
877.593393	0.135634
877.777780	0.135681
877.962150	0.135643
878.146501	0.135285
878.330833	0.134996
878.515148	0.135040
878.699444	0.134929
878.883722	0.135117
879.067982	0.135380
879.252224	0.135022
879.436447	0.135383
879.620653	0.135587
879.804840	0.135919
879.989008	0.136350
880.173159	0.136562
880.357291	0.136538
880.541405	0.136310
880.725501	0.136247
880.909579	0.136637
881.093638	0.136074
881.277680	0.136240
881.461703	0.135991
881.645707	0.135648
881.829694	0.135569
882.013662	0.135260
882.197612	0.135446
882.381544	0.135507
882.565458	0.135329
882.749353	0.135795
882.933230	0.135852
883.117089	0.135912
883.300930	0.136110
883.484753	0.136181
883.668557	0.136483
883.852343	0.136259
884.036111	0.136492
884.219861	0.136556
884.403592	0.136752
884.587305	0.136859
884.771000	0.137156
884.954677	0.137384
885.138335	0.137328
885.321976	0.137478
885.505598	0.137939
885.689201	0.137896
885.872787	0.137739
886.056354	0.137293
886.239904	0.137272
886.423434	0.137500
886.606947	0.137601
886.790442	0.137713
886.973918	0.137666
887.157376	0.137929
887.340816	0.137744
887.524237	0.137914
887.707641	0.138483
887.891026	0.138315
888.074393	0.138031
888.257741	0.137525
888.441072	0.137304
888.624384	0.137323
888.807678	0.137190
888.990954	0.137308
889.174211	0.137379
889.357451	0.136963
889.540672	0.136755
889.723875	0.136885
889.907059	0.137193
890.090226	0.137366
890.273374	0.137482
890.456504	0.137323
890.639616	0.137749
890.822709	0.137702
891.005785	0.137938
891.188842	0.138427
891.371881	0.138294
891.554901	0.138175
891.737904	0.138254
891.920888	0.138037
892.103854	0.137607
892.286802	0.136830
892.469731	0.136812
892.652643	0.136343
892.835536	0.135948
893.018410	0.135702
893.201267	0.135790
893.384106	0.135629
893.566926	0.135453
893.749728	0.135831
893.932511	0.136188
894.115277	0.136340
894.298024	0.136413
894.480753	0.136505
894.663464	0.136800
894.846157	0.136488
895.028831	0.136442
895.211487	0.136403
895.394125	0.136135
895.576745	0.136002
895.759346	0.136038
895.941930	0.136012
896.124495	0.135928
896.307041	0.135756
896.489570	0.136157
896.672080	0.135950
896.854573	0.136432
897.037046	0.136634
897.219502	0.136777
897.401940	0.136309
897.584359	0.136771
897.766760	0.136741
897.949143	0.136410
898.131507	0.136039
898.313854	0.135983
898.496182	0.135340
898.678492	0.134916
898.860783	0.134636
899.043057	0.134708
899.225312	0.134099
899.407549	0.133999
899.589768	0.134323
899.771968	0.134440
899.954151	0.134423
900.136315	0.134570
900.318461	0.134692
900.500588	0.134436
900.682698	0.134193
900.864789	0.133966
901.046862	0.133642
901.228917	0.133380
901.410953	0.132913
901.592971	0.133050
901.774972	0.132994
901.956953	0.133090
902.138917	0.133374
902.320862	0.133684
902.502790	0.133945
902.684699	0.133848
902.866589	0.133797
903.048462	0.133727
903.230316	0.133783
903.412152	0.134244
903.593970	0.134176
903.775770	0.134358
903.957551	0.134164
904.139314	0.133925
904.321059	0.134288
904.502786	0.134198
904.684494	0.134395
904.866185	0.134114
905.047857	0.133416
905.229510	0.133361
905.411146	0.133027
905.592763	0.132838
905.774363	0.132999
905.955943	0.132364
906.137506	0.132354
906.319051	0.132369
906.500577	0.132046
906.682085	0.131796
906.863575	0.131682
907.045046	0.131711
907.226500	0.131872
907.407935	0.131359
907.589352	0.131574
907.770750	0.131224
907.952131	0.131478
908.133493	0.131582
908.314837	0.131742
908.496163	0.131437
908.677470	0.131166
908.858760	0.130733
909.040031	0.130621
909.221284	0.130872
909.402518	0.131327
909.583735	0.130706
909.764933	0.130573
909.946113	0.130345
910.127275	0.130349
910.308418	0.130214
910.489544	0.130276
910.670651	0.130236
910.851740	0.129567
911.032810	0.129174
911.213863	0.128985
911.394897	0.128788
911.575913	0.128563
911.756911	0.128425
911.937890	0.128339
912.118851	0.128219
912.299794	0.128416
912.480719	0.128551
912.661626	0.128350
912.842514	0.128565
913.023384	0.128254
913.204236	0.127903
913.385070	0.127568
913.565886	0.126851
913.746683	0.126805
913.927462	0.126211
914.108223	0.125671
914.288965	0.125111
914.469690	0.124355
914.650396	0.123988
914.831084	0.123643
915.011754	0.123342
915.192405	0.123274
915.373038	0.122605
915.553653	0.122311
915.734250	0.122226
915.914829	0.122302
916.095389	0.121641
916.275931	0.121771
916.456455	0.122001
916.636961	0.121976
916.817448	0.121967
916.997917	0.121634
917.178368	0.121705
917.358801	0.121416
917.539216	0.120695
917.719612	0.121233
917.899990	0.121005
918.080350	0.120790
918.260692	0.120432
918.441015	0.119962
918.621320	0.119962
918.801607	0.120141
918.981876	0.119945
919.162127	0.120291
919.342359	0.120054
919.522573	0.119784
919.702769	0.119193
919.882947	0.118975
920.063106	0.118815
920.243247	0.118300
920.423370	0.117535
920.603475	0.117082
920.783562	0.116672
920.963630	0.116050
921.143680	0.115448
921.323712	0.115639
921.503725	0.115397
921.683721	0.115349
921.863698	0.115683
922.043657	0.115460
922.223598	0.115288
922.403520	0.114864
922.583424	0.115086
922.763311	0.115161
922.943178	0.114771
923.123028	0.114582
923.302859	0.114140
923.482673	0.113517
923.662467	0.112804
923.842244	0.112868
924.022003	0.112574
924.201743	0.111926
924.381465	0.111106
924.561169	0.110208
924.740854	0.109308
924.920522	0.108963
925.100171	0.108777
925.279802	0.108859
925.459414	0.107684
925.639009	0.107759
925.818585	0.106961
925.998143	0.107148
926.177683	0.107501
926.357205	0.107509
926.536708	0.107205
926.716193	0.107057
926.895660	0.106809
927.075109	0.107674
927.254539	0.106670
927.433951	0.106684
927.613345	0.105928
927.792721	0.105417
927.972079	0.105184
928.151418	0.104645
928.330739	0.104449
928.510042	0.104295
928.689327	0.103043
928.868593	0.103094
929.047841	0.102767
929.227071	0.102480
929.406283	0.101401
929.585476	0.100782
929.764652	0.100451
929.943809	0.100120
930.122948	0.099570
930.302068	0.099580
930.481171	0.098888
930.660255	0.098611
930.839321	0.098559
931.018369	0.098766
931.197398	0.098613
931.376409	0.098472
931.555402	0.097295
931.734377	0.096833
931.913334	0.096335
932.092272	0.096055
932.271192	0.095774
932.450094	0.095549
932.628978	0.095477
932.807844	0.095230
932.986691	0.094697
933.165520	0.094088
933.344331	0.093460
933.523123	0.093408
933.701898	0.093401
933.880654	0.093526
934.059392	0.093153
934.238111	0.092549
934.416813	0.091906
934.595496	0.091610
934.774161	0.091449
934.952808	0.091772
935.131437	0.091328
935.310047	0.091049
935.488639	0.090486
935.667213	0.089738
935.845769	0.089755
936.024306	0.090002
936.202825	0.090232
936.381326	0.089343
936.559809	0.088614
936.738274	0.088672
936.916720	0.088574
937.095148	0.088901
937.273558	0.088528
937.451950	0.088556
937.630323	0.088117
937.808678	0.087472
937.987015	0.088676
938.165334	0.088200
938.343635	0.087359
938.521917	0.086941
938.700181	0.085085
938.878427	0.084636
939.056655	0.083066
939.234864	0.083080
939.413055	0.082814
939.591228	0.082096
939.769383	0.081515
939.947519	0.080486
940.125638	0.079794
940.303738	0.079799
940.481820	0.078858
940.659883	0.078950
940.837929	0.078787
941.015956	0.078120
941.193965	0.077388
941.371955	0.077382
941.549928	0.077435
941.727882	0.075955
941.905818	0.076360
942.083736	0.076368
942.261636	0.075516
942.439517	0.074179
942.617380	0.073851
942.795225	0.074019
942.973052	0.074176
943.150860	0.073880
943.328651	0.074452
943.506423	0.073978
943.684176	0.074431
943.861912	0.074756
944.039629	0.075209
944.217328	0.075473
944.395009	0.074787
944.572672	0.073975
944.750317	0.073663
944.927943	0.074109
945.105551	0.072929
945.283141	0.072447
945.460712	0.072251
945.638265	0.071114
945.815801	0.070516
945.993317	0.071064
946.170816	0.070538
946.348297	0.069943
946.525759	0.069541
946.703203	0.069453
946.880629	0.069897
947.058036	0.068581
947.235425	0.067705
947.412797	0.066956
947.590149	0.066307
947.767484	0.066386
947.944800	0.066569
948.122099	0.065923
948.299379	0.065043
948.476640	0.063748
948.653884	0.062261
948.831109	0.062571
949.008316	0.062855
949.185505	0.061678
949.362676	0.061327
949.539828	0.061207
949.716962	0.061191
949.894078	0.062229
950.071176	0.062740
950.248256	0.064044
950.425317	0.063100
950.602360	0.061820
950.779385	0.062506
950.956391	0.060455
951.133380	0.059854
951.310350	0.059239
951.487302	0.058996
951.664235	0.057623
951.841151	0.057347
952.018048	0.058283
952.194927	0.057314
952.371788	0.056299
952.548631	0.057342
952.725455	0.057192
952.902261	0.057228
953.079049	0.056999
953.255819	0.056605
953.432570	0.057486
953.609303	0.055931
953.786018	0.057136
953.962715	0.055886
954.139394	0.057221
954.316054	0.057153
954.492696	0.055913
954.669320	0.055358
954.845926	0.055880
955.022513	0.055297
955.199083	0.056867
955.375634	0.055865
955.552166	0.056259
955.728681	0.056688
955.905177	0.057106
956.081655	0.057888
956.258115	0.056894
956.434557	0.057112
956.610980	0.057349
956.787385	0.055946
956.963772	0.056621
957.140141	0.057214
957.316492	0.056467
957.492824	0.055803
957.669138	0.055978
957.845434	0.056524
958.021712	0.057173
958.197971	0.056383
958.374212	0.057800
958.550435	0.057730
958.726640	0.057414
958.902826	0.056904
959.078995	0.056883
959.255145	0.056910
959.431277	0.056427
959.607390	0.057140
959.783486	0.056492
959.959563	0.055257
960.135622	0.056179
960.311662	0.057020
960.487685	0.057311
960.663689	0.058418
960.839675	0.059610
961.015643	0.059959
961.191593	0.059954
961.367524	0.061547
961.543437	0.062594
961.719332	0.061151
961.895209	0.061643
962.071067	0.061964
962.246907	0.061009
962.422730	0.059491
962.598533	0.061723
962.774319	0.059663
962.950086	0.059408
963.125835	0.059092
963.301566	0.059663
963.477279	0.058782
963.652973	0.057462
963.828650	0.058255
964.004308	0.058505
964.179947	0.057036
964.355569	0.059174
964.531172	0.059262
964.706757	0.060194
964.882324	0.061150
965.057873	0.062104
965.233403	0.062087
965.408916	0.063809
965.584410	0.064858
965.759885	0.066687
965.935343	0.065622
966.110782	0.066771
966.286203	0.066483
966.461606	0.066540
966.636991	0.065431
966.812357	0.065587
966.987705	0.061216
967.163035	0.062569
967.338347	0.061271
967.513641	0.061653
967.688916	0.060946
967.864173	0.062660
968.039412	0.062658
968.214632	0.062436
968.389835	0.064535
968.565019	0.067922
968.740185	0.067287
968.915333	0.067126
969.090462	0.068523
969.265573	0.069589
969.440667	0.067834
969.615741	0.067750
969.790798	0.068144
969.965836	0.067316
970.140856	0.067375
970.315858	0.064939
970.490842	0.064193
970.665808	0.062658
970.840755	0.061740
971.015684	0.061708
971.190595	0.062900
971.365487	0.064455
971.540362	0.063730
971.715218	0.062967
971.890056	0.064791
972.064875	0.065501
972.239677	0.065609
972.414460	0.065050
972.589225	0.065670
972.763972	0.065891
972.938700	0.065320
973.113411	0.065762
973.288103	0.066211
973.462777	0.065071
973.637432	0.064788
973.812070	0.065614
973.986689	0.065476
974.161290	0.064682
974.335873	0.063950
974.510437	0.063933
974.684984	0.064612
974.859512	0.064735
975.034022	0.065542
975.208513	0.063728
975.382987	0.065023
975.557442	0.066700
975.731879	0.067001
975.906298	0.065746
976.080698	0.065604
976.255080	0.065063
976.429445	0.063652
976.603790	0.063005
976.778118	0.064851
976.952427	0.063213
977.126719	0.060256
977.300992	0.059443
977.475246	0.060314
977.649483	0.061147
977.823701	0.062428
977.997901	0.063685
978.172083	0.065079
978.346247	0.065327
978.520392	0.065523
978.694519	0.066403
978.868628	0.068223
979.042719	0.067613
979.216791	0.068205
979.390845	0.067379
979.564882	0.069372
979.738899	0.069314
979.912899	0.067592
980.086880	0.066805
980.260843	0.067739
980.434788	0.066966
980.608715	0.068167
980.782623	0.068429
980.956514	0.067228
981.130386	0.063750
981.304240	0.064017
981.478075	0.066261
981.651892	0.065930
981.825692	0.067420
981.999472	0.065796
982.173235	0.068045
982.346980	0.066241
982.520706	0.066627
982.694414	0.067193
982.868104	0.065585
983.041775	0.064514
983.215428	0.066136
983.389064	0.064110
983.562680	0.067090
983.736279	0.064734
983.909860	0.064262
984.083422	0.064998
984.256966	0.066223
984.430491	0.066539
984.603999	0.068134
984.777488	0.067183
984.950959	0.068319
985.124412	0.067685
985.297847	0.067216
985.471263	0.068422
985.644661	0.069425
985.818041	0.069248
985.991403	0.070660
986.164747	0.068508
986.338072	0.067357
986.511379	0.067724
986.684668	0.067225
986.857938	0.066828
987.031191	0.066435
987.204425	0.065784
987.377641	0.067327
987.550839	0.066567
987.724018	0.066800
987.897179	0.069178
988.070322	0.067782
988.243447	0.068144
988.416554	0.069362
988.589642	0.069130
988.762712	0.067636
988.935764	0.065962
989.108798	0.065529
989.281813	0.066709
989.454811	0.065716
989.627790	0.064730
989.800751	0.064831
989.973693	0.065619
990.146617	0.065735
990.319524	0.065309
990.492412	0.066735
990.665281	0.066829
990.838133	0.068028
991.010966	0.069145
991.183781	0.071891
991.356578	0.070545
991.529356	0.068168
991.702117	0.068239
991.874859	0.068376
992.047583	0.065780
992.220288	0.066841
992.392976	0.063050
992.565645	0.062265
992.738296	0.061920
992.910929	0.062583
993.083543	0.063343
993.256139	0.063291
993.428718	0.064891
993.601277	0.066100
993.773819	0.064380
993.946342	0.065878
994.118848	0.067125
994.291335	0.067328
994.463803	0.067167
994.636254	0.067906
994.808686	0.068505
994.981100	0.068856
995.153496	0.070139
995.325874	0.071501
995.498233	0.072398
995.670574	0.071615
995.842897	0.071270
996.015202	0.071482
996.187488	0.070914
996.359757	0.069169
996.532007	0.066755
996.704239	0.064951
996.876452	0.065619
997.048648	0.065865
997.220825	0.066364
997.392984	0.066118
997.565124	0.066833
997.737247	0.065778
997.909351	0.067061
998.081437	0.069520
998.253505	0.069931
998.425554	0.069876
998.597586	0.069726
998.769599	0.069026
998.941594	0.068159
999.113571	0.067119
999.285529	0.068650
999.457469	0.069128
999.629391	0.067831
999.801295	0.067695
999.973181	0.067511
1000.145048	0.067154
1000.316897	0.066715
1000.488728	0.067763
1000.660541	0.068760
1000.832335	0.069678
1001.004111	0.067688
1001.175869	0.068879
1001.347609	0.068859
1001.519331	0.068073
1001.691034	0.067890
1001.862719	0.067928
1002.034386	0.068039
1002.206035	0.067101
1002.377665	0.064809
1002.549277	0.066394
1002.720871	0.066441
1002.892447	0.067278
1003.064004	0.066754
1003.235544	0.068365
1003.407065	0.068048
1003.578568	0.068277
1003.750052	0.069588
1003.921519	0.071001
1004.092967	0.072345
1004.264397	0.070207
1004.435809	0.069568
1004.607202	0.070600
1004.778577	0.069084
1004.949934	0.069808
1005.121273	0.069690
1005.292594	0.069233
1005.463896	0.068196
1005.635180	0.066662
1005.806446	0.068178
1005.977694	0.067130
1006.148923	0.067366
1006.320135	0.068488
1006.491328	0.068728
1006.662503	0.068486
1006.833659	0.067447
1007.004798	0.066633
1007.175918	0.065504
1007.347020	0.064874
1007.518103	0.066124
1007.689169	0.065819
1007.860216	0.065504
1008.031245	0.064102
1008.202256	0.062625
1008.373248	0.063518
1008.544223	0.065628
1008.715179	0.067585
1008.886117	0.067768
1009.057036	0.066188
1009.227938	0.065279
1009.398821	0.064726
1009.569686	0.065889
1009.740533	0.065373
1009.911361	0.064313
1010.082172	0.062175
1010.252964	0.060693
1010.423738	0.060779
1010.594493	0.062474
1010.765231	0.061544
1010.935950	0.062843
1011.106651	0.063089
1011.277334	0.065431
1011.447998	0.064834
1011.618645	0.065840
1011.789273	0.066051
1011.959882	0.066705
1012.130474	0.065472
1012.301048	0.066555
1012.471603	0.065537
1012.642140	0.065069
1012.812658	0.064946
1012.983159	0.065497
1013.153641	0.066634
1013.324105	0.067565
1013.494551	0.066466
1013.664979	0.066526
1013.835388	0.067456
1014.005779	0.066581
1014.176152	0.066048
1014.346507	0.065728
1014.516843	0.067271
1014.687162	0.067157
1014.857462	0.065609
1015.027744	0.064681
1015.198007	0.065495
1015.368252	0.064649
1015.538480	0.065767
1015.708689	0.064541
1015.878879	0.064606
1016.049052	0.064834
1016.219206	0.065420
1016.389342	0.066460
1016.559460	0.068233
1016.729559	0.068219
1016.899641	0.068161
1017.069704	0.066548
1017.239749	0.066729
1017.409775	0.065941
1017.579784	0.064597
1017.749774	0.064813
1017.919746	0.064328
1018.089700	0.063079
1018.259635	0.062738
1018.429553	0.063669
1018.599452	0.064729
1018.769333	0.066530
1018.939195	0.067497
1019.109040	0.066737
1019.278866	0.066309
1019.448674	0.066773
1019.618464	0.067337
1019.788235	0.066817
1019.957989	0.065827
1020.127724	0.066493
1020.297441	0.064880
1020.467139	0.064498
1020.636820	0.065524
1020.806482	0.064336
1020.976126	0.062342
1021.145752	0.061771
1021.315359	0.061784
1021.484948	0.062506
1021.654519	0.060732
1021.824072	0.063107
1021.993607	0.062357
1022.163123	0.062024
1022.332621	0.061864
1022.502101	0.063537
1022.671563	0.064936
1022.841007	0.065431
1023.010432	0.064717
1023.179839	0.065802
1023.349228	0.063689
1023.518598	0.063709
1023.687951	0.063621
1023.857285	0.066449
1024.026601	0.065854
1024.195899	0.064293
1024.365178	0.064402
1024.534439	0.064930
1024.703682	0.063195
1024.872907	0.064117
1025.042114	0.064796
1025.211302	0.064308
1025.380472	0.060960
1025.549624	0.061281
1025.718758	0.061898
1025.887873	0.062505
1026.056970	0.062649
1026.226049	0.064619
1026.395110	0.065208
1026.564153	0.065879
1026.733177	0.065781
1026.902183	0.066403
1027.071171	0.067220
1027.240141	0.067566
1027.409092	0.066392
1027.578026	0.066693
1027.746940	0.067074
1027.915837	0.064544
1028.084716	0.063305
1028.253576	0.063446
1028.422418	0.063138
1028.591242	0.061818
1028.760048	0.060359
1028.928835	0.060938
1029.097604	0.059857
1029.266355	0.059732
1029.435088	0.060247
1029.603803	0.059508
1029.772499	0.060687
1029.941177	0.059994
1030.109837	0.062176
1030.278478	0.063423
1030.447102	0.063485
1030.615707	0.062676
1030.784294	0.062237
1030.952863	0.064005
1031.121413	0.063187
1031.289945	0.062764
1031.458460	0.064221
1031.626955	0.062839
1031.795433	0.062421
1031.963892	0.063558
1032.132334	0.063747
1032.300756	0.063847
1032.469161	0.063033
1032.637548	0.065899
1032.805916	0.064405
1032.974266	0.063454
1033.142598	0.064129
1033.310911	0.065638
1033.479207	0.062982
1033.647484	0.064624
1033.815743	0.063648
1033.983983	0.065137
1034.152206	0.064018
1034.320410	0.063534
1034.488596	0.063796
1034.656764	0.062541
1034.824914	0.060975
1034.993045	0.061969
1035.161158	0.061574
1035.329253	0.062171
1035.497330	0.060365
1035.665388	0.060720
1035.833428	0.062953
1036.001450	0.064476
1036.169454	0.064554
1036.337440	0.065071
1036.505407	0.064925
1036.673356	0.063173
1036.841287	0.063630
1037.009200	0.064958
1037.177094	0.064117
1037.344970	0.065482
1037.512828	0.063836
1037.680668	0.063949
1037.848489	0.064150
1038.016293	0.064601
1038.184078	0.064685
1038.351845	0.066407
1038.519593	0.065552
1038.687324	0.065974
1038.855036	0.064161
1039.022730	0.065310
1039.190406	0.065387
1039.358063	0.064423
1039.525702	0.065824
1039.693323	0.067289
1039.860926	0.065276
1040.028511	0.064369
1040.196077	0.063162
1040.363625	0.062891
1040.531155	0.061770
1040.698667	0.061534
1040.866161	0.062468
1041.033636	0.060979
1041.201093	0.060822
1041.368532	0.061505
1041.535952	0.062465
1041.703355	0.062605
1041.870739	0.061894
1042.038105	0.062004
1042.205452	0.062945
1042.372782	0.063240
1042.540093	0.063809
1042.707386	0.062631
1042.874661	0.062453
1043.041918	0.060883
1043.209156	0.061436
1043.376376	0.062320
1043.543578	0.061756
1043.710762	0.060851
1043.877927	0.059307
1044.045074	0.059391
1044.212203	0.060991
1044.379314	0.060075
1044.546407	0.061921
1044.713481	0.061841
1044.880537	0.061790
1045.047575	0.062383
1045.214595	0.062601
1045.381596	0.063939
1045.548579	0.063659
1045.715544	0.063467
1045.882491	0.062771
1046.049420	0.062282
1046.216330	0.062118
1046.383222	0.062373
1046.550096	0.061348
1046.716951	0.061729
1046.883789	0.061759
1047.050608	0.060236
1047.217409	0.060584
1047.384192	0.060824
1047.550956	0.060215
1047.717703	0.061884
1047.884431	0.061807
1048.051140	0.062507
1048.217832	0.063732
1048.384505	0.063081
1048.551161	0.063559
1048.717798	0.062373
1048.884416	0.063865
1049.051017	0.065562
1049.217599	0.063392
1049.384163	0.063833
1049.550709	0.064415
1049.717237	0.063201
1049.883746	0.063905
1050.050237	0.064772
1050.216710	0.064501
1050.383165	0.064470
1050.549601	0.062718
1050.716019	0.065555
1050.882420	0.064685
1051.048801	0.064321
1051.215165	0.063123
1051.381510	0.061760
1051.547837	0.061362
1051.714146	0.060748
1051.880437	0.059172
1052.046709	0.060027
1052.212964	0.058952
1052.379200	0.058804
1052.545417	0.058254
1052.711617	0.058304
1052.877798	0.059001
1053.043961	0.057801
1053.210106	0.057312
1053.376233	0.058557
1053.542341	0.057769
1053.708432	0.056569
1053.874504	0.056809
1054.040557	0.058697
1054.206593	0.060486
1054.372610	0.059965
1054.538609	0.062142
1054.704590	0.064111
1054.870553	0.062486
1055.036497	0.061866
1055.202424	0.061530
1055.368331	0.061378
1055.534221	0.061360
1055.700093	0.059485
1055.865946	0.058989
1056.031781	0.059085
1056.197598	0.059597
1056.363397	0.061390
1056.529177	0.062503
1056.694939	0.062224
1056.860683	0.063644
1057.026409	0.063092
1057.192116	0.064767
1057.357806	0.066651
1057.523477	0.066056
1057.689130	0.065446
1057.854764	0.064576
1058.020381	0.065974
1058.185979	0.066244
1058.351559	0.065862
1058.517120	0.065467
1058.682664	0.063959
1058.848189	0.063281
1059.013696	0.063749
1059.179185	0.063417
1059.344656	0.064263
1059.510108	0.062384
1059.675542	0.064516
1059.840958	0.063269
1060.006356	0.063107
1060.171735	0.063492
1060.337096	0.062836
1060.502439	0.062655
1060.667764	0.061908
1060.833071	0.060536
1060.998359	0.061014
1061.163629	0.060227
1061.328881	0.059444
1061.494115	0.058834
1061.659330	0.059656
1061.824527	0.060695
1061.989706	0.060648
1062.154867	0.062927
1062.320010	0.064999
1062.485134	0.064715
1062.650240	0.064961
1062.815328	0.066673
1062.980398	0.067225
1063.145449	0.066319
1063.310482	0.065503
1063.475497	0.065778
1063.640494	0.064770
1063.805473	0.064773
1063.970433	0.065057
1064.135375	0.063870
1064.300299	0.062091
1064.465204	0.062946
1064.630092	0.062972
1064.794961	0.063062
1064.959812	0.061749
1065.124645	0.061850
1065.289459	0.059212
1065.454256	0.059857
1065.619034	0.058320
1065.783793	0.059269
1065.948535	0.057836
1066.113258	0.058947
1066.277964	0.059498
1066.442651	0.059854
1066.607319	0.058644
1066.771970	0.060371
1066.936602	0.061849
1067.101216	0.064843
1067.265812	0.063286
1067.430389	0.064381
1067.594949	0.064153
1067.759490	0.063979
1067.924013	0.065609
1068.088518	0.065937
1068.253004	0.065787
1068.417472	0.063010
1068.581922	0.063785
1068.746354	0.066009
1068.910768	0.064655
1069.075163	0.063634
1069.239540	0.064014
1069.403899	0.063872
1069.568240	0.064124
1069.732562	0.063818
1069.896866	0.063969
1070.061152	0.063268
1070.225420	0.062979
1070.389670	0.063308
1070.553901	0.062936
1070.718114	0.060622
1070.882309	0.060985
1071.046486	0.063363
1071.210644	0.063837
1071.374784	0.064292
1071.538906	0.061613
1071.703010	0.062264
1071.867096	0.061770
1072.031163	0.061361
1072.195212	0.063503
1072.359243	0.060706
1072.523256	0.060311
1072.687250	0.060695
1072.851226	0.058278
1073.015184	0.059772
1073.179124	0.060715
1073.343045	0.060962
1073.506949	0.061898
1073.670834	0.059195
1073.834701	0.059175
1073.998549	0.057156
1074.162380	0.055351
1074.326192	0.058496
1074.489986	0.060312
1074.653761	0.057771
1074.817519	0.060280
1074.981258	0.060679
1075.144979	0.063583
1075.308682	0.065442
1075.472367	0.063639
1075.636033	0.066473
1075.799681	0.064834
1075.963311	0.062324
1076.126923	0.063506
1076.290516	0.062814
1076.454092	0.062072
1076.617649	0.063124
1076.781187	0.062301
1076.944708	0.064784
1077.108210	0.065397
1077.271695	0.065781
1077.435160	0.065900
1077.598608	0.066092
1077.762038	0.065906
1077.925449	0.068737
1078.088842	0.066039
1078.252217	0.066366
1078.415573	0.064610
1078.578912	0.064399
1078.742232	0.065842
1078.905534	0.067154
1079.068817	0.067269
1079.232083	0.066292
1079.395330	0.063979
1079.558559	0.066146
1079.721770	0.067243
1079.884962	0.066418
1080.048136	0.063227
1080.211293	0.061337
1080.374430	0.059477
1080.537550	0.058620
1080.700651	0.057392
1080.863735	0.058264
1081.026800	0.058979
1081.189846	0.057811
1081.352875	0.060160
1081.515885	0.061301
1081.678877	0.062509
1081.841851	0.062910
1082.004807	0.063018
1082.167744	0.065315
1082.330663	0.066299
1082.493564	0.065195
1082.656447	0.067825
1082.819312	0.068823
1082.982158	0.069803
1083.144986	0.071848
1083.307796	0.072502
1083.470587	0.073382
1083.633361	0.073909
1083.796116	0.074016
1083.958853	0.075565
1084.121571	0.072011
1084.284272	0.072133
1084.446954	0.071216
1084.609618	0.070204
1084.772264	0.069397
1084.934892	0.071020
1085.097501	0.069235
1085.260092	0.067469
1085.422665	0.068228
1085.585220	0.070360
1085.747756	0.071096
1085.910274	0.072599
1086.072774	0.074269
1086.235256	0.076042
1086.397720	0.072880
1086.560165	0.071682
1086.722592	0.071855
1086.885001	0.069483
1087.047392	0.068068
1087.209764	0.066203
1087.372119	0.066080
1087.534455	0.065816
1087.696772	0.063876
1087.859072	0.064018
1088.021353	0.067289
1088.183616	0.067463
1088.345861	0.066671
1088.508088	0.063636
1088.670296	0.064407
1088.832486	0.061522
1088.994658	0.059606
1089.156812	0.060080
1089.318948	0.061730
1089.481065	0.060825
1089.643164	0.060473
1089.805245	0.062273
1089.967308	0.066229
1090.129352	0.068543
1090.291378	0.069684
1090.453386	0.070270
1090.615376	0.070481
1090.777347	0.069441
1090.939301	0.069457
1091.101236	0.069494
1091.263153	0.068360
1091.425051	0.070030
1091.586932	0.064127
1091.748794	0.063331
1091.910638	0.060763
1092.072463	0.060277
1092.234271	0.060353
1092.396060	0.059840
1092.557831	0.059514
1092.719584	0.057116
1092.881319	0.056051
1093.043035	0.060065
1093.204733	0.060925
1093.366413	0.066663
1093.528075	0.067501
1093.689718	0.066516
1093.851343	0.068000
1094.012950	0.067565
1094.174539	0.068929
1094.336110	0.066347
1094.497662	0.065224
1094.659196	0.067022
1094.820712	0.062253
1094.982210	0.061905
1095.143689	0.060931
1095.305151	0.061178
1095.466594	0.062295
1095.628018	0.063433
1095.789425	0.064709
1095.950813	0.062398
1096.112183	0.059116
1096.273535	0.060528
1096.434869	0.064248
1096.596184	0.067695
1096.757482	0.067181
1096.918761	0.066929
1097.080021	0.066987
1097.241264	0.065806
1097.402488	0.068930
1097.563694	0.071064
1097.724882	0.067253
1097.886052	0.062508
1098.047203	0.059868
1098.208336	0.059746
1098.369451	0.058611
1098.530548	0.058823
1098.691627	0.058959
1098.852687	0.058921
1099.013729	0.055508
1099.174753	0.056889
1099.335758	0.058688
1099.496746	0.061006
1099.657715	0.058833
1099.818666	0.060113
1099.979599	0.059038
1100.140513	0.057907
1100.301409	0.056827
1100.462287	0.060911
1100.623147	0.061928
1100.783989	0.059580
1100.944812	0.057850
1101.105617	0.056129
1101.266404	0.055566
1101.427173	0.055208
1101.587923	0.055657
1101.748656	0.054722
1101.909370	0.051680
1102.070066	0.052194
1102.230743	0.052361
1102.391403	0.053576
1102.552044	0.058262
1102.712667	0.056846
1102.873271	0.055440
1103.033858	0.058260
1103.194426	0.057113
1103.354976	0.058738
1103.515508	0.062293
1103.676021	0.067704
1103.836517	0.066649
1103.996994	0.060240
1104.157453	0.059300
1104.317893	0.062657
1104.478316	0.059225
1104.638720	0.060951
1104.799106	0.062035
1104.959474	0.057659
1105.119823	0.055103
1105.280155	0.056509
1105.440468	0.061939
1105.600763	0.064127
1105.761039	0.063590
1105.921298	0.064987
1106.081538	0.065644
1106.241760	0.066035
1106.401964	0.066808
1106.562149	0.065067
1106.722316	0.065694
1106.882465	0.061615
1107.042596	0.061365
1107.202709	0.064095
1107.362803	0.063729
1107.522879	0.065160
1107.682937	0.063956
1107.842977	0.061087
1108.002999	0.062775
1108.163002	0.056956
1108.322987	0.058675
1108.482954	0.059828
1108.642902	0.061536
1108.802833	0.063220
1108.962745	0.063264
1109.122639	0.063426
1109.282515	0.067179
1109.442372	0.065084
1109.602211	0.068833
1109.762032	0.067216
1109.921835	0.068950
1110.081620	0.066886
1110.241386	0.064235
1110.401134	0.063624
1110.560864	0.061349
1110.720576	0.057901
1110.880269	0.057806
1111.039945	0.059754
1111.199602	0.061169
1111.359240	0.055750
1111.518861	0.053285
1111.678463	0.058614
1111.838047	0.059455
1111.997613	0.060829
1112.157161	0.064214
1112.316690	0.064478
1112.476202	0.068620
1112.635695	0.070083
1112.795169	0.070394
1112.954626	0.068904
1113.114064	0.063375
1113.273484	0.058640
1113.432886	0.058376
1113.592270	0.058841
1113.751635	0.062565
1113.910983	0.057661
1114.070312	0.059750
1114.229622	0.064840
1114.388915	0.066176
1114.548189	0.064010
1114.707445	0.067351
1114.866683	0.066607
1115.025903	0.062703
1115.185104	0.059909
1115.344287	0.060562
1115.503452	0.058885
1115.662599	0.053735
1115.821727	0.054229
1115.980838	0.061987
1116.139930	0.060981
1116.299004	0.064283
1116.458059	0.067292
1116.617097	0.068571
1116.776116	0.066498
1116.935117	0.067357
1117.094099	0.070323
1117.253064	0.068155
1117.412010	0.064863
1117.570938	0.063886
1117.729848	0.061838
1117.888740	0.059102
1118.047613	0.057784
1118.206468	0.061230
1118.365305	0.062168
1118.524124	0.063262
1118.682924	0.064671
1118.841707	0.062921
1119.000471	0.065098
1119.159216	0.065756
1119.317944	0.071130
1119.476653	0.072605
1119.635344	0.067353
1119.794017	0.061970
1119.952672	0.058055
1120.111308	0.057258
1120.269927	0.056638
1120.428527	0.056682
1120.587108	0.054121
1120.745672	0.051900
1120.904217	0.050694
1121.062744	0.055908
1121.221253	0.058507
1121.379744	0.059016
1121.538216	0.061155
1121.696671	0.067547
1121.855107	0.066802
1122.013524	0.067849
1122.171924	0.068844
1122.330305	0.069718
1122.488668	0.070578
1122.647013	0.071328
1122.805340	0.080100
1122.963648	0.078613
1123.121938	0.072782
1123.280210	0.074235
1123.438464	0.076854
1123.596700	0.075963
1123.754917	0.073365
1123.913116	0.070232
1124.071297	0.067977
1124.229459	0.064890
1124.387604	0.066337
1124.545730	0.066814
1124.703838	0.066221
1124.861928	0.063431
1125.019999	0.064446
1125.178052	0.064090
1125.336088	0.061356
1125.494104	0.064277
1125.652103	0.063202
1125.810083	0.061315
1125.968045	0.059684
1126.125989	0.056735
1126.283915	0.056617
1126.441823	0.055020
1126.599712	0.058131
1126.757583	0.060253
1126.915436	0.059054
1127.073270	0.057053
1127.231087	0.058450
1127.388885	0.058799
1127.546665	0.062936
1127.704426	0.066135
1127.862170	0.063045
1128.019895	0.064101
1128.177602	0.071229
1128.335291	0.071726
1128.492961	0.069024
1128.650614	0.069033
1128.808248	0.075504
1128.965864	0.069979
1129.123461	0.066285
1129.281041	0.069862
1129.438602	0.066170
1129.596145	0.062314
1129.753670	0.063338
1129.911176	0.069597
1130.068665	0.065537
1130.226135	0.060124
1130.383587	0.063773
1130.541020	0.066009
1130.698436	0.066997
1130.855833	0.071465
1131.013212	0.070498
1131.170573	0.066803
1131.327915	0.063194
1131.485239	0.065161
1131.642545	0.063962
1131.799833	0.065417
1131.957103	0.064207
1132.114354	0.063204
1132.271588	0.061247
1132.428803	0.058549
1132.585999	0.059348
1132.743178	0.059327
1132.900338	0.058280
1133.057480	0.059390
1133.214604	0.052384
1133.371710	0.052546
1133.528797	0.050607
1133.685866	0.050956
1133.842917	0.049029
1133.999950	0.052212
1134.156964	0.048762
1134.313960	0.043898
1134.470938	0.043707
1134.627898	0.050205
1134.784840	0.052212
1134.941763	0.050810
1135.098668	0.057041
1135.255555	0.059322
1135.412424	0.060463
1135.569274	0.060289
1135.726107	0.066578
1135.882921	0.063028
1136.039716	0.061526
1136.196494	0.053070
1136.353253	0.054581
1136.509995	0.046292
1136.666717	0.045262
1136.823422	0.038861
1136.980109	0.044706
1137.136777	0.045881
1137.293427	0.051547
1137.450059	0.054006
1137.606672	0.062236
1137.763267	0.062415
1137.919844	0.063767
1138.076403	0.066912
1138.232944	0.071090
1138.389466	0.071894
1138.545971	0.070062
1138.702457	0.066354
1138.858924	0.059437
1139.015374	0.054756
1139.171805	0.053194
1139.328218	0.048802
1139.484613	0.044299
1139.640990	0.041980
1139.797348	0.037586
1139.953688	0.034797
1140.110010	0.040344
1140.266314	0.043554
1140.422600	0.046963
1140.578867	0.050552
1140.735116	0.053057
1140.891347	0.053643
1141.047559	0.056559
1141.203754	0.051069
1141.359930	0.053700
1141.516088	0.045791
1141.672228	0.046005
1141.828349	0.049491
1141.984452	0.044358
1142.140537	0.050963
1142.296604	0.053797
1142.452653	0.054231
1142.608683	0.068198
1142.764695	0.069540
1142.920689	0.077237
1143.076665	0.079159
1143.232622	0.074365
1143.388562	0.073399
1143.544483	0.063671
1143.700385	0.062081
1143.856270	0.059783
1144.012136	0.057843
1144.167985	0.059446
1144.323814	0.060779
1144.479626	0.062276
1144.635420	0.059296
1144.791195	0.063252
1144.946952	0.070727
1145.102691	0.070711
1145.258411	0.069501
1145.414113	0.061564
1145.569798	0.057485
1145.725463	0.053713
1145.881111	0.052240
1146.036741	0.052199
1146.192352	0.054471
1146.347945	0.049639
1146.503519	0.045582
1146.659076	0.048533
1146.814614	0.047929
1146.970134	0.055716
1147.125636	0.055289
1147.281120	0.046510
1147.436585	0.047555
1147.592032	0.040612
1147.747461	0.037327
1147.902872	0.041214
1148.058265	0.038164
1148.213639	0.045534
1148.368995	0.034680
1148.524333	0.039493
1148.679653	0.041842
1148.834954	0.050574
1148.990237	0.056022
1149.145502	0.054975
1149.300749	0.053206
1149.455977	0.049232
1149.611188	0.042052
1149.766380	0.047029
1149.921553	0.036712
1150.076709	0.041940
1150.231846	0.031669
1150.386966	0.029721
1150.542066	0.031857
1150.697149	0.034429
1150.852214	0.049741
1151.007260	0.048728
1151.162288	0.042057
1151.317298	0.045843
1151.472289	0.044861
1151.627263	0.045534
1151.782218	0.042571
1151.937155	0.049563
1152.092073	0.047946
1152.246974	0.039189
1152.401856	0.047964
1152.556720	0.055125
1152.711566	0.056121
1152.866393	0.062336
1153.021203	0.068883
1153.175994	0.077142
1153.330767	0.072049
1153.485521	0.076986
1153.640258	0.076646
1153.794976	0.072768
1153.949676	0.072949
1154.104358	0.075136
1154.259021	0.075069
1154.413667	0.074440
1154.568294	0.076911
1154.722903	0.076001
1154.877493	0.073348
1155.032066	0.072096
1155.186620	0.067794
1155.341156	0.061113
1155.495674	0.058455
1155.650173	0.060082
1155.804654	0.064432
1155.959118	0.061849
1156.113562	0.068588
1156.267989	0.067650
1156.422397	0.069477
1156.576788	0.074995
1156.731160	0.084012
1156.885513	0.090641
1157.039849	0.082543
1157.194166	0.084746
1157.348465	0.082056
1157.502746	0.077983
1157.657009	0.081789
1157.811253	0.076182
1157.965479	0.069452
1158.119687	0.067386
1158.273877	0.065056
1158.428048	0.064693
1158.582201	0.055464
1158.736337	0.057276
1158.890453	0.053320
1159.044552	0.043406
1159.198632	0.035729
1159.352694	0.045497
1159.506738	0.047237
1159.660764	0.044888
1159.814771	0.043051
1159.968761	0.049335
1160.122732	0.042433
1160.276685	0.053293
1160.430619	0.068282
1160.584535	0.086178
1160.738434	0.082052
1160.892313	0.079174
1161.046175	0.073892
1161.200019	0.075679
1161.353844	0.073263
1161.507651	0.075511
1161.661440	0.070439
1161.815210	0.062580
1161.968962	0.055294
1162.122697	0.059761
1162.276412	0.054301
1162.430110	0.054422
1162.583789	0.052965
1162.737451	0.045601
1162.891094	0.047310
1163.044718	0.042438
1163.198325	0.046063
1163.351913	0.043918
1163.505483	0.032983
1163.659035	0.034716
1163.812569	0.047612
1163.966084	0.054986
1164.119581	0.054909
1164.273060	0.051550
1164.426521	0.053641
1164.579964	0.047690
1164.733388	0.066484
1164.886794	0.077113
1165.040182	0.070679
1165.193551	0.067497
1165.346903	0.064458
1165.500236	0.063146
1165.653551	0.063233
1165.806848	0.062037
1165.960126	0.060608
1166.113386	0.049631
1166.266628	0.049428
1166.419852	0.066721
1166.573058	0.064435
1166.726245	0.068949
1166.879414	0.077260
1167.032565	0.082526
1167.185698	0.096073
1167.338812	0.081679
1167.491909	0.080109
1167.644987	0.069492
1167.798046	0.067746
1167.951088	0.070116
1168.104111	0.064399
1168.257117	0.049372
1168.410103	0.041830
1168.563072	0.031073
1168.716023	0.054470
1168.868955	0.054132
1169.021869	0.051192
1169.174765	0.049851
1169.327642	0.058294
1169.480501	0.052059
1169.633343	0.069420
1169.786165	0.083046
1169.938970	0.086999
1170.091757	0.080352
1170.244525	0.086572
1170.397275	0.089102
1170.550007	0.083921
1170.702720	0.063478
1170.855415	0.072410
1171.008092	0.066281
1171.160751	0.059873
1171.313392	0.056605
1171.466014	0.099926
1171.618619	0.051500
1171.771205	0.051500
1171.923772	0.051500
