sample name	sample
index	34
start time	 02-11-2021  12:58:06 PM
880	0.191837
Peak Time (s)	81.535
Peak Height 	0.1918
calc peak height	80,83
Baseline Time (s)	11.039
Baseline Value 	-0.001867
subtract baseline	10,4
Abs	0.131397
Peak Time (s)	81.535
Peak Height 	0.1314
calc peak height	80,83
Baseline Time (s)	11.537
Baseline Value 	0.003879
subtract baseline	10,3
PK_550	0.053208
Peak Time (s)	80.034
Peak Height 	0.05321
calc peak height	80,83
Baseline Time (s)	11.039
Baseline Value 	3.7813E-4
subtract baseline	10,2
PK_880	0.124686
Peak Time (s)	82.536
Peak Height 	0.1247
calc peak height	80,83
Baseline Time (s)	10.036
Baseline Value 	-9.3226E-5
subtract baseline	10,1


Time (s)	A880-A510	A880-A775	A880-A975	A880	I510	I775	I975	I880	
0.035500	-0.004766	-0.001312	0.002654	0.005978	4575.007533	19757.679799	3291.320117	10667.976860
0.536000	0.001020	-0.000863	-0.006757	0.002601	4610.161746	19906.311311	3285.800349	10728.506002
1.036500	0.001920	-0.000943	-0.002439	-0.000576	4626.037719	20027.501598	3292.668368	10785.854751
1.539000	0.000160	-0.000398	-0.003505	0.003627	4602.865945	19884.410677	3287.827649	10710.063840
2.036000	0.000009	0.000506	0.000375	0.001313	4611.234008	20010.280661	3293.525631	10751.707762
2.534000	-0.001366	-0.000261	0.004359	-0.000981	4614.802533	20070.296345	3299.382358	10793.197792
3.036500	-0.004891	-0.001469	0.000043	0.001251	4592.569619	19935.356954	3293.275136	10752.827935
3.534500	-0.003302	-0.000554	-0.001628	0.003675	4589.369730	19876.464722	3289.501534	10709.194930
4.034500	-0.000341	0.000868	-0.000579	0.002789	4604.166721	19966.588508	3291.279768	10725.115795
4.535000	0.001549	-0.000045	0.003555	0.001799	4615.327251	19969.591093	3296.028668	10742.936101
5.035000	0.001380	-0.000016	-0.000778	0.002781	4610.855983	19932.323680	3291.104480	10725.256755
5.535500	0.001223	0.000413	-0.000071	0.002834	4610.046130	19947.048432	3291.707495	10724.312644
6.036000	-0.001847	-0.000222	0.003002	-0.000992	4612.973827	20072.243008	3298.119917	10793.397195
6.562000	0.002824	-0.000758	-0.000943	-0.001335	4632.560672	20064.645047	3294.758705	10799.626685
7.036500	0.000230	-0.001639	-0.005779	0.000987	4613.358126	19939.016251	3288.162819	10757.595474
7.539500	0.004559	0.000730	0.002626	0.000033	4634.004140	20069.390845	3296.809898	10774.838742
8.037000	-0.000025	0.000403	0.000977	-0.000152	4616.795028	20063.780691	3295.443916	10778.178503
8.534500	0.002436	-0.000756	0.000711	-0.001801	4632.867745	20083.114149	3296.733864	10808.099194
9.035000	0.000138	-0.000005	0.008943	-0.000684	4619.501919	20068.678524	3303.432310	10787.812368
9.535000	-0.003055	-0.000526	-0.005822	0.004210	4588.265402	19856.719438	3285.188469	10699.602278
10.036000	0.000000	0.000401	-0.010378	-0.002241	4625.040804	20146.155746	3286.911033	10816.085781
10.536000	-0.000597	0.000029	-0.003057	0.000513	4611.987734	20022.947421	3291.094272	10766.156810
11.038500	0.003594	0.000000	0.002067	0.000000	4630.340207	20041.960314	3296.318462	10775.430819
11.536500	-0.001242	0.000580	0.000000	0.002255	4602.748254	19976.253305	3292.307206	10734.731429
12.037000	0.000287	0.000363	0.013753	0.000837	4614.163435	20023.331469	3306.565871	10760.304925
12.537000	-0.001017	-0.001755	0.010344	-0.001261	4617.250228	20022.569525	3305.313930	10798.292428
13.037500	0.002307	0.000129	0.000313	0.001031	4621.271483	20006.511152	3293.728254	10756.786726
13.534500	0.001918	0.000243	-0.005384	0.001586	4617.589861	19989.211333	3287.975516	10746.775264
14.035000	0.000774	-0.000211	0.007334	0.000370	4617.870996	20019.119738	3300.911767	10768.729729
14.536000	0.001261	-0.000356	-0.004094	-0.000100	4621.606373	20031.906653	3290.704552	10777.243810
15.035500	0.000439	0.000607	-0.005276	0.000556	4615.845496	20043.959144	3289.016845	10765.373211
15.536000	-0.002136	-0.000897	-0.000334	0.000576	4605.780056	19984.151909	3293.550953	10765.010951
16.036500	-0.001644	-0.000259	-0.000681	0.000207	4609.110581	20023.621602	3293.570938	10771.678924
16.536500	-0.001094	-0.000531	-0.003915	-0.000387	4613.552697	20036.293727	3291.132590	10782.437651
17.037000	0.000438	0.000494	0.000996	-0.000143	4618.562269	20067.017415	3295.453384	10778.016700
17.537500	0.001581	0.000500	0.010927	0.001859	4615.220825	19988.633594	3302.902402	10741.865863
18.037500	-0.000898	-0.001023	-0.005575	-0.000862	4616.162995	20035.654391	3290.044060	10791.053916
18.534500	0.002386	0.000283	-0.008519	0.000209	4624.792082	20044.860469	3286.373241	10771.651009
19.035500	0.000016	-0.000821	0.004226	-0.000797	4619.462689	20040.997904	3299.084766	10789.858993
19.536000	-0.000280	0.000361	0.003063	0.002142	4606.902418	19972.060910	3295.250674	10736.752606
20.036500	0.002058	0.000907	0.007302	-0.002204	4632.967106	20164.733101	3303.317357	10815.426532
20.539000	0.000197	-0.000739	0.005543	-0.001799	4624.084800	20083.687457	3301.268866	10808.054406
21.048000	-0.000736	0.000400	0.004598	-0.000845	4616.723336	20090.982321	3299.479581	10790.735121
21.537000	0.001722	-0.000088	0.003559	-0.001164	4627.569628	20084.342759	3298.804371	10796.532802
22.037000	0.000536	-0.000215	0.006940	-0.001056	4622.509165	20075.062395	3301.887133	10794.571634
22.537000	-0.000330	0.000497	0.002670	-0.001386	4620.414197	20116.187190	3298.178444	10800.561738
23.035000	-0.000290	0.000620	0.007851	-0.000494	4617.093751	20085.818856	3302.217345	10784.376739
23.535000	0.001522	-0.001458	0.003332	-0.001673	4628.774700	20050.419243	3299.068465	10805.760635
24.035500	-0.000038	0.001879	0.008305	0.002345	4607.052620	20023.640278	3299.965991	10733.101420
24.565500	0.000866	-0.000251	-0.005460	-0.001730	4626.432789	20100.246865	3290.947680	10806.810298
25.036500	-0.002104	-0.000281	0.006421	-0.001138	4612.543480	20075.670767	3301.474055	10796.049134
25.536000	-0.002523	0.000037	0.006287	0.004055	4590.900256	19884.697679	3296.472249	10702.388318
26.037000	0.003385	0.000674	0.003665	-0.000838	4632.811469	20101.537328	3298.597531	10790.619312
26.537000	0.001983	0.000274	0.002529	-0.003051	4635.998314	20173.214132	3299.608133	10830.837532
27.037000	-0.004435	0.000801	0.005529	0.000031	4599.013222	20072.238485	3299.531205	10774.866780
27.537000	-0.001956	0.000102	-0.002545	0.002615	4598.608468	19943.452984	3289.633615	10728.252120
28.035000	0.000175	-0.000391	-0.008259	-0.000071	4617.256700	20029.370715	3286.864453	10776.714422
28.535000	-0.001604	-0.000638	-0.002210	0.001151	4605.614142	19971.763160	3291.286980	10754.624199
29.035500	-0.000426	-0.000812	-0.009072	-0.000591	4616.939498	20033.247653	3286.597123	10786.125688
29.535500	-0.001822	-0.000780	0.006577	0.002585	4599.241440	19910.183397	3298.118178	10728.791107
30.039000	0.000824	0.000418	0.003633	0.000837	4616.249163	20025.498996	3296.998784	10760.298669
30.536500	-0.000530	-0.000947	-0.010454	-0.000192	4614.986728	20012.294469	3284.979373	10778.907599
31.037000	-0.000751	-0.000073	-0.005606	-0.000003	4613.392811	20039.215872	3289.227370	10775.490950
31.537000	-0.003738	-0.000553	-0.000935	0.000790	4598.775074	19989.245775	3292.797368	10761.153320
32.037500	0.001182	0.000721	-0.003576	0.002189	4612.385472	19984.339246	3289.077782	10735.912574
32.537500	-0.000194	0.000057	0.001360	0.000208	4614.733954	20036.014800	3295.465709	10771.660815
33.035000	0.001573	-0.001367	0.010597	-0.000604	4624.792280	20012.021128	3304.929702	10786.377669
33.534500	-0.000404	-0.000436	-0.009876	0.001428	4609.190128	19968.831621	3284.036541	10749.637283
34.035000	0.000033	-0.000648	0.006017	-0.000493	4618.349763	20035.866026	3300.484332	10784.357156
34.538500	-0.002563	-0.000298	0.010361	-0.000023	4606.446625	20031.153370	3304.151174	10775.841419
35.036000	-0.001018	-0.000982	0.007619	-0.000246	4613.296415	20013.018199	3301.762489	10779.878510
35.536500	0.000546	-0.000762	0.002284	0.000707	4615.672221	19984.283178	3295.861953	10762.647607
36.036500	0.003921	0.001657	0.001044	0.002139	4623.251378	20023.036813	3293.379727	10736.822422
36.537000	0.001508	0.001060	0.002013	0.001161	4617.651721	20038.014033	3295.187035	10754.455507
37.035000	0.001605	0.000971	0.012798	-0.003546	4636.463939	20220.490948	3309.857642	10839.872728
37.535000	-0.001471	-0.000157	0.001775	0.002564	4600.673050	19935.282960	3293.662377	10729.156797
38.040500	-0.000217	0.001221	0.002430	-0.000699	4618.177427	20117.618005	3297.310664	10788.089049
38.535500	-0.001492	0.000120	0.005425	-0.000957	4614.220156	20084.360795	3300.363663	10792.771039
39.036000	-0.000565	-0.000729	0.011621	-0.002033	4622.023134	20093.308436	3307.271807	10812.307414
39.536000	-0.004168	-0.000784	0.001026	0.003827	4585.476838	19861.618387	3291.802687	10706.474229
40.036500	-0.000919	0.000215	-0.003955	-0.000529	4614.781584	20071.230501	3291.227025	10785.009937
40.536500	0.000041	-0.000744	0.000221	0.000022	4616.371844	20011.852798	3294.579441	10775.024551
41.037000	-0.000868	-0.001873	-0.000743	-0.000300	4614.092435	19980.221339	3293.984085	10780.859594
41.537500	-0.000115	-0.000462	-0.008105	0.001615	4609.583271	19960.502148	3285.472169	10746.264192
42.068500	0.001598	0.000886	-0.006683	-0.000401	4624.096658	20092.630337	3288.604369	10782.688823
42.535000	-0.000190	0.000019	0.005951	-0.001232	4620.358365	20091.211150	3301.118453	10797.755939
43.035500	-0.000561	0.000913	0.001086	-0.000272	4615.175073	20088.588163	3295.657367	10780.348492
43.535500	-0.002042	-0.000639	0.005083	0.004250	4591.997024	19850.806701	3295.169081	10698.895415
44.039000	0.000061	0.000980	0.008307	-0.004178	4632.872983	20245.981189	3306.153842	10851.403116
44.536500	-0.004540	-0.000391	0.000427	0.000520	4596.729613	20006.187657	3294.309184	10766.034172
45.036000	-0.047857	-0.028394	0.012156	0.224913	3828.206735	12495.339632	3138.238166	7598.393690
45.537000	-0.026405	-0.026532	0.013062	0.166378	4010.559744	13917.273474	3174.471981	8274.046854
46.037000	-0.011957	-0.014969	-0.004314	-0.056981	4800.885287	21776.402010	3346.377791	11877.352079
46.537000	0.013650	-0.002229	0.015139	-0.116420	5206.347893	25177.643449	3437.048155	13191.784912
47.034500	0.034702	0.011575	0.030960	-0.095805	5208.636789	24831.986473	3431.055887	12715.385042
47.535500	0.037347	0.016596	0.033922	-0.042875	4959.125984	22548.044064	3372.383511	11590.954932
48.036000	0.043419	0.022864	0.049098	0.013194	4738.090159	20426.429207	3329.143881	10540.237610
48.536000	0.043233	0.027910	0.059943	0.015864	4726.216023	20522.246625	3337.464966	10493.508950
49.036000	0.056467	0.036416	0.056448	0.024406	4745.765218	20520.759487	3325.266290	10345.916065
49.536500	0.061881	0.040505	0.076194	0.053315	4649.958080	19545.623191	3316.204928	9867.426615
50.036500	0.066340	0.045380	0.081995	0.061042	4637.037473	19437.067565	3314.323152	9744.830370
50.537500	0.073169	0.051482	0.081070	0.076180	4604.623898	19097.893980	3298.959587	9510.892482
51.034000	0.074546	0.048986	0.080187	0.094762	4539.444021	18333.639533	3281.088786	9234.669027
51.534500	0.087690	0.056477	0.098518	0.117717	4503.414686	17796.036953	3276.959426	8909.344779
52.037500	0.094005	0.054809	0.098930	0.126002	4496.279760	17460.023900	3270.030092	8796.096752
52.535500	0.094024	0.055276	0.107678	0.126383	4494.971374	17462.886848	3277.398566	8790.931818
53.035500	0.095156	0.055184	0.105751	0.129048	4489.441136	17371.117610	3273.336530	8754.986159
53.539000	0.099347	0.057694	0.099790	0.130212	4500.372805	17415.833696	3267.118331	8739.357196
54.035500	0.104245	0.058152	0.114526	0.131607	4513.119000	17384.707868	3278.845177	8720.680406
54.536500	0.107412	0.059138	0.099594	0.134095	4515.602565	17334.942393	3263.604381	8687.525147
55.037000	0.106530	0.059161	0.105373	0.135012	4509.036133	17305.391558	3267.797156	8675.353351
55.534500	0.107167	0.060613	0.116181	0.137815	4501.162451	17260.857992	3274.803040	8638.299402
56.037000	0.111190	0.060350	0.104858	0.139993	4507.868067	17180.726710	3263.061855	8609.676964
56.535000	0.108778	0.058250	0.103814	0.142384	4490.472587	17034.442022	3260.131451	8578.403458
57.037500	0.108204	0.058550	0.103658	0.146018	4475.394115	16926.885573	3256.926678	8531.225392
57.535500	0.110534	0.057867	0.098536	0.151795	4463.146798	16720.739012	3247.862681	8457.021146
58.036000	0.107957	0.058707	0.122998	0.153317	4448.712612	16699.171120	3267.208497	8437.640319
58.536000	0.108116	0.058604	0.104208	0.155877	4440.321526	16615.202597	3249.170739	8405.185034
59.036500	0.108949	0.058841	0.112253	0.158995	4432.377684	16524.950709	3253.255170	8365.912460
59.536500	0.100005	0.057829	0.097109	0.166644	4375.925020	16257.205982	3234.743103	8270.754500
60.037000	0.106106	0.058539	0.104083	0.163234	4408.021392	16383.926075	3243.056528	8312.975819
60.537000	0.108582	0.058468	0.110865	0.164188	4413.220199	16352.264990	3247.809938	8301.129256
61.034500	0.111431	0.059834	0.110637	0.166781	4414.097100	16314.503592	3245.500436	8269.066584
61.535000	0.103951	0.058526	0.122647	0.172928	4368.144374	16087.298469	3250.316280	8193.833250
62.035500	0.111984	0.058830	0.108616	0.167583	4413.245644	16259.112307	3243.206184	8259.198244
62.535500	0.112450	0.058335	0.118384	0.168029	4413.313285	16230.329239	3250.843039	8253.711117
63.038500	0.111239	0.058725	0.121298	0.167959	4409.412981	16244.402972	3253.322338	8254.570098
63.536500	0.112975	0.057579	0.118639	0.173868	4395.232509	16030.428468	3246.247926	8182.421681
64.036500	0.115816	0.059858	0.120308	0.170586	4416.086037	16198.795980	3250.318914	8222.371224
64.536500	0.116049	0.057997	0.118734	0.169833	4419.472394	16165.076682	3249.640313	8231.582964
65.037000	0.114209	0.058136	0.119901	0.170687	4410.237559	16143.338336	3249.898623	8221.138488
65.537000	0.113735	0.057451	0.119745	0.171814	4404.780346	16088.490018	3248.840905	8207.391972
66.034500	0.115131	0.058297	0.115239	0.172343	4407.734774	16098.084923	3244.718827	8200.949125
66.535000	0.114408	0.057159	0.107846	0.171423	4408.405444	16091.487476	3239.489009	8212.156594
67.035500	0.112849	0.057498	0.107308	0.173335	4396.606508	16044.000617	3237.529169	8188.883843
67.538500	0.112869	0.057056	0.128837	0.174058	4394.229715	16008.980127	3254.524307	8180.112603
68.036000	0.113382	0.056093	0.107791	0.173440	4398.057239	15998.629466	3237.831202	8187.614591
68.536000	0.112668	0.054392	0.114076	0.172858	4397.609154	15965.090694	3243.355703	8194.683120
69.036500	0.116433	0.054417	0.117663	0.173912	4406.823386	15934.342377	3245.415537	8181.892294
69.536500	0.111879	0.056906	0.115284	0.175901	4384.688597	15949.278086	3241.870637	8157.827941
70.037000	0.116012	0.054588	0.112617	0.174002	4405.080502	15936.752044	3241.251320	8180.795584
70.537500	0.115182	0.054910	0.105958	0.174716	4399.834560	15925.030720	3235.358066	8172.143704
71.034500	0.117377	0.055817	0.116436	0.176927	4399.781347	15886.177218	3241.972663	8145.457826
71.535000	0.112577	0.054411	0.118320	0.177106	4382.983807	15839.117529	3243.352398	8143.297705
72.035000	0.115911	0.054086	0.117602	0.177526	4392.792719	15817.066766	3242.431049	8138.252583
72.535500	0.116258	0.054324	0.121420	0.178303	4391.341000	15801.112800	3244.898401	8128.908246
73.036500	0.114186	0.052241	0.117931	0.176724	4389.677072	15786.203312	3243.346459	8147.894987
73.536000	0.116948	0.054775	0.116436	0.179413	4389.925497	15781.667684	3239.970977	8115.609991
74.036500	0.119099	0.053308	0.122247	0.178393	4400.651578	15768.475591	3245.500057	8127.837435
74.537000	0.117390	0.053659	0.122041	0.179034	4392.694396	15759.907933	3244.809217	8120.144857
75.037500	0.115461	0.052546	0.122714	0.179461	4384.760980	15714.622586	3245.009361	8115.030157
75.537500	0.112420	0.052928	0.112378	0.186015	4352.898211	15534.713359	3231.513680	8037.156708
76.034500	0.118137	0.053332	0.117024	0.181389	4387.275080	15681.130322	3238.857212	8091.998893
76.535000	0.122591	0.052606	0.114914	0.180802	4404.329296	15677.063447	3237.640147	8098.997453
77.038000	0.111736	0.050372	0.121233	0.179300	4372.842327	15655.673352	3243.936100	8116.957605
77.535500	0.116861	0.052616	0.118037	0.187904	4361.302144	15471.163238	3234.480817	8014.923363
78.036500	0.116739	0.050854	0.125009	0.180975	4383.968320	15620.863782	3245.646718	8096.937622
78.537000	0.119055	0.052573	0.133422	0.183844	4382.113823	15587.390599	3250.199606	8062.817166
79.036500	0.116733	0.052193	0.121904	0.183652	4374.994016	15581.946285	3240.958979	8065.102032
79.534000	0.118476	0.050196	0.131652	0.188776	4363.761103	15376.728935	3244.702234	8004.699017
80.034000	0.123184	0.053208	0.113574	0.186469	4387.164207	15529.690373	3232.095884	8031.805302
80.534500	0.118911	0.049485	0.127829	0.183577	4382.526730	15505.677530	3245.824175	8065.988387
81.035000	0.121018	0.052687	0.117953	0.186946	4378.299985	15500.823076	3235.172105	8026.185097
81.535000	0.120233	0.049949	0.131397	0.191837	4359.449969	15282.540490	3242.012926	7968.952043
82.035500	0.121231	0.051821	0.122959	0.186714	4379.789601	15482.577840	3239.346479	8028.923218
82.536000	0.124686	0.050721	0.115867	0.188284	4386.109930	15405.815777	3232.471248	8010.463757
83.036000	0.119589	0.051412	0.132112	0.188469	4368.467851	15420.364087	3245.327782	8008.302796
83.536000	0.122602	0.051229	0.121329	0.188872	4377.159885	15403.551058	3236.322914	8003.580860
84.034000	0.125522	0.051963	0.123719	0.191160	4379.272195	15359.131000	3236.404284	7976.845620
84.551500	0.123951	0.049540	0.118864	0.189819	4378.501819	15328.272691	3233.621970	7992.494433
85.037500	0.121962	0.050184	0.117130	0.190177	4370.675816	15336.422554	3231.976868	7988.307422
85.535000	0.121068	0.050714	0.120529	0.192575	4359.770037	15283.308733	3232.762608	7960.375632
86.035500	0.125737	0.049867	0.107730	0.193002	4373.842009	15247.269692	3222.518056	7955.425835
86.538500	0.119653	0.049585	0.136573	0.192265	4356.128041	15260.120968	3245.870239	7963.980556
87.035500	0.121689	0.049666	0.126297	0.194182	4356.521579	15208.258151	3236.051161	7941.743873
