sample name	sample
index	1400
start time	 05-10-2021  11:07:20 AM


Wavelength (nm)	Absorbance
494.344910	0.023501
494.563924	0.023501
494.782919	0.023501
495.001897	0.032516
495.220856	0.004172
495.439797	0.011046
495.658719	0.015602
495.877624	0.014188
496.096510	0.017014
496.315378	0.015006
496.534227	0.028558
496.753059	0.039302
496.971872	0.013087
497.190667	0.105679
497.409444	0.130408
497.628203	0.144120
497.846943	0.151040
498.065665	0.152564
498.284369	0.154836
498.503055	0.158283
498.721723	0.159565
498.940372	0.161289
499.159003	0.161969
499.377616	0.162065
499.596210	0.160610
499.814787	0.160934
500.033345	0.162434
500.251885	0.162684
500.470406	0.162314
500.688910	0.161753
500.907395	0.161657
501.125862	0.161598
501.344311	0.163121
501.562742	0.163509
501.781154	0.163837
501.999548	0.163473
502.217924	0.163344
502.436282	0.164229
502.654621	0.165228
502.872942	0.165640
503.091245	0.165789
503.309530	0.166215
503.527797	0.167568
503.746045	0.166910
503.964275	0.166526
504.182487	0.165593
504.400681	0.164314
504.618856	0.164808
504.837013	0.165497
505.055152	0.165263
505.273273	0.164876
505.491376	0.164629
505.709460	0.164905
505.927526	0.165606
506.145574	0.167948
506.363604	0.168774
506.581615	0.168308
506.799608	0.168293
507.017583	0.168471
507.235540	0.167838
507.453478	0.167472
507.671399	0.168451
507.889301	0.167301
508.107185	0.165817
508.325050	0.165895
508.542898	0.166242
508.760727	0.167121
508.978538	0.168505
509.196330	0.169524
509.414105	0.169448
509.631861	0.169424
509.849599	0.170910
510.067319	0.171888
510.285021	0.173024
510.502704	0.174159
510.720369	0.173039
510.938016	0.172379
511.155645	0.172948
511.373255	0.172824
511.590848	0.172661
511.808422	0.172835
512.025977	0.172830
512.243515	0.172228
512.461034	0.171289
512.678536	0.172672
512.896018	0.173104
513.113483	0.172942
513.330930	0.174106
513.548358	0.173643
513.765768	0.174056
513.983160	0.175299
514.200533	0.175287
514.417889	0.175338
514.635226	0.174819
514.852545	0.175017
515.069845	0.175173
515.287128	0.175217
515.504392	0.175746
515.721638	0.176120
515.938866	0.175537
516.156075	0.176556
516.373267	0.176470
516.590440	0.177076
516.807594	0.177062
517.024731	0.177325
517.241850	0.177246
517.458950	0.177710
517.676032	0.177830
517.893095	0.177937
518.110141	0.177315
518.327168	0.178855
518.544177	0.178835
518.761168	0.179306
518.978141	0.180265
519.195095	0.180377
519.412031	0.180661
519.628949	0.181047
519.845849	0.181307
520.062731	0.181310
520.279594	0.181787
520.496439	0.181218
520.713266	0.182224
520.930074	0.181679
521.146865	0.182608
521.363637	0.183444
521.580391	0.183400
521.797127	0.183271
522.013844	0.184493
522.230543	0.184242
522.447224	0.185102
522.663887	0.184724
522.880532	0.186104
523.097158	0.186273
523.313766	0.186420
523.530356	0.187011
523.746928	0.187911
523.963481	0.188583
524.180017	0.189217
524.396534	0.189843
524.613032	0.190297
524.829513	0.190000
525.045975	0.190498
525.262420	0.191430
525.478845	0.191969
525.695253	0.191945
525.911643	0.192052
526.128014	0.192498
526.344367	0.193650
526.560702	0.194626
526.777018	0.195139
526.993316	0.194849
527.209597	0.194732
527.425858	0.194607
527.642102	0.195515
527.858328	0.196088
528.074535	0.196397
528.290724	0.196206
528.506894	0.196015
528.723047	0.196553
528.939181	0.197334
529.155297	0.197913
529.371395	0.198563
529.587475	0.198919
529.803536	0.199228
530.019579	0.199412
530.235604	0.199736
530.451611	0.199847
530.667600	0.200595
530.883570	0.200997
531.099522	0.200545
531.315456	0.201396
531.531372	0.201557
531.747269	0.201614
531.963148	0.202098
532.179009	0.202094
532.394852	0.202966
532.610676	0.202976
532.826482	0.203675
533.042271	0.205016
533.258040	0.204631
533.473792	0.205372
533.689525	0.205919
533.905240	0.206107
534.120937	0.207164
534.336616	0.207620
534.552277	0.207698
534.767919	0.207961
534.983543	0.207837
535.199149	0.209291
535.414736	0.209660
535.630306	0.210214
535.845857	0.210462
536.061390	0.210875
536.276904	0.211417
536.492401	0.212074
536.707879	0.212844
536.923339	0.213545
537.138781	0.213434
537.354204	0.213715
537.569610	0.213307
537.784997	0.214128
538.000366	0.214382
538.215716	0.214346
538.431049	0.214730
538.646363	0.214832
538.861659	0.215198
539.076937	0.216270
539.292196	0.216373
539.507438	0.217532
539.722661	0.218448
539.937866	0.219236
540.153052	0.219845
540.368221	0.219774
540.583371	0.220157
540.798503	0.220671
541.013617	0.220059
541.228712	0.221160
541.443789	0.221018
541.658848	0.220707
541.873889	0.220699
542.088912	0.221768
542.303916	0.222629
542.518902	0.223173
542.733870	0.223377
542.948820	0.224465
543.163752	0.224370
543.378665	0.225029
543.593560	0.225234
543.808437	0.225403
544.023295	0.225222
544.238136	0.225389
544.452958	0.225566
544.667762	0.225435
544.882548	0.224862
545.097315	0.225613
545.312064	0.226142
545.526795	0.226642
545.741508	0.227136
545.956203	0.227109
546.170879	0.227345
546.385537	0.227881
546.600177	0.228282
546.814799	0.228357
547.029402	0.228445
547.243988	0.228628
547.458555	0.229152
547.673103	0.229398
547.887634	0.229761
548.102146	0.230002
548.316640	0.230106
548.531116	0.230854
548.745574	0.232004
548.960013	0.232252
549.174435	0.232565
549.388838	0.232530
549.603222	0.232691
549.817589	0.233591
550.031937	0.234265
550.246267	0.234851
550.460579	0.235173
550.674873	0.235200
550.889148	0.235197
551.103405	0.235370
551.317644	0.235962
551.531865	0.236544
551.746068	0.236327
551.960252	0.236285
552.174418	0.235782
552.388566	0.235983
552.602696	0.235829
552.816807	0.236526
553.030900	0.236703
553.244975	0.236621
553.459032	0.236822
553.673070	0.236966
553.887091	0.237023
554.101093	0.237140
554.315077	0.236787
554.529042	0.237351
554.742990	0.236981
554.956919	0.236984
555.170830	0.236884
555.384722	0.236872
555.598597	0.237053
555.812453	0.236958
556.026291	0.237724
556.240111	0.238380
556.453913	0.238447
556.667696	0.238722
556.881461	0.239456
557.095208	0.239943
557.308937	0.239906
557.522647	0.239971
557.736339	0.240601
557.950013	0.240376
558.163669	0.240195
558.377307	0.240299
558.590926	0.240862
558.804527	0.240455
559.018110	0.240903
559.231675	0.240962
559.445221	0.241126
559.658749	0.241376
559.872259	0.241680
560.085751	0.241944
560.299225	0.242330
560.512680	0.242093
560.726117	0.242395
560.939536	0.241985
561.152937	0.242013
561.366319	0.241827
561.579683	0.241719
561.793029	0.242017
562.006357	0.242264
562.219667	0.242009
562.432958	0.242126
562.646231	0.242335
562.859486	0.242901
563.072723	0.243520
563.285941	0.243634
563.499141	0.243892
563.712323	0.244015
563.925487	0.244173
564.138632	0.244598
564.351760	0.244897
564.564869	0.245098
564.777960	0.245130
564.991032	0.245092
565.204087	0.245891
565.417123	0.246094
565.630141	0.245780
565.843140	0.245914
566.056122	0.245879
566.269085	0.245827
566.482030	0.246194
566.694957	0.246352
566.907866	0.246663
567.120756	0.246457
567.333628	0.246348
567.546482	0.246780
567.759318	0.246476
567.972135	0.246831
568.184935	0.247032
568.397716	0.246943
568.610478	0.247332
568.823223	0.247617
569.035949	0.247852
569.248657	0.247869
569.461347	0.248312
569.674019	0.248913
569.886672	0.249231
570.099308	0.249556
570.311925	0.249428
570.524523	0.249337
570.737104	0.249142
570.949666	0.249064
571.162210	0.249979
571.374736	0.250239
571.587244	0.250354
571.799733	0.250289
572.012205	0.250903
572.224658	0.251565
572.437092	0.251797
572.649509	0.252167
572.861907	0.252598
573.074287	0.252355
573.286649	0.252268
573.498993	0.252657
573.711318	0.253051
573.923625	0.252385
574.135914	0.252236
574.348185	0.252047
574.560438	0.252345
574.772672	0.252508
574.984888	0.252856
575.197086	0.253343
575.409266	0.252799
575.621427	0.252658
575.833570	0.253421
576.045695	0.253588
576.257802	0.254177
576.469890	0.254185
576.681961	0.254282
576.894013	0.254156
577.106046	0.253815
577.318062	0.253821
577.530059	0.254106
577.742039	0.254090
577.954000	0.254106
578.165942	0.253909
578.377867	0.254224
578.589773	0.254629
578.801661	0.254899
579.013531	0.255272
579.225382	0.255982
579.437216	0.256375
579.649031	0.256549
579.860828	0.256849
580.072606	0.257120
580.284367	0.257147
580.496109	0.257169
580.707833	0.257473
580.919539	0.257413
581.131227	0.257683
581.342896	0.257675
581.554547	0.257483
581.766180	0.257673
581.977795	0.257957
582.189391	0.257949
582.400969	0.258092
582.612529	0.258426
582.824071	0.258691
583.035595	0.258880
583.247100	0.259253
583.458587	0.259639
583.670056	0.260048
583.881506	0.259784
584.092939	0.259764
584.304353	0.259424
584.515749	0.259115
584.727127	0.259851
584.938486	0.259834
585.149828	0.259917
585.361151	0.260189
585.572456	0.260221
585.783742	0.260675
585.995011	0.261256
586.206261	0.261897
586.417493	0.262275
586.628706	0.261947
586.839902	0.262087
587.051079	0.261908
587.262238	0.262042
587.473379	0.262282
587.684502	0.262557
587.895606	0.262413
588.106692	0.262263
588.317760	0.262339
588.528810	0.262740
588.739841	0.263337
588.950855	0.263718
589.161850	0.264117
589.372827	0.264119
589.583785	0.264548
589.794726	0.265241
590.005648	0.265782
590.216552	0.266244
590.427437	0.266434
590.638305	0.266478
590.849154	0.266534
591.059985	0.266538
591.270798	0.266591
591.481592	0.266366
591.692369	0.266468
591.903127	0.266877
592.113867	0.266803
592.324588	0.267222
592.535292	0.267184
592.745977	0.267334
592.956644	0.267780
593.167293	0.268411
593.377923	0.269187
593.588536	0.269092
593.799130	0.269135
594.009706	0.269638
594.220263	0.269571
594.430803	0.269802
594.641324	0.270518
594.851827	0.270548
595.062312	0.270740
595.272778	0.270431
595.483227	0.270791
595.693657	0.270841
595.904069	0.270798
596.114462	0.270961
596.324838	0.271337
596.535195	0.271057
596.745534	0.271146
596.955855	0.271361
597.166157	0.271456
597.376441	0.271754
597.586707	0.271868
597.796955	0.272189
598.007185	0.272537
598.217396	0.272346
598.427589	0.273033
598.637764	0.273184
598.847921	0.273225
599.058060	0.273703
599.268180	0.273966
599.478282	0.274364
599.688366	0.274577
599.898431	0.274526
600.108479	0.275222
600.318508	0.275142
600.528519	0.275732
600.738511	0.275670
600.948486	0.275909
601.158442	0.275834
601.368380	0.276214
601.578300	0.276383
601.788202	0.276607
601.998085	0.276714
602.207950	0.277105
602.417797	0.277013
602.627626	0.277513
602.837436	0.277696
603.047228	0.278033
603.257002	0.278246
603.466758	0.278665
603.676496	0.278950
603.886215	0.279378
604.095916	0.279545
604.305599	0.279935
604.515264	0.280118
604.724910	0.280142
604.934538	0.280106
605.144148	0.280108
605.353740	0.280002
605.563314	0.280016
605.772869	0.279858
605.982406	0.279988
606.191925	0.279986
606.401425	0.279923
606.610908	0.280179
606.820372	0.280375
607.029818	0.280694
607.239246	0.280924
607.448655	0.281434
607.658047	0.281551
607.867420	0.281377
608.076775	0.281677
608.286111	0.281941
608.495430	0.282347
608.704730	0.282855
608.914012	0.282947
609.123275	0.282665
609.332521	0.282782
609.541748	0.283004
609.750957	0.283185
609.960148	0.283334
610.169321	0.283547
610.378475	0.283139
610.587611	0.283478
610.796729	0.283811
611.005829	0.284449
611.214910	0.284608
611.423974	0.285179
611.633019	0.285434
611.842045	0.285510
612.051054	0.285544
612.260044	0.285837
612.469017	0.285816
612.677970	0.285924
612.886906	0.286000
613.095824	0.286254
613.304723	0.285986
613.513604	0.286597
613.722467	0.286912
613.931311	0.287379
614.140138	0.287713
614.348946	0.287643
614.557736	0.287772
614.766507	0.288134
614.975261	0.288062
615.183996	0.288460
615.392713	0.288175
615.601412	0.288542
615.810092	0.288561
616.018754	0.289033
616.227399	0.289071
616.436024	0.288825
616.644632	0.288737
616.853222	0.289076
617.061793	0.288874
617.270346	0.288961
617.478880	0.288607
617.687397	0.288739
617.895895	0.288919
618.104375	0.289232
618.312837	0.289702
618.521281	0.290203
618.729706	0.290182
618.938113	0.290572
619.146502	0.290953
619.354873	0.291375
619.563226	0.291718
619.771560	0.291502
619.979876	0.291951
620.188174	0.292404
620.396453	0.292105
620.604715	0.292312
620.812958	0.292280
621.021183	0.292366
621.229390	0.292816
621.437578	0.292830
621.645748	0.293217
621.853900	0.293475
622.062034	0.293255
622.270150	0.293453
622.478247	0.293672
622.686326	0.294512
622.894387	0.294706
623.102430	0.294558
623.310454	0.294661
623.518461	0.294861
623.726449	0.294558
623.934418	0.294822
624.142370	0.295057
624.350303	0.295331
624.558218	0.295032
624.766115	0.295167
624.973994	0.295417
625.181855	0.295748
625.389697	0.296060
625.597521	0.296418
625.805327	0.296996
626.013114	0.297358
626.220883	0.297524
626.428634	0.297833
626.636367	0.298142
626.844082	0.298232
627.051778	0.298657
627.259457	0.298641
627.467117	0.299298
627.674758	0.299529
627.882382	0.299852
628.089987	0.300410
628.297574	0.300710
628.505143	0.301098
628.712694	0.301233
628.920226	0.301135
629.127740	0.301262
629.335236	0.301270
629.542714	0.301329
629.750174	0.301552
629.957615	0.301162
630.165038	0.301497
630.372443	0.301653
630.579829	0.301854
630.787198	0.301905
630.994548	0.302455
631.201880	0.302522
631.409194	0.302646
631.616489	0.302723
631.823766	0.303081
632.031025	0.303116
632.238266	0.303236
632.445489	0.303571
632.652693	0.303910
632.859879	0.303823
633.067047	0.304091
633.274197	0.304349
633.481329	0.304545
633.688442	0.304691
633.895537	0.304903
634.102614	0.305125
634.309672	0.305083
634.516713	0.305564
634.723735	0.305849
634.930739	0.305921
635.137724	0.305933
635.344692	0.305890
635.551641	0.306418
635.758572	0.306429
635.965485	0.306788
636.172379	0.307177
636.379256	0.307214
636.586114	0.307192
636.792954	0.307092
636.999775	0.307656
637.206579	0.308050
637.413364	0.307870
637.620131	0.307983
637.826880	0.308074
638.033610	0.308145
638.240323	0.307984
638.447017	0.308189
638.653692	0.308747
638.860350	0.308457
639.066990	0.308694
639.273611	0.308927
639.480214	0.309028
639.686798	0.309194
639.893365	0.309384
640.099913	0.310010
640.306443	0.310431
640.512955	0.310549
640.719449	0.310711
640.925924	0.310898
641.132381	0.311299
641.338820	0.311595
641.545241	0.311481
641.751644	0.311739
641.958028	0.311751
642.164394	0.311775
642.370742	0.312028
642.577071	0.312413
642.783383	0.312518
642.989676	0.312582
643.195951	0.312855
643.402207	0.313460
643.608446	0.313590
643.814666	0.313895
644.020868	0.314000
644.227052	0.314190
644.433218	0.314215
644.639365	0.314120
644.845494	0.314353
645.051605	0.314606
645.257698	0.314407
645.463772	0.314845
645.669828	0.314781
645.875866	0.315103
646.081886	0.315099
646.287888	0.315187
646.493871	0.315547
646.699836	0.315476
646.905783	0.315426
647.111712	0.315730
647.317622	0.315665
647.523514	0.316096
647.729388	0.316100
647.935244	0.316390
648.141082	0.316866
648.346901	0.317195
648.552702	0.317663
648.758485	0.318253
648.964250	0.318512
649.169996	0.318613
649.375724	0.318724
649.581434	0.319201
649.787126	0.319448
649.992800	0.319553
650.198455	0.319811
650.404092	0.319898
650.609711	0.319766
650.815311	0.319738
651.020894	0.320298
651.226458	0.320602
651.432004	0.320909
651.637532	0.321068
651.843041	0.321544
652.048532	0.321731
652.254006	0.321868
652.459460	0.322175
652.664897	0.322822
652.870315	0.322930
653.075716	0.323236
653.281097	0.323395
653.486461	0.323912
653.691807	0.323975
653.897134	0.324283
654.102443	0.324675
654.307734	0.324991
654.513006	0.324977
654.718261	0.325146
654.923497	0.325148
655.128715	0.325221
655.333915	0.325104
655.539096	0.325364
655.744259	0.325420
655.949404	0.325590
656.154531	0.325569
656.359640	0.325654
656.564730	0.325668
656.769802	0.325781
656.974856	0.325952
657.179892	0.326242
657.384909	0.326212
657.589908	0.326425
657.794889	0.326401
657.999852	0.326913
658.204797	0.327271
658.409723	0.327559
658.614631	0.327972
658.819521	0.328116
659.024393	0.328314
659.229246	0.328686
659.434081	0.328759
659.638898	0.329135
659.843697	0.329072
660.048478	0.329045
660.253240	0.329169
660.457984	0.329052
660.662710	0.329266
660.867417	0.329284
661.072107	0.329343
661.276778	0.329747
661.481431	0.329924
661.686066	0.330078
661.890682	0.330615
662.095281	0.331094
662.299861	0.331690
662.504422	0.332049
662.708966	0.332256
662.913491	0.332468
663.117999	0.332423
663.322488	0.332678
663.526958	0.333263
663.731411	0.333282
663.935845	0.333395
664.140261	0.333488
664.344659	0.333664
664.549038	0.334100
664.753400	0.334225
664.957743	0.334881
665.162068	0.335314
665.366375	0.335535
665.570663	0.335909
665.774933	0.336193
665.979185	0.336506
666.183419	0.336922
666.387635	0.337301
666.591832	0.337812
666.796011	0.337945
667.000172	0.338053
667.204315	0.338315
667.408439	0.338791
667.612545	0.339090
667.816634	0.339288
668.020703	0.339527
668.224755	0.339708
668.428788	0.339606
668.632803	0.339877
668.836800	0.340084
669.040779	0.340314
669.244739	0.340084
669.448681	0.340225
669.652605	0.340360
669.856511	0.340494
670.060399	0.340558
670.264268	0.340978
670.468119	0.341159
670.671952	0.341297
670.875767	0.341279
671.079563	0.341768
671.283341	0.342066
671.487101	0.342396
671.690843	0.342471
671.894567	0.342553
672.098272	0.342764
672.301959	0.343055
672.505628	0.343307
672.709278	0.343711
672.912911	0.343761
673.116525	0.343862
673.320121	0.344157
673.523699	0.344435
673.727258	0.344863
673.930799	0.345189
674.134322	0.345452
674.337827	0.345830
674.541314	0.346153
674.744782	0.346352
674.948232	0.346525
675.151664	0.346778
675.355078	0.346966
675.558474	0.347259
675.761851	0.347502
675.965210	0.347546
676.168551	0.347850
676.371873	0.347946
676.575178	0.348309
676.778464	0.348659
676.981732	0.348584
677.184981	0.349085
677.388213	0.349465
677.591426	0.349766
677.794621	0.350134
677.997798	0.350324
678.200956	0.350704
678.404097	0.351054
678.607219	0.351379
678.810323	0.351961
679.013408	0.352417
679.216476	0.352269
679.419525	0.352211
679.622556	0.352510
679.825569	0.352531
680.028563	0.352350
680.231540	0.352362
680.434498	0.352696
680.637438	0.352739
680.840359	0.352501
681.043263	0.352818
681.246148	0.353281
681.449015	0.353397
681.651864	0.354028
681.854694	0.354480
682.057506	0.354768
682.260301	0.355052
682.463076	0.355654
682.665834	0.356355
682.868573	0.356828
683.071295	0.356980
683.273998	0.357102
683.476682	0.357235
683.679349	0.357527
683.881997	0.358108
684.084627	0.358387
684.287239	0.358402
684.489833	0.358005
684.692408	0.358194
684.894965	0.358494
685.097504	0.358840
685.300025	0.358895
685.502527	0.359238
685.705012	0.359237
685.907478	0.359256
686.109925	0.359574
686.312355	0.360161
686.514766	0.360341
686.717159	0.360702
686.919534	0.361023
687.121891	0.361193
687.324230	0.361277
687.526550	0.361671
687.728852	0.361958
687.931136	0.362051
688.133401	0.362177
688.335649	0.362266
688.537878	0.362169
688.740089	0.362196
688.942281	0.362301
689.144456	0.362336
689.346612	0.362272
689.548750	0.362304
689.750870	0.362443
689.952971	0.362283
690.155055	0.362498
690.357120	0.362805
690.559167	0.362964
690.761195	0.363318
690.963206	0.363855
691.165198	0.363973
691.367172	0.364342
691.569128	0.364373
691.771065	0.365321
691.972984	0.365697
692.174885	0.366172
692.376768	0.366559
692.578633	0.366714
692.780479	0.366694
692.982308	0.367052
693.184118	0.366960
693.385909	0.367236
693.587683	0.367164
693.789438	0.367313
693.991175	0.367080
694.192894	0.367014
694.394595	0.367365
694.596277	0.367588
694.797941	0.367764
694.999587	0.368069
695.201215	0.368324
695.402824	0.368324
695.604416	0.368492
695.805989	0.368897
696.007543	0.369244
696.209080	0.369321
696.410598	0.369352
696.612099	0.369652
696.813580	0.369732
697.015044	0.369627
697.216490	0.369621
697.417917	0.369470
697.619326	0.369559
697.820717	0.369599
698.022089	0.369605
698.223444	0.369996
698.424780	0.370170
698.626098	0.370809
698.827397	0.371229
699.028679	0.371608
699.229942	0.371974
699.431187	0.372131
699.632414	0.372501
699.833622	0.372697
700.034813	0.372808
700.235985	0.372884
700.437139	0.372574
700.638274	0.372453
700.839392	0.372563
701.040491	0.372635
701.241572	0.372733
701.442635	0.372677
701.643679	0.373053
701.844706	0.373329
702.045714	0.373279
702.246704	0.373684
702.447675	0.374088
702.648629	0.374260
702.849564	0.374222
703.050481	0.374299
703.251380	0.374528
703.452260	0.374340
703.653122	0.374235
703.853966	0.374439
704.054792	0.374288
704.255600	0.374292
704.456389	0.374251
704.657160	0.374555
704.857913	0.374322
705.058648	0.374141
705.259365	0.374164
705.460063	0.374152
705.660743	0.374211
705.861405	0.374172
706.062048	0.374148
706.262674	0.374065
706.463281	0.374136
706.663870	0.374604
706.864441	0.374989
707.064993	0.375054
707.265527	0.374969
707.466043	0.374904
707.666541	0.375042
707.867021	0.375173
708.067482	0.375416
708.267925	0.375451
708.468350	0.375590
708.668757	0.375351
708.869145	0.375590
709.069516	0.375652
709.269868	0.375740
709.470201	0.375779
709.670517	0.375976
709.870814	0.375992
710.071093	0.375935
710.271354	0.375771
710.471597	0.375806
710.671821	0.375784
710.872028	0.375764
711.072216	0.375735
711.272385	0.375907
711.472537	0.375711
711.672670	0.375498
711.872785	0.375534
712.072882	0.375394
712.272961	0.375369
712.473021	0.375482
712.673063	0.375506
712.873087	0.375478
713.073093	0.375072
713.273081	0.375091
713.473050	0.375084
713.673001	0.374781
713.872934	0.374798
714.072849	0.374591
714.272745	0.374305
714.472623	0.374476
714.672483	0.374499
714.872325	0.374911
715.072148	0.374898
715.271954	0.375084
715.471741	0.375341
715.671509	0.375363
715.871260	0.375520
716.070992	0.375506
716.270707	0.375310
716.470403	0.375066
716.670080	0.374452
716.869740	0.374193
717.069381	0.374025
717.269004	0.373920
717.468609	0.373847
717.668195	0.373860
717.867764	0.373889
718.067314	0.373755
718.266846	0.373913
718.466360	0.374226
718.665855	0.374389
718.865332	0.374383
719.064791	0.374280
719.264232	0.374151
719.463655	0.373816
719.663059	0.373568
719.862445	0.373522
720.061813	0.373296
720.261163	0.373163
720.460494	0.373158
720.659807	0.373115
720.859102	0.373187
721.058379	0.373458
721.257638	0.374015
721.456878	0.374238
721.656100	0.374381
721.855304	0.374706
722.054490	0.374642
722.253657	0.374431
722.452806	0.374229
722.651937	0.374106
722.851050	0.373687
723.050145	0.373227
723.249221	0.372618
723.448279	0.372409
723.647319	0.372181
723.846340	0.372052
724.045344	0.372120
724.244329	0.372076
724.443296	0.371861
724.642245	0.371691
724.841175	0.371489
725.040088	0.371656
725.238982	0.371414
725.437857	0.371247
725.636715	0.371063
725.835554	0.370718
726.034376	0.370736
726.233179	0.370633
726.431963	0.370722
726.630730	0.370594
726.829478	0.370458
727.028208	0.370578
727.226920	0.370300
727.425614	0.370111
727.624289	0.370067
727.822946	0.369719
728.021585	0.369447
728.220206	0.368869
728.418808	0.368669
728.617392	0.368254
728.815958	0.367857
729.014506	0.367562
729.213036	0.367440
729.411547	0.367421
729.610040	0.367167
729.808515	0.367188
730.006972	0.367136
730.205410	0.367008
730.403831	0.366875
730.602233	0.366895
730.800616	0.366835
730.998982	0.366871
731.197329	0.366591
731.395658	0.366426
731.593969	0.366115
731.792262	0.366320
731.990536	0.366178
732.188793	0.366307
732.387031	0.365908
732.585250	0.365630
732.783452	0.365350
732.981635	0.365056
733.179800	0.364870
733.377947	0.364864
733.576076	0.364480
733.774186	0.364192
733.972278	0.364014
734.170352	0.363667
734.368408	0.363589
734.566446	0.363175
734.764465	0.362961
734.962466	0.362928
735.160449	0.362446
735.358413	0.362531
735.556360	0.362545
735.754288	0.362481
735.952198	0.362536
736.150090	0.362207
736.347963	0.362422
736.545818	0.362157
736.743655	0.361737
736.941474	0.361734
737.139275	0.361178
737.337057	0.361136
737.534821	0.360608
737.732567	0.360404
737.930295	0.360376
738.128005	0.359740
738.325696	0.359271
738.523369	0.359335
738.721024	0.358896
738.918660	0.358470
739.116279	0.358017
739.313879	0.357573
739.511461	0.357446
739.709024	0.357146
739.906570	0.357054
740.104097	0.357127
740.301606	0.356642
740.499097	0.356742
740.696569	0.356845
740.894024	0.356464
741.091460	0.356587
741.288878	0.356336
741.486277	0.356178
741.683659	0.356327
741.881022	0.356068
742.078367	0.356025
742.275694	0.355901
742.473002	0.355609
742.670293	0.355547
742.867565	0.355322
743.064819	0.355075
743.262054	0.355109
743.459272	0.354796
743.656471	0.354686
743.853652	0.354283
744.050815	0.353942
744.247959	0.353991
744.445085	0.353820
744.642194	0.353465
744.839283	0.353077
745.036355	0.352675
745.233408	0.352339
745.430444	0.352028
745.627461	0.351880
745.824459	0.351486
746.021440	0.351231
746.218402	0.350936
746.415346	0.350859
746.612272	0.350850
746.809180	0.350807
747.006069	0.350613
747.202940	0.350486
747.399793	0.350764
747.596628	0.350832
747.793444	0.350464
747.990243	0.350269
748.187023	0.350099
748.383784	0.350012
748.580528	0.349598
748.777253	0.349174
748.973960	0.349003
749.170649	0.348349
749.367320	0.347974
749.563973	0.347883
749.760607	0.347965
749.957223	0.347576
750.153821	0.347191
750.350400	0.346914
750.546962	0.346872
750.743505	0.346617
750.940030	0.346460
751.136536	0.346471
751.333025	0.346180
751.529495	0.345895
751.725947	0.345863
751.922381	0.345768
752.118796	0.345641
752.315194	0.345346
752.511573	0.344943
752.707934	0.344861
752.904276	0.344371
753.100601	0.344148
753.296907	0.343826
753.493195	0.343829
753.689465	0.343373
753.885716	0.343333
754.081949	0.343219
754.278164	0.343390
754.474361	0.343271
754.670540	0.343027
754.866700	0.342933
755.062843	0.342668
755.258967	0.342512
755.455072	0.342475
755.651160	0.342164
755.847229	0.342397
756.043280	0.341971
756.239313	0.341786
756.435328	0.341604
756.631324	0.341255
756.827302	0.341147
757.023262	0.340976
757.219204	0.341045
757.415127	0.341046
757.611033	0.340561
757.806920	0.340798
758.002788	0.340514
758.198639	0.340506
758.394471	0.340744
758.590286	0.340347
758.786081	0.340033
758.981859	0.339552
759.177619	0.339186
759.373360	0.339074
759.569083	0.338503
759.764788	0.338353
759.960474	0.338213
760.156143	0.338014
760.351793	0.337840
760.547425	0.337667
760.743038	0.337675
760.938634	0.337226
761.134211	0.337096
761.329770	0.337126
761.525311	0.337173
761.720833	0.337014
761.916338	0.336887
762.111824	0.337207
762.307292	0.336860
762.502741	0.336686
762.698173	0.337047
762.893586	0.336691
763.088981	0.336502
763.284358	0.336076
763.479716	0.335989
763.675057	0.335311
763.870379	0.334954
764.065683	0.334872
764.260968	0.334426
764.456236	0.334247
764.651485	0.334396
764.846716	0.334538
765.041929	0.334351
765.237123	0.333946
765.432299	0.334289
765.627457	0.334104
765.822597	0.334152
766.017719	0.334286
766.212822	0.333906
766.407907	0.333667
766.602974	0.333384
766.798023	0.333289
766.993054	0.333297
767.188066	0.333024
767.383060	0.332868
767.578036	0.332709
767.772993	0.332725
767.967933	0.332812
768.162854	0.332683
768.357757	0.332422
768.552642	0.332476
768.747508	0.332426
768.942356	0.331722
769.137186	0.331546
769.331998	0.331303
769.526792	0.330956
769.721567	0.330349
769.916324	0.330215
770.111063	0.330120
770.305784	0.330040
770.500486	0.330219
770.695171	0.330843
770.889837	0.331032
771.084484	0.330967
771.279114	0.331036
771.473725	0.331258
771.668318	0.331098
771.862893	0.331116
772.057450	0.331071
772.251988	0.330775
772.446509	0.330657
772.641011	0.330343
772.835494	0.330419
773.029960	0.330616
773.224407	0.330648
773.418836	0.330719
773.613247	0.330822
773.807640	0.330668
774.002014	0.330660
774.196370	0.330521
774.390708	0.330714
774.585028	0.330617
774.779330	0.330280
774.973613	0.330202
775.167878	0.330188
775.362125	0.329965
775.556354	0.330233
775.750564	0.330374
775.944756	0.330209
776.138930	0.329760
776.333086	0.329562
776.527223	0.329472
776.721343	0.329545
776.915444	0.329345
777.109526	0.329562
777.303591	0.329359
777.497637	0.329285
777.691666	0.329462
777.885676	0.329913
778.079667	0.330119
778.273641	0.330223
778.467596	0.330250
778.661533	0.330447
778.855452	0.330263
779.049352	0.330375
779.243235	0.330132
779.437099	0.330266
779.630945	0.330020
779.824773	0.330171
780.018582	0.330350
780.212373	0.330252
780.406146	0.330255
780.599901	0.330123
780.793638	0.330040
780.987356	0.330267
781.181056	0.330179
781.374738	0.330462
781.568402	0.330256
781.762047	0.330009
781.955674	0.330200
782.149283	0.330275
782.342874	0.330628
782.536447	0.330592
782.730001	0.330682
782.923537	0.330746
783.117055	0.330973
783.310555	0.331008
783.504036	0.331118
783.697499	0.331144
783.890944	0.331208
784.084371	0.331079
784.277780	0.331075
784.471170	0.331084
784.664542	0.331135
784.857896	0.331143
785.051231	0.331008
785.244549	0.331163
785.437848	0.331024
785.631129	0.330845
785.824392	0.330859
786.017636	0.330807
786.210863	0.330805
786.404071	0.330884
786.597260	0.330719
786.790432	0.331323
786.983585	0.331383
787.176721	0.331875
787.369838	0.332126
787.562936	0.332323
787.756017	0.332766
787.949079	0.332872
788.142123	0.333099
788.335149	0.333112
788.528156	0.333079
788.721146	0.333184
788.914117	0.333008
789.107070	0.333234
789.300005	0.333560
789.492921	0.333681
789.685819	0.333800
789.878699	0.333571
790.071561	0.334066
790.264405	0.334288
790.457230	0.334606
790.650037	0.334675
790.842826	0.334549
791.035597	0.334488
791.228349	0.334552
791.421084	0.334639
791.613800	0.334559
791.806497	0.334192
791.999177	0.333863
792.191838	0.333676
792.384481	0.333742
792.577106	0.333929
792.769713	0.334027
792.962301	0.333848
793.154871	0.333954
793.347423	0.334252
793.539957	0.334408
793.732473	0.335061
793.924970	0.335241
794.117449	0.335476
794.309910	0.336052
794.502353	0.336316
794.694777	0.336845
794.887183	0.337176
795.079571	0.337677
795.271941	0.338209
795.464293	0.338241
795.656626	0.338374
795.848941	0.338513
796.041238	0.338475
796.233516	0.338479
796.425777	0.338671
796.618019	0.338766
796.810243	0.339193
797.002449	0.339103
797.194636	0.339516
797.386805	0.340097
797.578956	0.340576
797.771089	0.340696
797.963204	0.341050
798.155300	0.341585
798.347378	0.341861
798.539438	0.341905
798.731480	0.342390
798.923503	0.342521
799.115509	0.342833
799.307496	0.342766
799.499465	0.343191
799.691415	0.343800
799.883348	0.343902
800.075262	0.344392
800.267158	0.344952
800.459035	0.345104
800.650895	0.345385
800.842736	0.345180
801.034559	0.345719
801.226364	0.345970
801.418150	0.345581
801.609919	0.345714
801.801669	0.345745
801.993401	0.345660
802.185114	0.346099
802.376810	0.346252
802.568487	0.346608
802.760146	0.346537
802.951787	0.346666
803.143409	0.347173
803.335014	0.347468
803.526600	0.347468
803.718168	0.347846
803.909717	0.347787
804.101249	0.347886
804.292762	0.348214
804.484257	0.348447
804.675734	0.348654
804.867192	0.348962
805.058632	0.349065
805.250054	0.349584
805.441458	0.349806
805.632844	0.350418
805.824211	0.350763
806.015561	0.351237
806.206891	0.351802
806.398204	0.352155
806.589499	0.352464
806.780775	0.352641
806.972033	0.352829
807.163273	0.353063
807.354495	0.353036
807.545698	0.353367
807.736883	0.353503
807.928050	0.353797
808.119199	0.354193
808.310329	0.354357
808.501441	0.355014
808.692535	0.355324
808.883611	0.355619
809.074669	0.356092
809.265708	0.356411
809.456729	0.356747
809.647732	0.357005
809.838717	0.357242
810.029683	0.357916
810.220632	0.357744
810.411562	0.358188
810.602474	0.358503
810.793367	0.358933
810.984242	0.359353
811.175100	0.359706
811.365938	0.359957
811.556759	0.360179
811.747562	0.360166
811.938346	0.360424
812.129112	0.361011
812.319860	0.361468
812.510589	0.361821
812.701300	0.362039
812.891994	0.362246
813.082668	0.362824
813.273325	0.363199
813.463964	0.363705
813.654584	0.364357
813.845186	0.364615
814.035769	0.364974
814.226335	0.365377
814.416882	0.366011
814.607411	0.366506
814.797922	0.366693
814.988415	0.367279
815.178889	0.367527
815.369345	0.367975
815.559783	0.368448
815.750203	0.368806
815.940605	0.369357
816.130988	0.369793
816.321353	0.370406
816.511700	0.371059
816.702028	0.370807
816.892339	0.371585
817.082631	0.371920
817.272905	0.372062
817.463161	0.372565
817.653398	0.372676
817.843617	0.372968
818.033819	0.373369
818.224001	0.373868
818.414166	0.374612
818.604312	0.374529
818.794440	0.374976
818.984550	0.375432
819.174642	0.375684
819.364716	0.375965
819.554771	0.376193
819.744808	0.376578
819.934827	0.376999
820.124827	0.377643
820.314810	0.378504
820.504774	0.379136
820.694720	0.379759
820.884647	0.380290
821.074557	0.380603
821.264448	0.381175
821.454321	0.381674
821.644176	0.381994
821.834012	0.382433
822.023831	0.382945
822.213631	0.383606
822.403413	0.383439
822.593176	0.383742
822.782922	0.384563
822.972649	0.384907
823.162358	0.385173
823.352049	0.385785
823.541721	0.386239
823.731376	0.386396
823.921012	0.386582
824.110629	0.387601
824.300229	0.387991
824.489811	0.388604
824.679374	0.389133
824.868919	0.389759
825.058445	0.390089
825.247954	0.390809
825.437444	0.391321
825.626916	0.391857
825.816370	0.392347
826.005806	0.393245
826.195223	0.393461
826.384622	0.393856
826.574003	0.394349
826.763366	0.394854
826.952711	0.395234
827.142037	0.395517
827.331345	0.396080
827.520635	0.396882
827.709906	0.397260
827.899160	0.397957
828.088395	0.398466
828.277612	0.398636
828.466810	0.399190
828.655991	0.399653
828.845153	0.400437
829.034297	0.400723
829.223423	0.400720
829.412531	0.401224
829.601620	0.401664
829.790691	0.402263
829.979744	0.402955
830.168779	0.403067
830.357795	0.403443
830.546793	0.403920
830.735773	0.404375
830.924735	0.405024
831.113679	0.405228
831.302604	0.405894
831.491511	0.406517
831.680400	0.407136
831.869271	0.407937
832.058123	0.408538
832.246957	0.408907
832.435773	0.409550
832.624571	0.410345
832.813351	0.411163
833.002112	0.411653
833.190855	0.412537
833.379580	0.413364
833.568287	0.413960
833.756975	0.414679
833.945645	0.415527
834.134297	0.416324
834.322931	0.416722
834.511547	0.417215
834.700144	0.417708
834.888723	0.417783
835.077284	0.418171
835.265826	0.418723
835.454351	0.419078
835.642857	0.419592
835.831345	0.419772
836.019815	0.420375
836.208266	0.421098
836.396699	0.421743
836.585114	0.422213
836.773511	0.422772
836.961890	0.423365
837.150250	0.423720
837.338592	0.424345
837.526916	0.424852
837.715222	0.425172
837.903510	0.425230
838.091779	0.425320
838.280030	0.425839
838.468263	0.426107
838.656477	0.426620
838.844674	0.427799
839.032852	0.427943
839.221012	0.428585
839.409153	0.429468
839.597277	0.430338
839.785382	0.431273
839.973469	0.432132
840.161538	0.433029
840.349589	0.433216
840.537621	0.433610
840.725635	0.434373
840.913631	0.434763
841.101609	0.434924
841.289568	0.435578
841.477509	0.436466
841.665432	0.436795
841.853337	0.437047
842.041224	0.438244
842.229092	0.438897
842.416942	0.439637
842.604774	0.440544
842.792588	0.441494
842.980383	0.441943
843.168160	0.442130
843.355919	0.442633
843.543660	0.443298
843.731382	0.443493
843.919087	0.443451
844.106773	0.443417
844.294441	0.443684
844.482090	0.443737
844.669722	0.443811
844.857335	0.444193
845.044930	0.444711
845.232507	0.444953
845.420065	0.445708
845.607605	0.446431
845.795127	0.447108
845.982631	0.447950
846.170117	0.448674
846.357584	0.449611
846.545033	0.450481
846.732464	0.451352
846.919877	0.452285
847.107272	0.452804
847.294648	0.453790
847.482006	0.454468
847.669346	0.454992
847.856667	0.455972
848.043971	0.456736
848.231256	0.457052
848.418523	0.457356
848.605771	0.457761
848.793002	0.458434
848.980214	0.459096
849.167408	0.459767
849.354584	0.460184
849.541742	0.460422
849.728881	0.460863
849.916002	0.461267
850.103105	0.461995
850.290190	0.462580
850.477256	0.462885
850.664304	0.462849
850.851334	0.463260
851.038346	0.463799
851.225340	0.464117
851.412315	0.464512
851.599272	0.465502
851.786211	0.466059
851.973132	0.466761
852.160034	0.467393
852.346918	0.468129
852.533784	0.468740
852.720632	0.469445
852.907462	0.470348
853.094273	0.470872
853.281066	0.471352
853.467841	0.471589
853.654598	0.472130
853.841336	0.472371
854.028056	0.472653
854.214758	0.473119
854.401442	0.473544
854.588107	0.473810
854.774755	0.474105
854.961384	0.474318
855.147995	0.475195
855.334587	0.475398
855.521162	0.475897
855.707718	0.476383
855.894256	0.477161
856.080775	0.477889
856.267277	0.478512
856.453760	0.479212
856.640225	0.480099
856.826672	0.480869
857.013101	0.481226
857.199511	0.481971
857.385903	0.482368
857.572277	0.482945
857.758633	0.483302
857.944970	0.483722
858.131290	0.484337
858.317591	0.484688
858.503873	0.484712
858.690138	0.485471
858.876384	0.486034
859.062612	0.486931
859.248822	0.487194
859.435014	0.487910
859.621188	0.488464
859.807343	0.489247
859.993480	0.489175
860.179599	0.489506
860.365699	0.489991
860.551781	0.489991
860.737846	0.490119
860.923891	0.490798
861.109919	0.491031
861.295929	0.491425
861.481920	0.491772
861.667893	0.492403
861.853848	0.493016
862.039784	0.493693
862.225702	0.494545
862.411603	0.495352
862.597484	0.495697
862.783348	0.496120
862.969193	0.496576
863.155021	0.497239
863.340830	0.497444
863.526620	0.498235
863.712393	0.498507
863.898147	0.498965
864.083883	0.499672
864.269601	0.500045
864.455301	0.500723
864.640982	0.501568
864.826645	0.501967
865.012290	0.502828
865.197917	0.503290
865.383526	0.504099
865.569116	0.504669
865.754688	0.504656
865.940242	0.504859
866.125777	0.505838
866.311295	0.506285
866.496794	0.505943
866.682275	0.506596
866.867737	0.507229
867.053182	0.507464
867.238608	0.507913
867.424016	0.508468
867.609406	0.509080
867.794778	0.509071
867.980131	0.508621
868.165466	0.509408
868.350783	0.509978
868.536082	0.509857
868.721362	0.509862
868.906625	0.510192
869.091869	0.510538
869.277094	0.510866
869.462302	0.510610
869.647491	0.511157
869.832662	0.511511
870.017815	0.511790
870.202950	0.511899
870.388066	0.512187
870.573165	0.512805
870.758245	0.512706
870.943306	0.513176
871.128350	0.513512
871.313375	0.513888
871.498382	0.514245
871.683371	0.514100
871.868342	0.514583
872.053294	0.515626
872.238229	0.515028
872.423144	0.515517
872.608042	0.516105
872.792922	0.516527
872.977783	0.517164
873.162626	0.517620
873.347451	0.518211
873.532258	0.518602
873.717046	0.518240
873.901816	0.519046
874.086568	0.519421
874.271302	0.519534
874.456017	0.519820
874.640715	0.519755
874.825394	0.519652
875.010055	0.520040
875.194697	0.520662
875.379322	0.521116
875.563928	0.521157
875.748516	0.521302
875.933085	0.521716
876.117637	0.522194
876.302170	0.522634
876.486685	0.523317
876.671182	0.523396
876.855661	0.523312
877.040121	0.523324
877.224563	0.524180
877.408987	0.524766
877.593393	0.524218
877.777780	0.524615
877.962150	0.525233
878.146501	0.525350
878.330833	0.525485
878.515148	0.526493
878.699444	0.527400
878.883722	0.527077
879.067982	0.527465
879.252224	0.528212
879.436447	0.528508
879.620653	0.528498
879.804840	0.529068
879.989008	0.530216
880.173159	0.530080
880.357291	0.530008
880.541405	0.530821
880.725501	0.531150
880.909579	0.531276
881.093638	0.531278
881.277680	0.531674
881.461703	0.531593
881.645707	0.531069
881.829694	0.530409
882.013662	0.531066
882.197612	0.531173
882.381544	0.531021
882.565458	0.531000
882.749353	0.530535
882.933230	0.530512
883.117089	0.530900
883.300930	0.531144
883.484753	0.531760
883.668557	0.531119
883.852343	0.531131
884.036111	0.531387
884.219861	0.531997
884.403592	0.533022
884.587305	0.532477
884.771000	0.532502
884.954677	0.532230
885.138335	0.532493
885.321976	0.533177
885.505598	0.533213
885.689201	0.533570
885.872787	0.533628
886.056354	0.532969
886.239904	0.534373
886.423434	0.534261
886.606947	0.534950
886.790442	0.534383
886.973918	0.534285
887.157376	0.534395
887.340816	0.534075
887.524237	0.534076
887.707641	0.534832
887.891026	0.533956
888.074393	0.534042
888.257741	0.533634
888.441072	0.533704
888.624384	0.533054
888.807678	0.531958
888.990954	0.531825
889.174211	0.531688
889.357451	0.530911
889.540672	0.531186
889.723875	0.530713
889.907059	0.530802
890.090226	0.531134
890.273374	0.531505
890.456504	0.532162
890.639616	0.531799
890.822709	0.531596
891.005785	0.531867
891.188842	0.531251
891.371881	0.531813
891.554901	0.531989
891.737904	0.532084
891.920888	0.531314
892.103854	0.531359
892.286802	0.531654
892.469731	0.531441
892.652643	0.531145
892.835536	0.531397
893.018410	0.530974
893.201267	0.530258
893.384106	0.530391
893.566926	0.530450
893.749728	0.529841
893.932511	0.529038
894.115277	0.529063
894.298024	0.529244
894.480753	0.529129
894.663464	0.529154
894.846157	0.529158
895.028831	0.528115
895.211487	0.528330
895.394125	0.528131
895.576745	0.528036
895.759346	0.527275
895.941930	0.526608
896.124495	0.525552
896.307041	0.524614
896.489570	0.524247
896.672080	0.524039
896.854573	0.523443
897.037046	0.523254
897.219502	0.522776
897.401940	0.522601
897.584359	0.522161
897.766760	0.522726
897.949143	0.522826
898.131507	0.522688
898.313854	0.522589
898.496182	0.522129
898.678492	0.521828
898.860783	0.522663
899.043057	0.522556
899.225312	0.522155
899.407549	0.522211
899.589768	0.522301
899.771968	0.521598
899.954151	0.520904
900.136315	0.520689
900.318461	0.520264
900.500588	0.519377
900.682698	0.519171
900.864789	0.519139
901.046862	0.517396
901.228917	0.516509
901.410953	0.516602
901.592971	0.516782
901.774972	0.516752
901.956953	0.516322
902.138917	0.516396
902.320862	0.515768
902.502790	0.515609
902.684699	0.516424
902.866589	0.515986
903.048462	0.515066
903.230316	0.514717
903.412152	0.514722
903.593970	0.514276
903.775770	0.513268
903.957551	0.513018
904.139314	0.512600
904.321059	0.511793
904.502786	0.511429
904.684494	0.510821
904.866185	0.509948
905.047857	0.508663
905.229510	0.507887
905.411146	0.508251
905.592763	0.507531
905.774363	0.506704
905.955943	0.505805
906.137506	0.505168
906.319051	0.505407
906.500577	0.505062
906.682085	0.504881
906.863575	0.505226
907.045046	0.504027
907.226500	0.503916
907.407935	0.503200
907.589352	0.502805
907.770750	0.502335
907.952131	0.501544
908.133493	0.500707
908.314837	0.500158
908.496163	0.498493
908.677470	0.497503
908.858760	0.496224
909.040031	0.495683
909.221284	0.494932
909.402518	0.494439
909.583735	0.493840
909.764933	0.493508
909.946113	0.492569
910.127275	0.492769
910.308418	0.492077
910.489544	0.491746
910.670651	0.491494
910.851740	0.491245
911.032810	0.490225
911.213863	0.488828
911.394897	0.488024
911.575913	0.487190
911.756911	0.486266
911.937890	0.485966
912.118851	0.485593
912.299794	0.484766
912.480719	0.483378
912.661626	0.482982
912.842514	0.482989
913.023384	0.481995
913.204236	0.481607
913.385070	0.480601
913.565886	0.479366
913.746683	0.478310
913.927462	0.477486
914.108223	0.477440
914.288965	0.476944
914.469690	0.475267
914.650396	0.474690
914.831084	0.473432
915.011754	0.473656
915.192405	0.473575
915.373038	0.472505
915.553653	0.471438
915.734250	0.470250
915.914829	0.469374
916.095389	0.469580
916.275931	0.469142
916.456455	0.469077
916.636961	0.467530
916.817448	0.466593
916.997917	0.465256
917.178368	0.464628
917.358801	0.463877
917.539216	0.462945
917.719612	0.461573
917.899990	0.460067
918.080350	0.458491
918.260692	0.457882
918.441015	0.456405
918.621320	0.456514
918.801607	0.455669
918.981876	0.455812
919.162127	0.454387
919.342359	0.453125
919.522573	0.451731
919.702769	0.451618
919.882947	0.450322
920.063106	0.449397
920.243247	0.447630
920.423370	0.447115
920.603475	0.444998
920.783562	0.444165
920.963630	0.444102
921.143680	0.443733
921.323712	0.442518
921.503725	0.442031
921.683721	0.441796
921.863698	0.441031
922.043657	0.439221
922.223598	0.438156
922.403520	0.437257
922.583424	0.435631
922.763311	0.434487
922.943178	0.432448
923.123028	0.431388
923.302859	0.429778
923.482673	0.429108
923.662467	0.427771
923.842244	0.427096
924.022003	0.425760
924.201743	0.424611
924.381465	0.424647
924.561169	0.424396
924.740854	0.422790
924.920522	0.421669
925.100171	0.419896
925.279802	0.419663
925.459414	0.418176
925.639009	0.417392
925.818585	0.415808
925.998143	0.412704
926.177683	0.411834
926.357205	0.410776
926.536708	0.409521
926.716193	0.408251
926.895660	0.407207
927.075109	0.406018
927.254539	0.404740
927.433951	0.404337
927.613345	0.404156
927.792721	0.402591
927.972079	0.400423
928.151418	0.399567
928.330739	0.398922
928.510042	0.396750
928.689327	0.395537
928.868593	0.393534
929.047841	0.392000
929.227071	0.390562
929.406283	0.389855
929.585476	0.389966
929.764652	0.388516
929.943809	0.387463
930.122948	0.386717
930.302068	0.385588
930.481171	0.385239
930.660255	0.383208
930.839321	0.381983
931.018369	0.379789
931.197398	0.378617
931.376409	0.377588
931.555402	0.376545
931.734377	0.374921
931.913334	0.374003
932.092272	0.372518
932.271192	0.372539
932.450094	0.371770
932.628978	0.371086
932.807844	0.369393
932.986691	0.368357
933.165520	0.367415
933.344331	0.366568
933.523123	0.365321
933.701898	0.364464
933.880654	0.362820
934.059392	0.361632
934.238111	0.360088
934.416813	0.359156
934.595496	0.357428
934.774161	0.356246
934.952808	0.354663
935.131437	0.352586
935.310047	0.350991
935.488639	0.349743
935.667213	0.347881
935.845769	0.346332
936.024306	0.344786
936.202825	0.342565
936.381326	0.341133
936.559809	0.339800
936.738274	0.339488
936.916720	0.337000
937.095148	0.335068
937.273558	0.333096
937.451950	0.331442
937.630323	0.329761
937.808678	0.329500
937.987015	0.327851
938.165334	0.325631
938.343635	0.323251
938.521917	0.321651
938.700181	0.320186
938.878427	0.319469
939.056655	0.318203
939.234864	0.316168
939.413055	0.314661
939.591228	0.312055
939.769383	0.310834
939.947519	0.310195
940.125638	0.310636
940.303738	0.309862
940.481820	0.307663
940.659883	0.305889
940.837929	0.303729
941.015956	0.302605
941.193965	0.302405
941.371955	0.301203
941.549928	0.297046
941.727882	0.293627
941.905818	0.291907
942.083736	0.291343
942.261636	0.290089
942.439517	0.289677
942.617380	0.287050
942.795225	0.283435
942.973052	0.282453
943.150860	0.282640
943.328651	0.282460
943.506423	0.282349
943.684176	0.280213
943.861912	0.279398
944.039629	0.277016
944.217328	0.276370
944.395009	0.275945
944.572672	0.273027
944.750317	0.271165
944.927943	0.270265
945.105551	0.267523
945.283141	0.265875
945.460712	0.262699
945.638265	0.262043
945.815801	0.259558
945.993317	0.258635
946.170816	0.257219
946.348297	0.258065
946.525759	0.256433
946.703203	0.254870
946.880629	0.253724
947.058036	0.254917
947.235425	0.253608
947.412797	0.253771
947.590149	0.250628
947.767484	0.251006
947.944800	0.248762
948.122099	0.246779
948.299379	0.245785
948.476640	0.242356
948.653884	0.238944
948.831109	0.237885
949.008316	0.235332
949.185505	0.234767
949.362676	0.232785
949.539828	0.230149
949.716962	0.228015
949.894078	0.226673
950.071176	0.226740
950.248256	0.225700
950.425317	0.224265
950.602360	0.220940
950.779385	0.220276
950.956391	0.218889
951.133380	0.216578
951.310350	0.216281
951.487302	0.214624
951.664235	0.213326
951.841151	0.209482
952.018048	0.208004
952.194927	0.208571
952.371788	0.206536
952.548631	0.202815
952.725455	0.202701
952.902261	0.201770
953.079049	0.199356
953.255819	0.197909
953.432570	0.199270
953.609303	0.198618
953.786018	0.198216
953.962715	0.198789
954.139394	0.200111
954.316054	0.198670
954.492696	0.197743
954.669320	0.196761
954.845926	0.198418
955.022513	0.197863
955.199083	0.196952
955.375634	0.193858
955.552166	0.191000
955.728681	0.189454
955.905177	0.188900
956.081655	0.185346
956.258115	0.183881
956.434557	0.179248
956.610980	0.176947
956.787385	0.174596
956.963772	0.174913
957.140141	0.173551
957.316492	0.172462
957.492824	0.168404
957.669138	0.168698
957.845434	0.168154
958.021712	0.169914
958.197971	0.171548
958.374212	0.171103
958.550435	0.170909
958.726640	0.170391
958.902826	0.170006
959.078995	0.172894
959.255145	0.170506
959.431277	0.169326
959.607390	0.166807
959.783486	0.165626
959.959563	0.164280
960.135622	0.162121
960.311662	0.162417
960.487685	0.162794
960.663689	0.161169
960.839675	0.161350
961.015643	0.161931
961.191593	0.161058
961.367524	0.158335
961.543437	0.158716
961.719332	0.158797
961.895209	0.158787
962.071067	0.156398
962.246907	0.157046
962.422730	0.157971
962.598533	0.157822
962.774319	0.159512
962.950086	0.160711
963.125835	0.159872
963.301566	0.160151
963.477279	0.158803
963.652973	0.159931
963.828650	0.158277
964.004308	0.155527
964.179947	0.153661
964.355569	0.152245
964.531172	0.149612
964.706757	0.148478
964.882324	0.148911
965.057873	0.148851
965.233403	0.147031
965.408916	0.146749
965.584410	0.148496
965.759885	0.147470
965.935343	0.147518
966.110782	0.146136
966.286203	0.147013
966.461606	0.144990
966.636991	0.144942
966.812357	0.146792
966.987705	0.147712
967.163035	0.148348
967.338347	0.150118
967.513641	0.150153
967.688916	0.155416
967.864173	0.154043
968.039412	0.153945
968.214632	0.154881
968.389835	0.153335
968.565019	0.150963
968.740185	0.151546
968.915333	0.151836
969.090462	0.154244
969.265573	0.148996
969.440667	0.151367
969.615741	0.150902
969.790798	0.148761
969.965836	0.149922
970.140856	0.150952
970.315858	0.147675
970.490842	0.147420
970.665808	0.145988
970.840755	0.148505
971.015684	0.148402
971.190595	0.147780
971.365487	0.147706
971.540362	0.147671
971.715218	0.145854
971.890056	0.145918
972.064875	0.145677
972.239677	0.142357
972.414460	0.142228
972.589225	0.141487
972.763972	0.143037
972.938700	0.145233
973.113411	0.143493
973.288103	0.144673
973.462777	0.147010
973.637432	0.146168
973.812070	0.146392
973.986689	0.147311
974.161290	0.147392
974.335873	0.145095
974.510437	0.141435
974.684984	0.141870
974.859512	0.144270
975.034022	0.143354
975.208513	0.140952
975.382987	0.141371
975.557442	0.141807
975.731879	0.141965
975.906298	0.141681
976.080698	0.143023
976.255080	0.143146
976.429445	0.140377
976.603790	0.139683
976.778118	0.142304
976.952427	0.142715
977.126719	0.140625
977.300992	0.140678
977.475246	0.141700
977.649483	0.143658
977.823701	0.143375
977.997901	0.145320
978.172083	0.143902
978.346247	0.144788
978.520392	0.146068
978.694519	0.146614
978.868628	0.146566
979.042719	0.146100
979.216791	0.144085
979.390845	0.145270
979.564882	0.146360
979.738899	0.149614
979.912899	0.147768
980.086880	0.149488
980.260843	0.150841
980.434788	0.150397
980.608715	0.152977
980.782623	0.153049
980.956514	0.154401
981.130386	0.153518
981.304240	0.150502
981.478075	0.152174
981.651892	0.147496
981.825692	0.145206
981.999472	0.147107
982.173235	0.147371
982.346980	0.150023
982.520706	0.148061
982.694414	0.148536
982.868104	0.153768
983.041775	0.153790
983.215428	0.155328
983.389064	0.156342
983.562680	0.156348
983.736279	0.155624
983.909860	0.153455
984.083422	0.153997
984.256966	0.151394
984.430491	0.148170
984.603999	0.147014
984.777488	0.146794
984.950959	0.146151
985.124412	0.145106
985.297847	0.145470
985.471263	0.144162
985.644661	0.143104
985.818041	0.145521
985.991403	0.146193
986.164747	0.148179
986.338072	0.147522
986.511379	0.149966
986.684668	0.149487
986.857938	0.149310
987.031191	0.152088
987.204425	0.151770
987.377641	0.149732
987.550839	0.149958
987.724018	0.147870
987.897179	0.149369
988.070322	0.149587
988.243447	0.148621
988.416554	0.149082
988.589642	0.148490
988.762712	0.149976
988.935764	0.149626
989.108798	0.149621
989.281813	0.149897
989.454811	0.149604
989.627790	0.149131
989.800751	0.151863
989.973693	0.148557
990.146617	0.146340
990.319524	0.146086
990.492412	0.147400
990.665281	0.147391
990.838133	0.147201
991.010966	0.147642
991.183781	0.147684
991.356578	0.144918
991.529356	0.145353
991.702117	0.147624
991.874859	0.146261
992.047583	0.145759
992.220288	0.144849
992.392976	0.144468
992.565645	0.144015
992.738296	0.141787
992.910929	0.141783
993.083543	0.142954
993.256139	0.142172
993.428718	0.143555
993.601277	0.143654
993.773819	0.142836
993.946342	0.143452
994.118848	0.142559
994.291335	0.143076
994.463803	0.143391
994.636254	0.143116
994.808686	0.142762
994.981100	0.143694
995.153496	0.143065
995.325874	0.145493
995.498233	0.144325
995.670574	0.147948
995.842897	0.149169
996.015202	0.150225
996.187488	0.150392
996.359757	0.152989
996.532007	0.151388
996.704239	0.152637
996.876452	0.152269
997.048648	0.155274
997.220825	0.153848
997.392984	0.152882
997.565124	0.152753
997.737247	0.153970
997.909351	0.152983
998.081437	0.154716
998.253505	0.153942
998.425554	0.151852
998.597586	0.151630
998.769599	0.150490
998.941594	0.151085
999.113571	0.150299
999.285529	0.149127
999.457469	0.148441
999.629391	0.146953
999.801295	0.147475
999.973181	0.148365
1000.145048	0.147355
1000.316897	0.148787
1000.488728	0.147078
1000.660541	0.146420
1000.832335	0.147103
1001.004111	0.145643
1001.175869	0.147282
1001.347609	0.147364
1001.519331	0.147240
1001.691034	0.147333
1001.862719	0.143891
1002.034386	0.144667
1002.206035	0.147283
1002.377665	0.148750
1002.549277	0.149736
1002.720871	0.148134
1002.892447	0.146239
1003.064004	0.146939
1003.235544	0.148125
1003.407065	0.151330
1003.578568	0.152148
1003.750052	0.150333
1003.921519	0.150055
1004.092967	0.150465
1004.264397	0.149864
1004.435809	0.152074
1004.607202	0.151218
1004.778577	0.150387
1004.949934	0.148478
1005.121273	0.148000
1005.292594	0.149191
1005.463896	0.148609
1005.635180	0.147548
1005.806446	0.148432
1005.977694	0.148285
1006.148923	0.147017
1006.320135	0.146249
1006.491328	0.147738
1006.662503	0.147958
1006.833659	0.146126
1007.004798	0.146707
1007.175918	0.148594
1007.347020	0.147440
1007.518103	0.145469
1007.689169	0.147952
1007.860216	0.147912
1008.031245	0.146960
1008.202256	0.147723
1008.373248	0.149217
1008.544223	0.148514
1008.715179	0.147814
1008.886117	0.149190
1009.057036	0.150433
1009.227938	0.149160
1009.398821	0.148840
1009.569686	0.148883
1009.740533	0.146323
1009.911361	0.145781
1010.082172	0.144901
1010.252964	0.143956
1010.423738	0.144584
1010.594493	0.144959
1010.765231	0.145706
1010.935950	0.146455
1011.106651	0.147027
1011.277334	0.148960
1011.447998	0.147841
1011.618645	0.146979
1011.789273	0.146888
1011.959882	0.145808
1012.130474	0.144006
1012.301048	0.141891
1012.471603	0.141044
1012.642140	0.140750
1012.812658	0.140614
1012.983159	0.140353
1013.153641	0.141584
1013.324105	0.142562
1013.494551	0.141893
1013.664979	0.144088
1013.835388	0.145183
1014.005779	0.146185
1014.176152	0.146741
1014.346507	0.146964
1014.516843	0.148888
1014.687162	0.147192
1014.857462	0.146989
1015.027744	0.147341
1015.198007	0.147497
1015.368252	0.147571
1015.538480	0.144776
1015.708689	0.144605
1015.878879	0.142291
1016.049052	0.139125
1016.219206	0.140046
1016.389342	0.140646
1016.559460	0.139374
1016.729559	0.138973
1016.899641	0.139410
1017.069704	0.141741
1017.239749	0.140710
1017.409775	0.142182
1017.579784	0.145218
1017.749774	0.145663
1017.919746	0.144873
1018.089700	0.145842
1018.259635	0.145421
1018.429553	0.147288
1018.599452	0.145637
1018.769333	0.145841
1018.939195	0.146748
1019.109040	0.144685
1019.278866	0.144226
1019.448674	0.143774
1019.618464	0.142927
1019.788235	0.143159
1019.957989	0.140523
1020.127724	0.141035
1020.297441	0.141189
1020.467139	0.141691
1020.636820	0.142993
1020.806482	0.143192
1020.976126	0.142681
1021.145752	0.144371
1021.315359	0.144882
1021.484948	0.144323
1021.654519	0.145837
1021.824072	0.145319
1021.993607	0.146110
1022.163123	0.144923
1022.332621	0.145729
1022.502101	0.146534
1022.671563	0.145929
1022.841007	0.145122
1023.010432	0.146528
1023.179839	0.145930
1023.349228	0.145370
1023.518598	0.144168
1023.687951	0.144745
1023.857285	0.145197
1024.026601	0.145669
1024.195899	0.147159
1024.365178	0.145813
1024.534439	0.146175
1024.703682	0.145567
1024.872907	0.146828
1025.042114	0.144942
1025.211302	0.144375
1025.380472	0.144226
1025.549624	0.143587
1025.718758	0.142271
1025.887873	0.145009
1026.056970	0.144166
1026.226049	0.144852
1026.395110	0.144259
1026.564153	0.144435
1026.733177	0.144640
1026.902183	0.144046
1027.071171	0.144979
1027.240141	0.143182
1027.409092	0.139648
1027.578026	0.140224
1027.746940	0.139554
1027.915837	0.140208
1028.084716	0.139331
1028.253576	0.139370
1028.422418	0.137725
1028.591242	0.138328
1028.760048	0.139103
1028.928835	0.141357
1029.097604	0.140142
1029.266355	0.141904
1029.435088	0.141421
1029.603803	0.143475
1029.772499	0.142534
1029.941177	0.143536
1030.109837	0.141306
1030.278478	0.142047
1030.447102	0.141099
1030.615707	0.142157
1030.784294	0.139156
1030.952863	0.139626
1031.121413	0.139655
1031.289945	0.139877
1031.458460	0.139658
1031.626955	0.141903
1031.795433	0.141870
1031.963892	0.141542
1032.132334	0.141011
1032.300756	0.142844
1032.469161	0.142354
1032.637548	0.143229
1032.805916	0.144775
1032.974266	0.145458
1033.142598	0.144598
1033.310911	0.145251
1033.479207	0.146738
1033.647484	0.146516
1033.815743	0.144223
1033.983983	0.145606
1034.152206	0.142951
1034.320410	0.140884
1034.488596	0.141208
1034.656764	0.140391
1034.824914	0.139265
1034.993045	0.138688
1035.161158	0.140431
1035.329253	0.140674
1035.497330	0.139047
1035.665388	0.141061
1035.833428	0.142359
1036.001450	0.142122
1036.169454	0.142452
1036.337440	0.144114
1036.505407	0.143940
1036.673356	0.142527
1036.841287	0.143211
1037.009200	0.143376
1037.177094	0.143512
1037.344970	0.143830
1037.512828	0.142358
1037.680668	0.142520
1037.848489	0.141811
1038.016293	0.139465
1038.184078	0.140188
1038.351845	0.140381
1038.519593	0.138148
1038.687324	0.137750
1038.855036	0.138369
1039.022730	0.138274
1039.190406	0.139592
1039.358063	0.139091
1039.525702	0.142442
1039.693323	0.141453
1039.860926	0.141083
1040.028511	0.142965
1040.196077	0.143993
1040.363625	0.144421
1040.531155	0.146878
1040.698667	0.146258
1040.866161	0.147014
1041.033636	0.146334
1041.201093	0.145364
1041.368532	0.144795
1041.535952	0.145263
1041.703355	0.144484
1041.870739	0.144151
1042.038105	0.141882
1042.205452	0.140711
1042.372782	0.140517
1042.540093	0.141968
1042.707386	0.143231
1042.874661	0.144918
1043.041918	0.145509
1043.209156	0.143054
1043.376376	0.144100
1043.543578	0.144902
1043.710762	0.145060
1043.877927	0.143251
1044.045074	0.141125
1044.212203	0.142280
1044.379314	0.143208
1044.546407	0.145256
1044.713481	0.147392
1044.880537	0.146890
1045.047575	0.147127
1045.214595	0.147636
1045.381596	0.150744
1045.548579	0.149855
1045.715544	0.146955
1045.882491	0.146686
1046.049420	0.145869
1046.216330	0.145830
1046.383222	0.146122
1046.550096	0.144549
1046.716951	0.143322
1046.883789	0.142402
1047.050608	0.143472
1047.217409	0.144320
1047.384192	0.143281
1047.550956	0.139309
1047.717703	0.138595
1047.884431	0.135692
1048.051140	0.137342
1048.217832	0.138724
1048.384505	0.137117
1048.551161	0.136938
1048.717798	0.137758
1048.884416	0.139186
1049.051017	0.140276
1049.217599	0.139173
1049.384163	0.140931
1049.550709	0.141623
1049.717237	0.140301
1049.883746	0.141985
1050.050237	0.139979
1050.216710	0.139494
1050.383165	0.138781
1050.549601	0.140091
1050.716019	0.142237
1050.882420	0.141782
1051.048801	0.141931
1051.215165	0.143576
1051.381510	0.141248
1051.547837	0.143878
1051.714146	0.144313
1051.880437	0.143761
1052.046709	0.142348
1052.212964	0.143152
1052.379200	0.143226
1052.545417	0.143545
1052.711617	0.143385
1052.877798	0.146023
1053.043961	0.146126
1053.210106	0.147072
1053.376233	0.146551
1053.542341	0.147820
1053.708432	0.144880
1053.874504	0.144504
1054.040557	0.144092
1054.206593	0.141226
1054.372610	0.138896
1054.538609	0.139149
1054.704590	0.137702
1054.870553	0.138124
1055.036497	0.137556
1055.202424	0.139280
1055.368331	0.140439
1055.534221	0.140699
1055.700093	0.143320
1055.865946	0.146283
1056.031781	0.146468
1056.197598	0.145923
1056.363397	0.145107
1056.529177	0.144359
1056.694939	0.145103
1056.860683	0.144051
1057.026409	0.142985
1057.192116	0.142211
1057.357806	0.139097
1057.523477	0.139856
1057.689130	0.140193
1057.854764	0.141140
1058.020381	0.143361
1058.185979	0.139691
1058.351559	0.141347
1058.517120	0.141729
1058.682664	0.141577
1058.848189	0.142518
1059.013696	0.142652
1059.179185	0.143506
1059.344656	0.143213
1059.510108	0.140898
1059.675542	0.142220
1059.840958	0.142321
1060.006356	0.142664
1060.171735	0.141075
1060.337096	0.142961
1060.502439	0.140500
1060.667764	0.139965
1060.833071	0.139929
1060.998359	0.139622
1061.163629	0.141724
1061.328881	0.139806
1061.494115	0.138786
1061.659330	0.141662
1061.824527	0.140867
1061.989706	0.139588
1062.154867	0.140025
1062.320010	0.141207
1062.485134	0.142297
1062.650240	0.142279
1062.815328	0.144251
1062.980398	0.145150
1063.145449	0.145162
1063.310482	0.143560
1063.475497	0.145300
1063.640494	0.144850
1063.805473	0.141567
1063.970433	0.141734
1064.135375	0.142483
1064.300299	0.139812
1064.465204	0.139780
1064.630092	0.139531
1064.794961	0.138566
1064.959812	0.140300
1065.124645	0.140540
1065.289459	0.142980
1065.454256	0.144543
1065.619034	0.144757
1065.783793	0.145212
1065.948535	0.145567
1066.113258	0.145600
1066.277964	0.148002
1066.442651	0.146015
1066.607319	0.146768
1066.771970	0.145943
1066.936602	0.142805
1067.101216	0.140917
1067.265812	0.142810
1067.430389	0.142483
1067.594949	0.140244
1067.759490	0.140195
1067.924013	0.140158
1068.088518	0.139144
1068.253004	0.142155
1068.417472	0.144990
1068.581922	0.146834
1068.746354	0.147369
1068.910768	0.148601
1069.075163	0.150441
1069.239540	0.151977
1069.403899	0.154639
1069.568240	0.157561
1069.732562	0.154334
1069.896866	0.155532
1070.061152	0.155942
1070.225420	0.155639
1070.389670	0.154868
1070.553901	0.155246
1070.718114	0.152636
1070.882309	0.150934
1071.046486	0.148357
1071.210644	0.149750
1071.374784	0.145698
1071.538906	0.144991
1071.703010	0.142424
1071.867096	0.140465
1072.031163	0.139930
1072.195212	0.143179
1072.359243	0.143055
1072.523256	0.143345
1072.687250	0.145391
1072.851226	0.150378
1073.015184	0.149498
1073.179124	0.151601
1073.343045	0.149284
1073.506949	0.148703
1073.670834	0.145159
1073.834701	0.144870
1073.998549	0.144290
1074.162380	0.143048
1074.326192	0.141033
1074.489986	0.141231
1074.653761	0.141038
1074.817519	0.144486
1074.981258	0.141879
1075.144979	0.144475
1075.308682	0.144395
1075.472367	0.144376
1075.636033	0.144230
1075.799681	0.145898
1075.963311	0.143111
1076.126923	0.142018
1076.290516	0.141845
1076.454092	0.144266
1076.617649	0.144201
1076.781187	0.142779
1076.944708	0.143607
1077.108210	0.144465
1077.271695	0.141343
1077.435160	0.143036
1077.598608	0.143726
1077.762038	0.143444
1077.925449	0.147680
1078.088842	0.148110
1078.252217	0.152804
1078.415573	0.153046
1078.578912	0.154234
1078.742232	0.156054
1078.905534	0.160029
1079.068817	0.157861
1079.232083	0.159243
1079.395330	0.156429
1079.558559	0.153898
1079.721770	0.152666
1079.884962	0.154176
1080.048136	0.153816
1080.211293	0.155519
1080.374430	0.152650
1080.537550	0.154759
1080.700651	0.154631
1080.863735	0.151178
1081.026800	0.153643
1081.189846	0.153541
1081.352875	0.153391
1081.515885	0.151620
1081.678877	0.151493
1081.841851	0.151889
1082.004807	0.149989
1082.167744	0.151701
1082.330663	0.154123
1082.493564	0.149695
1082.656447	0.149352
1082.819312	0.147049
1082.982158	0.144942
1083.144986	0.141904
1083.307796	0.140931
1083.470587	0.144993
1083.633361	0.143500
1083.796116	0.143958
1083.958853	0.148863
1084.121571	0.148699
1084.284272	0.147443
1084.446954	0.148296
1084.609618	0.148587
1084.772264	0.150645
1084.934892	0.147577
1085.097501	0.147141
1085.260092	0.146011
1085.422665	0.144844
1085.585220	0.143150
1085.747756	0.144226
1085.910274	0.146753
1086.072774	0.149517
1086.235256	0.149256
1086.397720	0.151889
1086.560165	0.154007
1086.722592	0.154127
1086.885001	0.154711
1087.047392	0.158533
1087.209764	0.158972
1087.372119	0.158639
1087.534455	0.158646
1087.696772	0.155018
1087.859072	0.152071
1088.021353	0.150455
1088.183616	0.150991
1088.345861	0.147981
1088.508088	0.143502
1088.670296	0.146462
1088.832486	0.146908
1088.994658	0.145932
1089.156812	0.149541
1089.318948	0.151288
1089.481065	0.151452
1089.643164	0.153870
1089.805245	0.155200
1089.967308	0.160221
1090.129352	0.158642
1090.291378	0.157172
1090.453386	0.156997
1090.615376	0.154272
1090.777347	0.153775
1090.939301	0.153151
1091.101236	0.151381
1091.263153	0.153961
1091.425051	0.151365
1091.586932	0.151389
1091.748794	0.153923
1091.910638	0.152980
1092.072463	0.158138
1092.234271	0.158915
1092.396060	0.159944
1092.557831	0.160349
1092.719584	0.160465
1092.881319	0.162068
1093.043035	0.159430
1093.204733	0.158953
1093.366413	0.159487
1093.528075	0.155868
1093.689718	0.154578
1093.851343	0.152639
1094.012950	0.154459
1094.174539	0.152640
1094.336110	0.149430
1094.497662	0.150877
1094.659196	0.147747
1094.820712	0.146522
1094.982210	0.146453
1095.143689	0.147198
1095.305151	0.147526
1095.466594	0.143946
1095.628018	0.143778
1095.789425	0.147275
1095.950813	0.148314
1096.112183	0.151050
1096.273535	0.152811
1096.434869	0.153814
1096.596184	0.156972
1096.757482	0.159397
1096.918761	0.160982
1097.080021	0.160395
1097.241264	0.156062
1097.402488	0.156100
1097.563694	0.157215
1097.724882	0.155777
1097.886052	0.154911
1098.047203	0.152571
1098.208336	0.151338
1098.369451	0.151163
1098.530548	0.149585
1098.691627	0.150021
1098.852687	0.150060
1099.013729	0.145311
1099.174753	0.142898
1099.335758	0.141074
1099.496746	0.140032
1099.657715	0.136600
1099.818666	0.138235
1099.979599	0.139260
1100.140513	0.141939
1100.301409	0.138270
1100.462287	0.141746
1100.623147	0.143741
1100.783989	0.148455
1100.944812	0.148903
1101.105617	0.149359
1101.266404	0.151358
1101.427173	0.151547
1101.587923	0.151721
1101.748656	0.155759
1101.909370	0.153268
1102.070066	0.154671
1102.230743	0.149280
1102.391403	0.148717
1102.552044	0.147223
1102.712667	0.142960
1102.873271	0.142587
1103.033858	0.142214
1103.194426	0.140594
1103.354976	0.143257
1103.515508	0.144001
1103.676021	0.141578
1103.836517	0.140170
1103.996994	0.141567
1104.157453	0.140339
1104.317893	0.141638
1104.478316	0.138673
1104.638720	0.138390
1104.799106	0.138306
1104.959474	0.138982
1105.119823	0.143367
1105.280155	0.147866
1105.440468	0.148969
1105.600763	0.150484
1105.761039	0.148192
1105.921298	0.148660
1106.081538	0.150326
1106.241760	0.148176
1106.401964	0.147454
1106.562149	0.147558
1106.722316	0.144807
1106.882465	0.143187
1107.042596	0.146141
1107.202709	0.145603
1107.362803	0.148699
1107.522879	0.146669
1107.682937	0.145146
1107.842977	0.145762
1108.002999	0.146417
1108.163002	0.141327
1108.322987	0.144587
1108.482954	0.142735
1108.642902	0.144882
1108.802833	0.143863
1108.962745	0.141997
1109.122639	0.145568
1109.282515	0.141972
1109.442372	0.143222
1109.602211	0.150056
1109.762032	0.152422
1109.921835	0.147060
1110.081620	0.145377
1110.241386	0.146005
1110.401134	0.148521
1110.560864	0.150894
1110.720576	0.149581
1110.880269	0.146303
1111.039945	0.143071
1111.199602	0.137782
1111.359240	0.144265
1111.518861	0.149372
1111.678463	0.150629
1111.838047	0.153551
1111.997613	0.148000
1112.157161	0.146268
1112.316690	0.145752
1112.476202	0.147401
1112.635695	0.151090
1112.795169	0.151633
1112.954626	0.151603
1113.114064	0.141657
1113.273484	0.139919
1113.432886	0.139834
1113.592270	0.146805
1113.751635	0.149270
1113.910983	0.148542
1114.070312	0.145398
1114.229622	0.146231
1114.388915	0.144097
1114.548189	0.149948
1114.707445	0.151254
1114.866683	0.149732
1115.025903	0.149972
1115.185104	0.148452
1115.344287	0.149636
1115.503452	0.160443
1115.662599	0.156848
1115.821727	0.158282
1115.980838	0.160174
1116.139930	0.157612
1116.299004	0.156934
1116.458059	0.157898
1116.617097	0.156300
1116.776116	0.157007
1116.935117	0.150413
1117.094099	0.143366
1117.253064	0.135593
1117.412010	0.136435
1117.570938	0.134705
1117.729848	0.135424
1117.888740	0.131448
1118.047613	0.138676
1118.206468	0.133510
1118.365305	0.133821
1118.524124	0.140359
1118.682924	0.142685
1118.841707	0.143577
1119.000471	0.144727
1119.159216	0.144597
1119.317944	0.148540
1119.476653	0.141857
1119.635344	0.146311
1119.794017	0.143538
1119.952672	0.143962
1120.111308	0.149145
1120.269927	0.147896
1120.428527	0.150852
1120.587108	0.153030
1120.745672	0.148372
1120.904217	0.151309
1121.062744	0.151908
1121.221253	0.148949
1121.379744	0.144528
1121.538216	0.138269
1121.696671	0.136533
1121.855107	0.135609
1122.013524	0.138264
1122.171924	0.136155
1122.330305	0.134707
1122.488668	0.135206
1122.647013	0.133006
1122.805340	0.142986
1122.963648	0.144540
1123.121938	0.146143
1123.280210	0.145095
1123.438464	0.146293
1123.596700	0.153683
1123.754917	0.150549
1123.913116	0.147280
1124.071297	0.151582
1124.229459	0.146013
1124.387604	0.148177
1124.545730	0.144104
1124.703838	0.146002
1124.861928	0.137910
1125.019999	0.127150
1125.178052	0.135623
1125.336088	0.138243
1125.494104	0.136512
1125.652103	0.136544
1125.810083	0.132397
1125.968045	0.137450
1126.125989	0.132093
1126.283915	0.136174
1126.441823	0.139168
1126.599712	0.135758
1126.757583	0.139270
1126.915436	0.137769
1127.073270	0.137484
1127.231087	0.136492
1127.388885	0.132061
1127.546665	0.136040
1127.704426	0.131607
1127.862170	0.135774
1128.019895	0.123876
1128.177602	0.122464
1128.335291	0.125786
1128.492961	0.123282
1128.650614	0.128999
1128.808248	0.128652
1128.965864	0.129973
1129.123461	0.134441
1129.281041	0.134676
1129.438602	0.146539
1129.596145	0.139407
1129.753670	0.143428
1129.911176	0.144337
1130.068665	0.150782
1130.226135	0.151427
1130.383587	0.150420
1130.541020	0.151866
1130.698436	0.151233
1130.855833	0.150664
1131.013212	0.154654
1131.170573	0.152134
1131.327915	0.153765
1131.485239	0.145360
1131.642545	0.140597
1131.799833	0.141843
1131.957103	0.140836
1132.114354	0.142387
1132.271588	0.141585
1132.428803	0.146021
1132.585999	0.142265
1132.743178	0.134238
1132.900338	0.139906
1133.057480	0.144251
1133.214604	0.132711
1133.371710	0.128725
1133.528797	0.127031
1133.685866	0.126626
1133.842917	0.120357
1133.999950	0.123019
1134.156964	0.122187
1134.313960	0.117794
1134.470938	0.116904
1134.627898	0.127384
1134.784840	0.138568
1134.941763	0.135192
1135.098668	0.137139
1135.255555	0.137207
1135.412424	0.132462
1135.569274	0.137063
1135.726107	0.130459
1135.882921	0.134594
1136.039716	0.130858
1136.196494	0.120687
1136.353253	0.123923
1136.509995	0.120494
1136.666717	0.122818
1136.823422	0.126305
1136.980109	0.126715
1137.136777	0.133380
1137.293427	0.130827
1137.450059	0.132201
1137.606672	0.139135
1137.763267	0.136006
1137.919844	0.133741
1138.076403	0.132349
1138.232944	0.136437
1138.389466	0.139585
1138.545971	0.138024
1138.702457	0.138659
1138.858924	0.135755
1139.015374	0.132461
1139.171805	0.136898
1139.328218	0.141896
1139.484613	0.143649
1139.640990	0.139206
1139.797348	0.139603
1139.953688	0.135205
1140.110010	0.130818
1140.266314	0.135191
1140.422600	0.126780
1140.578867	0.124133
1140.735116	0.129159
1140.891347	0.124989
1141.047559	0.129287
1141.203754	0.126174
1141.359930	0.128709
1141.516088	0.127359
1141.672228	0.128505
1141.828349	0.135174
1141.984452	0.132113
1142.140537	0.122482
1142.296604	0.122401
1142.452653	0.119447
1142.608683	0.119362
1142.764695	0.120614
1142.920689	0.127271
1143.076665	0.125163
1143.232622	0.126271
1143.388562	0.129079
1143.544483	0.131738
1143.700385	0.135177
1143.856270	0.138040
1144.012136	0.140782
1144.167985	0.142213
1144.323814	0.136656
1144.479626	0.139764
1144.635420	0.143359
1144.791195	0.147256
1144.946952	0.150705
1145.102691	0.147401
1145.258411	0.144783
1145.414113	0.146351
1145.569798	0.146329
1145.725463	0.150070
1145.881111	0.146521
1146.036741	0.140414
1146.192352	0.134579
1146.347945	0.137232
1146.503519	0.138548
1146.659076	0.135980
1146.814614	0.138059
1146.970134	0.132445
1147.125636	0.131251
1147.281120	0.130332
1147.436585	0.125476
1147.592032	0.134115
1147.747461	0.127339
1147.902872	0.119884
1148.058265	0.114707
1148.213639	0.116450
1148.368995	0.115671
1148.524333	0.113047
1148.679653	0.110131
1148.834954	0.115556
1148.990237	0.111936
1149.145502	0.111661
1149.300749	0.115200
1149.455977	0.120558
1149.611188	0.114127
1149.766380	0.118044
1149.921553	0.128792
1150.076709	0.133848
1150.231846	0.125654
1150.386966	0.120077
1150.542066	0.122749
1150.697149	0.128359
1150.852214	0.124470
1151.007260	0.120457
1151.162288	0.125069
1151.317298	0.122377
1151.472289	0.115287
1151.627263	0.118208
1151.782218	0.120627
1151.937155	0.123347
1152.092073	0.119472
1152.246974	0.130541
1152.401856	0.134225
1152.556720	0.128109
1152.711566	0.123041
1152.866393	0.124867
1153.021203	0.130248
1153.175994	0.129333
1153.330767	0.127996
1153.485521	0.125660
1153.640258	0.117969
1153.794976	0.112152
1153.949676	0.107134
1154.104358	0.109177
1154.259021	0.114103
1154.413667	0.109970
1154.568294	0.108471
1154.722903	0.111455
1154.877493	0.114727
1155.032066	0.110060
1155.186620	0.120348
1155.341156	0.124903
1155.495674	0.123235
1155.650173	0.113457
1155.804654	0.119508
1155.959118	0.114800
1156.113562	0.106824
1156.267989	0.104897
1156.422397	0.107858
1156.576788	0.103213
1156.731160	0.111723
1156.885513	0.112750
1157.039849	0.113542
1157.194166	0.106103
1157.348465	0.115594
1157.502746	0.109584
1157.657009	0.114096
1157.811253	0.118502
1157.965479	0.119962
1158.119687	0.110620
1158.273877	0.105208
1158.428048	0.112068
1158.582201	0.110648
1158.736337	0.105570
1158.890453	0.115974
1159.044552	0.112512
1159.198632	0.109929
1159.352694	0.113696
1159.506738	0.116138
1159.660764	0.120647
1159.814771	0.108076
1159.968761	0.124451
1160.122732	0.119386
1160.276685	0.117419
1160.430619	0.116309
1160.584535	0.116837
1160.738434	0.107852
1160.892313	0.099812
1161.046175	0.101489
1161.200019	0.111793
1161.353844	0.105131
1161.507651	0.119101
1161.661440	0.114728
1161.815210	0.120484
1161.968962	0.113378
1162.122697	0.122918
1162.276412	0.129615
1162.430110	0.128426
1162.583789	0.108909
1162.737451	0.105069
1162.891094	0.094970
1163.044718	0.097394
1163.198325	0.088190
1163.351913	0.090329
1163.505483	0.080184
1163.659035	0.082437
1163.812569	0.081352
1163.966084	0.096553
1164.119581	0.093236
1164.273060	0.089973
1164.426521	0.090166
1164.579964	0.091221
1164.733388	0.092956
1164.886794	0.092223
1165.040182	0.096718
1165.193551	0.101687
1165.346903	0.107423
1165.500236	0.114528
1165.653551	0.121712
1165.806848	0.117337
1165.960126	0.114590
1166.113386	0.111078
1166.266628	0.109815
1166.419852	0.099865
1166.573058	0.091417
1166.726245	0.083389
1166.879414	0.076974
1167.032565	0.071847
1167.185698	0.074590
1167.338812	0.078032
1167.491909	0.082997
1167.644987	0.087635
1167.798046	0.087365
1167.951088	0.085063
1168.104111	0.085311
1168.257117	0.086694
1168.410103	0.089834
1168.563072	0.085839
1168.716023	0.088064
1168.868955	0.085781
1169.021869	0.071582
1169.174765	0.075310
1169.327642	0.084376
1169.480501	0.085076
1169.633343	0.089202
1169.786165	0.083585
1169.938970	0.075895
1170.091757	0.074440
1170.244525	0.081263
1170.397275	0.095938
1170.550007	0.093170
1170.702720	0.088871
1170.855415	0.088144
1171.008092	0.077179
1171.160751	0.075873
1171.313392	0.079551
1171.466014	0.053201
1171.618619	0.050578
1171.771205	0.050578
1171.923772	0.050578
