sample name	sample
index	444
start time	 03-11-2021  10:47:38 AM
880	0.438373
Peak Time (s)	92.536
Peak Height 	0.4384
calc peak height	90,93
Baseline Time (s)	9.536
Baseline Value 	-0.005435
subtract baseline	10,4
Abs	0.288377
Peak Time (s)	91.536
Peak Height 	0.2884
calc peak height	90,93
Baseline Time (s)	9.038
Baseline Value 	0.00355
subtract baseline	10,3
PK_550	0.142073
Peak Time (s)	90.035
Peak Height 	0.1421
calc peak height	90,93
Baseline Time (s)	10.536
Baseline Value 	3.4098E-4
subtract baseline	10,2
PK_880	0.269705
Peak Time (s)	92.037
Peak Height 	0.2697
calc peak height	90,93
Baseline Time (s)	8.534
Baseline Value 	0.002212
subtract baseline	10,1


Time (s)	A880-A510	A880-A775	A880-A975	A880	I510	I775	I975	I880	
0.035000	0.000666	-0.000253	0.000429	0.001443	7059.628839	45837.036177	3888.502986	24221.309682
0.536000	-0.002313	-0.000478	-0.004233	0.004955	6994.968393	45467.751266	3865.659608	24047.891855
1.036000	-0.001654	-0.000356	-0.002794	0.006230	6988.883643	45354.402747	3866.114378	23985.284742
1.537500	-0.000414	-0.000097	-0.005642	0.003296	7030.282195	45668.890846	3866.350827	24129.600678
2.036500	0.000341	-0.000003	0.001098	0.000171	7069.141843	45988.335298	3893.990374	24284.455088
2.540000	0.000974	-0.000740	-0.001127	-0.000376	7081.020722	45969.305285	3889.241990	24311.639070
3.037000	-0.002706	0.000438	-0.003615	0.004720	6993.403825	45581.046831	3868.021698	24059.438213
3.535000	0.000093	0.000252	-0.000512	0.000608	7062.256183	45970.146898	3888.201400	24262.723519
4.035000	0.000504	-0.000659	-0.000370	-0.000408	7076.605731	45980.585962	3891.471552	24313.228920
4.535000	0.000246	-0.000311	-0.001984	-0.000082	7070.722321	45982.758414	3885.997917	24297.011401
5.035500	0.000115	-0.000220	0.003940	-0.000243	7071.024700	46007.843348	3903.248284	24305.013058
5.536000	0.001211	-0.000111	0.000557	-0.000052	7080.145649	45999.723112	3893.086599	24295.512004
6.036000	0.000636	-0.000362	0.000205	-0.000373	7077.580807	46006.736742	3893.001098	24311.497209
6.536000	-0.000770	-0.000674	-0.002151	-0.000943	7069.171291	46032.428766	3887.953539	24339.889594
7.036500	-0.000509	0.000584	-0.002039	0.000490	7057.393996	46014.969132	3884.234332	24268.568454
7.536500	0.002138	-0.000308	-0.000843	-0.000321	7092.228832	46006.931422	3889.890915	24308.938312
8.037500	-0.001825	-0.000308	-0.003583	-0.000222	7051.343733	45997.073337	3881.898458	24303.988125
8.534500	0.000000	-0.000484	0.003571	-0.000421	7071.663058	45999.340840	3902.703795	24313.882846
9.038000	-0.000854	-0.000593	0.000000	0.000760	7051.240124	45871.011420	3889.218631	24255.187086
9.535500	0.000050	-0.000110	-0.000864	0.000000	7067.935635	45994.618644	3888.924327	24292.943720
10.035500	0.000440	0.000087	0.001623	-0.000323	7075.109940	46046.485966	3896.881013	24309.024342
10.536000	-0.000979	0.000000	0.001559	-0.000404	7061.659032	46045.915295	3896.928730	24313.056713
11.036500	-0.000899	0.000202	-0.001867	0.001249	7045.889386	45901.455157	3882.585546	24230.912683
11.536500	0.002325	0.000306	-0.001499	0.000031	7090.557838	46033.003997	3887.045720	24291.405005
12.037000	-0.000341	0.000316	-0.000027	0.000047	7063.526375	46032.398975	3891.154491	24290.590512
12.537500	0.001055	0.000790	-0.001840	0.000271	7075.317406	46057.382065	3885.408948	24279.454181
13.034500	0.001144	0.000749	-0.003487	0.001074	7068.126648	45973.225344	3878.535748	24239.562790
13.535000	0.001869	0.000927	-0.001259	0.000421	7082.015413	46056.088599	3886.624602	24272.012446
14.035500	0.001701	-0.000421	-0.001902	-0.000729	7091.934357	46036.327165	3888.054602	24329.257956
14.535500	-0.002071	0.000609	0.000043	0.003198	7014.773771	45748.389384	3882.476531	24134.440470
15.036000	0.001407	0.000187	-0.000793	0.001997	7061.504581	45825.720433	3883.502764	24193.857528
15.539500	0.000769	0.000557	-0.003526	-0.000706	7082.290668	46131.667315	3883.416885	24328.109180
16.036500	0.001133	0.000489	0.004038	-0.000833	7087.245495	46137.606988	3905.215852	24334.431582
16.537000	0.000858	0.000531	-0.001445	-0.000227	7078.362251	46081.244101	3887.925670	24304.257436
17.036000	-0.001963	-0.000243	-0.000673	0.000683	7040.905605	45913.498456	3887.537087	24258.999326
17.534500	0.003126	0.000333	0.000827	-0.002441	7123.765259	46282.848955	3900.639606	24414.697289
18.035000	0.001837	0.000394	-0.001960	-0.001875	7104.904916	46232.214748	3891.124883	24386.393822
18.538000	0.001243	0.000590	0.002588	0.001278	7067.083487	45937.105535	3895.075358	24229.472271
19.035500	-0.000113	-0.000097	0.001342	0.001534	7050.897476	45843.421879	3890.822937	24216.776984
19.535500	0.001276	0.000775	-0.001866	0.002095	7059.204766	45874.331384	3880.216087	24188.979563
20.035500	0.000344	-0.000220	-0.000342	0.001458	7056.245793	45838.693970	3886.286351	24220.527734
20.536000	-0.002828	-0.000312	-0.004466	0.000970	7029.407566	45878.058926	3876.089809	24244.753562
21.036500	-0.001662	0.000059	-0.000476	0.001582	7034.930789	45854.146370	3885.558914	24214.393333
21.536500	-0.001773	-0.000435	-0.003782	0.001249	7037.150809	45838.217380	3877.221752	24230.917105
22.037000	0.000854	0.000039	0.001048	0.001667	7059.265390	45843.680755	3889.614496	24210.174435
22.537500	0.000486	0.000802	0.002226	0.001876	7053.471558	45898.680705	3892.354584	24199.812230
23.038000	0.000032	0.000450	0.003852	0.001889	7048.798803	45862.407617	3896.927146	24199.166491
23.535000	-0.004079	-0.000316	-0.001981	0.000928	7017.376065	45881.898730	3883.169247	24246.849099
24.035000	0.000162	0.000833	-0.003672	0.001777	7051.220756	45911.686633	3876.056002	24204.749607
24.535500	-0.000299	0.000882	0.001559	0.002279	7041.594457	45866.717512	3889.331243	24179.897953
25.035500	0.000534	-0.000114	0.002799	0.001804	7054.677568	45814.905964	3894.181206	24203.370618
25.536000	0.001072	0.000711	0.001052	0.001965	7058.459489	45880.897044	3888.786686	24195.437066
26.037000	-0.001469	-0.000158	0.001568	0.000985	7042.823394	45891.944957	3893.015145	24244.012527
26.537000	-0.002262	-0.000473	0.002623	0.000770	7037.053573	45881.990705	3896.615732	24254.701165
27.037000	0.001242	0.000522	-0.000360	0.001946	7060.365074	45864.021484	3884.863030	24196.380214
27.534500	-0.000098	0.000021	0.005418	0.001212	7054.277113	45887.103174	3903.314625	24232.719144
28.037500	0.002791	0.000507	0.005147	-0.001667	7112.480665	46222.766859	3910.783094	24376.000364
28.535500	0.000735	0.000080	0.002458	-0.000768	7082.576446	46090.226258	3900.521192	24331.196143
29.068000	-0.000368	0.000044	-0.001282	0.000577	7057.938378	45952.594080	3886.121289	24264.277755
29.536000	0.001052	-0.000210	-0.000508	-0.000891	7087.007791	46073.486178	3892.446471	24337.295228
30.036000	0.001382	0.001214	0.004890	-0.000156	7082.929420	46142.416068	3905.717960	24300.726872
30.536000	0.000957	0.000536	-0.000043	-0.000334	7080.431477	46092.412516	3892.190124	24309.580293
31.036500	0.001839	0.000938	0.005218	0.002516	7060.626939	45848.678875	3899.030032	24168.163770
31.537000	-0.000883	0.000136	0.000570	0.002948	7029.079741	45726.405255	3884.659513	24146.808752
32.034500	0.001056	-0.000503	-0.001006	0.001435	7063.617237	45812.915245	3884.482641	24221.668093
32.540500	0.001762	0.000058	0.004475	-0.000732	7092.578100	46084.435634	3906.178445	24329.403277
33.037500	-0.000420	0.000219	0.003049	0.001520	7047.970173	45876.201857	3895.695725	24217.475125
33.535000	0.002009	0.001197	0.003519	0.000380	7083.838634	46087.085501	3900.272728	24274.031065
34.036000	0.002113	0.000533	0.005936	-0.000222	7090.969806	46080.906251	3908.900201	24303.977295
34.535500	0.002051	0.000111	0.002001	-0.000316	7091.297038	46048.215611	3897.933773	24308.671047
35.036000	-0.001334	-0.000183	0.002849	0.004392	7010.236395	45552.192370	3887.009502	24075.578126
35.536500	-0.000115	-0.000174	0.001319	0.002172	7044.505356	45772.558491	3888.955966	24185.196865
36.037000	0.000705	0.000288	-0.001661	0.002827	7046.147545	45753.391533	3878.740110	24152.778432
36.537000	0.000566	0.000124	0.001739	0.002267	7050.361888	45792.611083	3889.871980	24180.477336
37.034500	-0.001880	0.000118	-0.002269	0.002339	7025.208194	45784.815513	3878.404717	24176.891696
37.537500	-0.000047	-0.000141	0.002796	0.002587	7041.023790	45734.634311	3891.954725	24164.620183
38.035500	-0.001008	-0.000831	-0.002400	0.001749	7039.793668	45749.273223	3879.687384	24206.109160
38.535500	-0.001279	-0.000622	-0.001692	0.001873	7035.849193	45757.716826	3881.324895	24199.966968
39.036000	0.000746	-0.000118	0.005250	0.002779	7047.038330	45717.918914	3898.371571	24155.135910
39.536000	-0.000060	0.000372	-0.001967	0.002342	7043.349347	45809.762769	3879.240566	24176.759191
40.036500	0.000352	0.000289	-0.001740	0.002705	7043.832364	45765.589502	3878.859642	24158.809297
40.536500	-0.000989	-0.000592	-0.001450	0.001763	7039.850981	45771.570063	3882.313413	24205.424828
41.037000	-0.001047	0.000254	0.002552	0.002864	7028.280757	45746.304513	3890.481605	24150.931179
41.537000	-0.000737	0.000657	0.001261	0.002760	7032.406461	45796.528378	3887.131892	24156.071810
42.038000	-0.001368	-0.000544	-0.000214	0.001721	7036.484635	45780.512485	3885.904825	24207.508481
42.534500	0.000040	0.000459	0.001164	0.002981	7037.958835	45755.062986	3886.236845	24145.154318
43.035000	-0.003529	-0.000339	0.003612	0.002275	7009.463746	45745.969043	3895.151391	24180.075367
43.535500	0.000093	-0.000247	0.000156	0.002692	7041.375677	45713.758142	3884.216223	24159.450316
44.036000	-0.000551	0.000493	-0.003094	0.003159	7030.285505	45740.795452	3873.810741	24136.357356
44.536000	-0.000414	0.000024	0.001792	0.002524	7037.996385	45757.318898	3889.297298	24167.779307
45.036500	0.000111	0.000636	0.002220	0.003053	7037.953153	45765.488024	3889.012685	24141.630339
45.536500	0.001328	0.000144	-0.002169	-0.000259	7083.410609	46045.753978	3885.974403	24305.815673
46.037000	0.001369	0.000481	0.001560	0.000138	7079.828447	46039.800481	3895.393021	24286.091863
46.545500	0.002659	0.000650	0.002435	0.000138	7092.851378	46056.673991	3897.877277	24286.099142
47.035000	-0.000514	0.000217	0.003000	0.003685	7025.420255	45661.457534	3889.430050	24110.443137
47.535000	0.000646	-0.000123	0.001024	-0.000244	7076.391150	46017.635350	3894.955825	24305.076168
48.035500	0.001199	0.000534	0.000464	-0.000150	7081.021019	46073.803905	3893.103503	24300.414424
48.535500	0.000869	-0.000001	0.000494	-0.000320	7079.398396	46037.422894	3893.667220	24308.854748
49.035500	-0.001203	0.000352	0.001167	0.003780	7017.618314	45665.435255	3883.999691	24105.740815
49.536500	-0.000851	0.000908	0.001927	0.003449	7024.405257	45753.139156	3887.067494	24122.045625
50.036500	0.002004	0.001015	0.000788	0.000339	7084.204455	46073.049450	3892.635581	24276.103291
50.537000	0.001255	-0.000089	0.001529	-0.000329	7083.386893	46029.555473	3896.629176	24309.317024
51.037000	-0.000022	-0.000001	0.000394	0.004772	7019.495638	45532.629149	3879.048977	24056.882051
51.537500	0.002315	-0.000095	0.003762	-0.000770	7098.555634	46072.906169	3904.245288	24331.279974
52.035000	0.001419	0.000287	0.004189	-0.000666	7088.439006	46100.705313	3905.167619	24326.085566
52.535500	-0.003392	-0.002219	0.003106	0.001007	7023.416198	45685.342698	3897.311753	24242.887810
53.035000	-0.036271	-0.010396	0.014259	0.282982	4794.365447	24754.091492	3324.792653	13949.950172
53.535500	-0.017082	-0.008863	-0.012101	0.003918	6861.305783	44750.704477	3846.895996	24098.916873
54.036000	-0.029519	-0.089447	-0.025869	-0.251089	9973.890085	65517.660227	4725.963518	41202.254690
54.536000	-0.071394	-0.149050	-0.036963	-0.310811	10279.003482	65535.000000	4970.338386	46879.706713
55.036500	-0.097187	-0.302000	-0.108468	-0.463762	12856.839465	65535.000000	5446.202961	65535.000000
55.537000	-0.017781	-0.150846	-0.011081	-0.312608	11310.267365	65535.000000	5122.154057	47062.888320
56.037500	-0.026427	-0.131856	-0.007352	-0.293617	10779.462038	65535.000000	5037.248756	45164.432966
56.534500	-0.024479	-0.096391	-0.014033	-0.258152	10179.438039	65535.000000	4817.704459	41833.755360
57.035500	-0.016607	-0.098810	-0.012441	-0.260571	10358.752874	65535.000000	4837.689198	42052.366804
57.535500	-0.003322	-0.097710	-0.007861	-0.259471	10576.663614	65535.000000	4855.185033	41952.816083
58.036000	0.002657	-0.074119	-0.006200	-0.234803	10244.935465	65379.353557	4742.096969	39784.848560
58.536000	0.003452	-0.041915	0.001992	-0.187693	9481.792327	63265.761524	4563.919081	35971.569182
59.036500	0.002493	-0.025994	0.001629	-0.151607	8927.365660	60519.338181	4410.926849	33317.987076
59.536500	0.006642	-0.017518	0.000085	-0.112365	8444.005936	56567.281872	4254.277827	30671.834378
60.036500	0.004536	-0.014383	0.006913	-0.079226	7996.327958	52973.731855	4160.755950	28616.128902
60.537000	0.015105	-0.009741	0.014615	-0.051528	7791.533037	50376.055308	4093.378105	27014.287042
61.037500	0.018036	-0.005036	0.016681	-0.008905	7346.900399	46392.939804	3965.885180	24740.493650
61.535000	0.017948	-0.004405	0.018783	-0.002287	7275.704944	45795.191296	3952.410156	24407.028052
62.035500	0.016505	-0.005241	0.021708	0.015584	7076.707611	43979.622052	3908.803580	23531.521690
62.536000	0.025911	-0.002189	0.030951	0.032946	6997.264898	42642.677205	3885.736681	22714.763763
63.036000	0.034029	0.000985	0.046231	0.060035	6813.624502	40504.438816	3852.949046	21503.900848
63.536000	0.046577	0.006788	0.058298	0.090613	6646.371605	38410.074569	3803.308803	20224.808721
64.036500	0.061257	0.014542	0.065588	0.119885	6516.001426	36685.458969	3747.049384	19081.934310
64.536500	0.073673	0.020021	0.080818	0.131716	6521.138225	36192.435841	3755.561077	18641.391694
65.037000	0.077220	0.021924	0.087986	0.147886	6411.698751	35111.140384	3733.156615	18058.407347
65.537000	0.087093	0.026325	0.090547	0.155938	6427.292256	34840.097501	3719.716448	17776.107965
66.043000	0.096634	0.029488	0.105822	0.167114	6413.291136	34253.177617	3729.734552	17392.861215
66.543500	0.099205	0.032955	0.105936	0.178065	6342.341142	33714.654009	3703.454308	17026.764002
67.035500	0.103173	0.036926	0.113883	0.193169	6250.149269	32930.529070	3686.453679	16536.716913
67.535500	0.112312	0.040936	0.122244	0.199923	6269.691103	32740.351197	3690.247421	16323.051477
68.036000	0.121737	0.045316	0.129588	0.212310	6245.433183	32192.210894	3678.392333	15939.710936
68.536000	0.128304	0.048878	0.135642	0.223240	6210.006483	31696.657358	3667.062040	15610.433251
69.036500	0.133973	0.053074	0.140550	0.238175	6135.929923	30989.213531	3644.154936	15173.677487
69.537000	0.141180	0.055964	0.151327	0.245044	6138.604155	30731.561833	3653.019013	14977.789250
70.037000	0.149184	0.061714	0.162022	0.257067	6106.932992	30330.011457	3649.997548	14642.269054
70.537000	0.155687	0.066983	0.164520	0.269657	6059.522271	29868.740931	3627.335534	14300.767897
71.035000	0.162033	0.070807	0.175899	0.283307	6003.512356	29261.673166	3622.308563	13941.522121
71.535500	0.172575	0.075687	0.179891	0.292311	6015.226458	29010.926278	3611.304351	13710.650987
72.035500	0.182908	0.080742	0.194307	0.303622	6007.772551	28635.109180	3618.106922	13427.340925
72.536000	0.187296	0.085917	0.201493	0.315673	5949.934028	28228.295986	3607.471017	13133.506374
73.036000	0.190129	0.090034	0.198476	0.326804	5888.436712	27819.827084	3577.210690	12869.242282
73.536000	0.201364	0.096518	0.216229	0.333880	5919.117681	27785.665126	3599.955570	12704.747753
74.036000	0.206213	0.098715	0.216122	0.340016	5909.591780	27559.456854	3586.589784	12564.247005
74.537000	0.209107	0.102172	0.222357	0.348706	5867.054315	27262.152906	3581.386027	12368.640024
75.040000	0.214158	0.106492	0.223447	0.358035	5836.015184	26980.839123	3564.133940	12162.957624
75.534500	0.219663	0.109191	0.226060	0.359937	5862.133925	27025.405063	3565.608867	12121.561055
76.035000	0.224894	0.113647	0.235287	0.367596	5844.503309	26846.862453	3568.873596	11956.689104
76.535500	0.230224	0.116525	0.244190	0.373036	5843.712428	26705.052529	3576.121488	11841.340063
77.035500	0.232712	0.119131	0.247143	0.381995	5797.227968	26356.939213	3563.586748	11654.509585
77.535500	0.238625	0.121585	0.254467	0.383121	5831.543472	26429.235411	3576.524205	11631.278406
78.036000	0.240709	0.124155	0.250420	0.386455	5822.543525	26387.589073	3561.136747	11562.908868
78.536500	0.243680	0.125908	0.257548	0.390364	5815.814193	26270.490106	3567.815810	11483.412567
79.036500	0.242128	0.127307	0.259878	0.397935	5751.063428	25938.369245	3556.967641	11331.455554
79.537500	0.248953	0.129298	0.261188	0.397476	5802.650892	26069.643057	3560.614877	11340.592484
80.037000	0.251190	0.132191	0.270842	0.401288	5791.415607	26020.278860	3572.764717	11264.984013
80.535000	0.251063	0.132491	0.263680	0.402740	5780.206460	25958.607231	3554.906533	11236.375170
81.035000	0.249981	0.132984	0.268405	0.409876	5722.483059	25606.076629	3549.971896	11097.099788
81.536000	0.253669	0.133711	0.271947	0.407711	5763.481402	25758.914562	3561.699190	11139.112859
82.036000	0.253347	0.134266	0.268898	0.409758	5746.822898	25679.911656	3551.219326	11099.384983
82.536000	0.255218	0.134990	0.272447	0.415242	5721.584221	25429.775155	3547.271107	10993.861359
83.036500	0.259388	0.137101	0.271828	0.414683	5754.659622	25569.719165	3547.149991	11004.556075
83.536500	0.260112	0.137300	0.281384	0.416457	5747.282792	25487.054015	3563.128139	10970.661074
84.037000	0.262517	0.139942	0.282022	0.419892	5740.059079	25445.526019	3557.350819	10905.421697
84.539500	0.258338	0.137270	0.274868	0.422356	5693.932287	25178.569804	3537.771947	10858.952480
85.034500	0.260186	0.137722	0.277400	0.424992	5688.503335	25065.930988	3537.562248	10809.517434
85.535000	0.262039	0.139874	0.273849	0.422508	5718.493969	25305.670229	3535.418342	10856.101619
86.035500	0.261335	0.139882	0.281115	0.423412	5707.338628	25259.114487	3548.287494	10839.122247
86.535500	0.261326	0.139214	0.279657	0.427763	5677.306244	25000.325311	3536.528424	10757.886957
87.036000	0.263678	0.138617	0.280631	0.424558	5715.640137	25134.414043	3544.971606	10817.646845
87.536000	0.266804	0.142113	0.286991	0.428133	5712.513867	25130.321533	3550.640806	10751.004328
88.036000	0.266971	0.140299	0.283757	0.427422	5718.614674	25073.495807	3545.502943	10764.212520
88.536500	0.267880	0.141503	0.284988	0.428924	5714.499000	25058.205731	3544.953944	10736.350309
89.039500	0.266544	0.139902	0.278423	0.427990	5711.712017	25023.971135	3533.596678	10753.676872
89.534500	0.268775	0.141075	0.283397	0.430751	5708.036670	24942.574896	3538.042048	10702.566153
90.034500	0.268493	0.142073	0.283211	0.431651	5699.862289	24947.613024	3535.858687	10685.986373
90.535500	0.266511	0.140039	0.279913	0.436013	5656.373958	24622.827237	3520.604224	10606.074448
91.035500	0.267375	0.138984	0.283130	0.435773	5663.895308	24581.823421	3527.454667	10610.456776
91.536000	0.269265	0.139355	0.288377	0.432560	5698.923380	24762.866207	3544.452060	10669.272255
92.036500	0.269705	0.140822	0.288368	0.433426	5695.977648	24793.371175	3542.678026	10653.375334
92.536000	0.266161	0.139900	0.284898	0.438373	5637.986257	24497.234239	3525.799942	10563.174450
93.036500	0.270297	0.140347	0.289959	0.434566	5692.198890	24711.447588	3543.591337	10632.487587
93.537000	0.270358	0.139251	0.291288	0.434658	5691.992461	24651.469515	3546.103170	10630.818352
94.037000	0.270563	0.139011	0.293066	0.434931	5691.519474	24625.539653	3549.166102	10625.818681
94.537500	0.268050	0.138734	0.292794	0.439341	5644.223629	24390.581514	3539.669265	10545.653958
95.035000	0.267531	0.138903	0.288505	0.440226	5634.722532	24354.899587	3529.290602	10529.662796
95.535000	0.270234	0.139469	0.289329	0.436952	5675.378277	24546.912190	3537.499143	10588.974333
96.035000	0.271895	0.138662	0.291152	0.436981	5686.579815	24504.990185	3541.118355	10588.457517
96.560500	0.268138	0.138319	0.285078	0.443937	5613.831452	24142.135051	3515.176343	10462.964235
97.036000	0.269447	0.137114	0.290883	0.441856	5636.657663	24185.367222	3530.784017	10500.294719
97.536500	0.272837	0.137027	0.294272	0.437274	5691.041843	24408.507412	3546.849834	10583.121516
98.037000	0.270807	0.138607	0.290321	0.438433	5669.165806	24429.550794	3536.516632	10562.094496
98.565500	0.268193	0.136192	0.288691	0.442827	5621.648957	24092.041631	3524.487908	10482.841095
99.037500	0.272432	0.138053	0.299205	0.439244	5674.736016	24361.470355	3552.899063	10547.403297
