sample name	sample
index	1441
start time	 05-10-2021  01:00:48 PM
880	0.247366
Peak Time (s)	91.037
Peak Height 	0.2474
calc peak height	90,93
Baseline Time (s)	11.037
Baseline Value 	-0.005882
subtract baseline	10,4
Abs	0.159740
Peak Time (s)	91.537
Peak Height 	0.1597
calc peak height	90,93
Baseline Time (s)	10.534
Baseline Value 	7.7988E-4
subtract baseline	10,3
PK_550	0.095290
Peak Time (s)	90.036
Peak Height 	0.09529
calc peak height	90,93
Baseline Time (s)	11.537
Baseline Value 	4.1772E-4
subtract baseline	10,2
PK_880	0.149867
Peak Time (s)	90.537
Peak Height 	0.1499
calc peak height	90,93
Baseline Time (s)	8.536
Baseline Value 	0.002098
subtract baseline	10,1


Time (s)	A880-A510	A880-A775	A880-A975	A880	I510	I775	I975	I880	
0.036500	0.002050	0.000999	-0.000229	0.003997	6490.397373	43925.808378	3939.207487	22549.424718
0.537000	-0.001345	-0.000685	-0.002904	0.004744	6455.842831	43697.025258	3930.386239	22515.587022
1.037000	-0.003013	-0.000368	-0.000043	0.006479	6427.713809	43564.301770	3933.283729	22437.254567
1.534500	-0.001718	-0.000575	-0.005395	0.002493	6471.477197	43919.255828	3929.770382	22617.769740
2.037500	0.001687	0.001337	0.000928	0.003473	6491.745829	44007.248727	3943.564946	22573.210794
2.534500	0.000916	0.000448	0.004416	0.002219	6495.802016	44041.808594	3955.952577	22630.217797
3.035500	-0.002937	0.000280	-0.003324	0.005088	6439.812309	43755.355938	3928.426486	22500.031548
3.535500	0.000973	0.000095	0.005932	0.001625	6501.268666	44064.695551	3961.508562	22657.292919
4.036000	-0.000308	-0.000463	-0.000766	0.001081	6495.077441	44063.336294	3945.381584	22682.099780
4.536500	0.000562	-0.000220	0.002461	0.000656	6505.962815	44126.637482	3954.924468	22701.507202
5.037000	-0.003084	-0.000413	-0.000317	0.005103	6438.466768	43688.922471	3936.121712	22499.349951
5.534500	0.000120	-0.000620	-0.000820	0.000483	6503.698129	44105.064994	3946.798277	22709.413503
6.037500	0.003091	0.000336	0.003674	0.000756	6526.464605	44169.943847	3957.849001	22696.955731
6.534500	0.000322	-0.000302	-0.000073	0.000170	6508.033770	44164.973542	3949.562929	22723.735400
7.034500	0.000108	-0.000071	0.002580	0.000380	6504.472408	44167.021884	3955.962957	22714.150569
7.535500	0.001012	0.000616	0.000720	0.000772	6508.777762	44194.980166	3950.063316	22696.216950
8.035500	0.000266	-0.000584	-0.000419	-0.000098	6509.815686	44163.621060	3949.359325	22735.992775
8.536000	0.000000	-0.000120	0.001943	0.000577	6501.900303	44143.575665	3953.773211	22705.128815
9.036500	0.002614	0.000286	-0.000263	0.000426	6525.219116	44196.500758	3948.399726	22712.035089
9.537000	0.002098	0.000429	0.001899	0.000111	6523.519861	44240.032839	3954.879316	22726.431705
10.037000	-0.001163	0.000104	-0.003158	-0.000282	6499.340946	44246.455658	3942.707459	22744.409576
10.534500	-0.000668	-0.000768	0.000000	-0.000306	6503.707615	44165.905592	3950.998644	22745.529024
11.037000	0.001975	-0.000040	-0.000923	0.000000	6523.416894	44205.963204	3947.789274	22731.509439
11.537500	-0.000241	0.000000	0.000916	-0.000188	6506.312330	44227.685784	3953.087552	22740.126033
12.035000	0.001518	0.000268	-0.001365	0.000517	6515.186384	44186.152862	3945.289232	22707.861460
12.535500	0.001155	-0.000054	0.002465	-0.000083	6517.195085	44212.533936	3956.877611	22735.317074
13.035500	-0.000128	-0.000253	-0.001452	-0.000107	6506.579778	44195.957004	3946.688436	22736.416008
13.536000	0.000441	-0.000227	0.001376	0.000361	6507.424564	44153.926453	3952.853066	22714.992014
14.036000	-0.001105	-0.000270	0.001316	0.002437	6477.051854	43953.277398	3947.270485	22620.286256
14.537000	-0.000596	-0.000575	-0.000574	0.001815	6486.508286	43983.313301	3943.973446	22648.631501
15.037000	0.001739	0.000328	-0.001425	0.000452	6517.607547	44198.009375	3945.303520	22710.856832
15.537000	0.000344	-0.000107	-0.002155	0.000467	6505.725654	44155.330260	3943.367952	22710.173791
16.037000	0.000519	0.000253	-0.000840	0.000697	6505.254939	44167.590797	3946.188496	22699.633233
16.535000	-0.001730	-0.000380	0.001786	0.000048	6491.816928	44169.189411	3954.749111	22729.315087
17.035500	0.002103	0.000858	0.000138	-0.002817	6548.412036	44560.547367	3957.947653	22860.839953
17.540500	0.001160	0.000382	-0.002411	0.001291	6505.655395	44123.583370	3940.565808	22672.543316
18.036000	-0.002549	0.000231	0.000506	0.001615	6471.861842	44078.489974	3947.304517	22657.746144
18.536500	0.000580	0.000943	-0.000445	0.002146	6493.591729	44095.562887	3943.446687	22633.538036
19.036000	-0.000706	0.000936	-0.002949	0.001941	6484.531602	44114.381283	3937.491153	22642.877171
19.536000	0.001067	0.000437	-0.000148	0.001624	6502.063302	44097.112702	3945.577752	22657.330848
20.037000	-0.001242	0.000599	0.000032	0.001347	6485.021635	44138.767482	3946.766122	22669.944887
20.537500	-0.000897	0.000222	-0.001288	0.001205	6489.098722	44116.482361	3943.702742	22676.445137
21.037500	-0.000086	0.000127	0.005864	0.001546	6493.041417	44075.169936	3961.539513	22660.886952
21.538000	-0.000141	-0.000384	-0.000496	0.001436	6493.505758	44037.202799	3945.160990	22665.926026
22.038500	-0.000423	0.000336	0.004846	0.001490	6490.683004	44100.300372	3959.002065	22663.449309
22.538500	-0.000411	-0.000678	0.003983	0.001156	6493.584367	44035.926674	3957.609024	22678.688516
23.036000	-0.000077	0.000601	0.001910	0.002028	6489.073721	44074.380068	3949.889681	22638.919879
23.536000	0.000302	0.000544	-0.000515	0.002032	6492.217383	44068.590159	3943.561641	22638.731695
24.036500	0.003299	0.001583	0.001780	0.003218	6507.440770	44054.700960	3946.447409	22584.805369
24.537000	-0.000414	0.000694	0.000997	0.001946	6486.936806	44090.961285	3947.721056	22642.660889
25.037000	0.000412	-0.000200	-0.000221	0.001708	6495.860861	44028.828154	3945.167600	22653.500293
25.537500	0.000404	-0.000749	-0.003902	0.000940	6502.247793	44049.599349	3937.614748	22688.545277
26.035000	0.000199	0.000612	0.000020	0.002320	6488.937107	44047.764069	3944.202596	22625.628787
26.535000	0.000435	0.000783	0.005661	0.002239	6491.603631	44071.690230	3959.178248	22629.335620
27.035000	-0.002058	0.000350	0.000272	0.005437	6444.196172	43729.173774	3936.781154	22484.264215
27.539000	0.002019	-0.000249	0.002219	-0.000543	6528.388273	44237.781194	3957.438935	22756.386475
28.036000	-0.000598	-0.000314	-0.000039	0.000088	6500.990644	44171.608087	3949.868043	22727.502096
28.536500	-0.000757	-0.000254	0.000929	0.000435	6496.733019	44144.402648	3951.490303	22711.630325
29.036500	-0.003789	-0.001199	-0.005357	0.004361	6438.771915	43684.787682	3925.081730	22532.927960
29.537000	0.000945	-0.000177	0.000571	0.000488	6510.605924	44146.647848	3950.414856	22709.199870
30.037000	0.001471	0.000773	0.000281	0.001031	6510.459774	44185.261242	3948.241049	22684.394782
30.537000	-0.000046	0.000362	0.002346	0.003333	6478.412316	43928.356034	3947.621956	22579.562799
31.035000	0.000944	-0.000642	0.002202	0.003486	6485.414333	43819.409859	3946.847044	22572.639293
31.535500	0.000664	-0.001110	-0.000644	-0.000218	6514.184331	44125.119068	3949.085987	22741.492237
32.036000	0.000076	0.000054	0.000301	0.000529	6502.943859	44164.736455	3949.602607	22707.330422
32.536000	0.001796	0.000448	0.006617	0.000958	6513.821723	44161.437731	3965.084344	22687.741883
33.036500	-0.002693	0.000430	0.002171	0.006158	6432.990879	43668.994704	3939.826649	22451.699735
33.536500	-0.000558	0.000850	0.002098	0.001392	6490.374893	44158.341927	3952.044036	22667.915834
34.037000	0.000383	0.000847	-0.001831	0.002714	6487.177425	44032.729922	3938.381777	22607.687676
34.537000	-0.000631	0.000222	0.001750	0.002318	6482.003124	44011.088073	3948.712586	22625.704560
35.034500	0.000483	-0.000186	0.000094	0.002505	6489.766773	43954.841295	3943.915212	22617.205487
35.538000	-0.001667	0.000798	0.002582	0.002562	6471.317015	44042.508483	3950.250103	22614.598641
36.035500	-0.000140	-0.000567	-0.000183	0.001639	6491.806058	44000.684129	3945.446566	22656.629851
36.535500	0.001276	0.000418	0.000726	0.002343	6497.781466	44027.264074	3945.980606	22624.585379
37.036000	-0.001903	0.000030	-0.000225	0.002731	6467.941924	43953.865611	3942.498295	22606.917642
37.536000	0.001621	0.000361	0.004416	0.002334	6500.754620	44022.737601	3955.653178	22624.998025
38.036000	0.000720	0.000398	-0.001714	0.002272	6493.713125	44032.100712	3939.828164	22627.810866
38.537000	-0.001366	-0.000228	0.003828	0.001890	6479.447423	44009.025834	3955.274665	22645.215456
39.037000	0.003080	0.000106	-0.000921	0.002514	6511.521710	43981.626137	3941.256493	22616.805236
39.537500	0.000624	0.000285	0.003423	0.001720	6497.537240	44073.598770	3954.655727	22652.937331
40.037500	-0.000197	0.000548	0.002591	0.002593	6483.342390	44015.911527	3950.192024	22613.216527
40.535000	-0.000908	0.000036	-0.000250	0.001852	6483.588543	44037.576704	3944.719508	22646.951138
41.035500	-0.000435	0.000036	-0.001344	0.001648	6489.259941	44056.869823	3942.404377	22656.227944
41.535500	-0.001934	0.000681	0.006153	0.002198	6472.133341	44065.935294	3960.580292	22631.193971
42.035500	-0.000879	-0.000323	-0.001229	0.001579	6486.114550	44029.428983	3942.883418	22659.376122
42.536500	-0.000055	0.000331	0.001745	0.002190	6487.897009	44033.533925	3949.036481	22631.543629
43.036500	-0.001959	0.000290	-0.001101	0.002303	6471.042502	44018.877161	3941.336589	22626.391542
43.537000	0.001634	-0.000203	0.003362	-0.003130	6547.081516	44488.895083	3967.289032	22875.242288
44.039500	0.000371	0.000282	0.003738	0.001004	6501.434431	44141.269252	3957.365673	22685.638616
44.537000	0.002109	0.000788	-0.000499	0.001037	6515.792725	44186.169855	3946.193609	22684.134858
45.035000	0.001283	0.000071	0.006114	0.000573	6512.737998	44162.091533	3964.770141	22705.307649
45.535000	0.001514	0.000488	0.001098	0.000975	6511.293542	44163.596121	3950.520652	22686.950311
46.035000	-0.000682	-0.000034	0.001051	0.001116	6491.648939	44100.684768	3950.028080	22680.500514
46.535500	0.001276	0.000461	0.000833	0.000553	6512.849414	44201.058396	3950.932302	22706.239845
47.039000	-0.001582	0.000172	-0.001920	0.002726	6470.660821	43967.760376	3938.121814	22607.158800
47.536000	-0.001315	0.000017	-0.000763	0.002036	6478.649872	44018.443674	3942.908585	22638.571457
48.040000	-0.000535	-0.000587	-0.002816	0.001866	6486.594059	43977.345997	3938.026243	22646.285847
48.539500	-0.000311	-0.000761	0.005036	-0.000306	6506.715997	44166.655469	3964.246464	22745.532484
49.038500	-0.001198	0.000326	0.001803	0.002632	6474.654902	43991.302982	3948.033382	22611.446704
49.537000	0.002633	0.000627	0.001905	-0.002179	6547.491261	44477.359813	3960.921469	22831.484118
50.035000	0.001607	0.000887	0.002837	0.002749	6497.145481	44033.224530	3950.427026	22606.095207
50.535500	-0.003329	-0.007436	0.007254	0.017037	6339.248173	41948.439461	3924.917717	21966.976923
51.035500	0.025515	-0.023296	0.093101	0.438151	4264.272146	17202.177175	3328.032595	10104.632608
51.538000	-0.008386	-0.029126	-0.020544	-0.080734	7169.534383	49417.270979	4118.914835	26791.583552
52.036000	-0.021442	-0.093962	-0.039685	-0.273224	9379.164352	65298.379562	4758.429067	40139.670534
52.536500	-0.008472	-0.084735	-0.025368	-0.262003	9405.507654	65012.674440	4772.329272	39188.734895
53.039500	-0.004463	-0.047749	-0.011204	-0.205740	8662.408439	62317.674952	4591.524287	34774.258617
53.537000	-0.002694	-0.027244	-0.005722	-0.134857	7807.309453	55814.325333	4343.199633	29967.996809
54.037000	-0.010430	-0.025368	-0.010618	-0.142307	7804.058871	56962.136747	4352.213745	30437.089039
54.535000	-0.015443	-0.035890	-0.015460	-0.182954	8227.642817	60842.278196	4484.294930	33142.890031
55.035000	-0.000467	-0.032378	0.005291	-0.175664	8323.652332	60340.713191	4536.835745	32638.746409
55.535500	0.008071	-0.018456	0.019679	-0.108015	7627.174883	53661.464493	4338.141712	28343.216300
56.035500	0.013139	-0.007342	0.023703	-0.034527	6930.900898	46875.654514	4113.041497	24375.933137
56.536000	0.024849	-0.000003	0.033781	0.001291	6710.569736	44087.083358	4038.362346	22672.542140
57.036000	0.035666	0.010621	0.042285	0.035891	6504.853941	41876.969330	3967.030051	21155.161483
57.537000	0.051869	0.024795	0.051781	0.058102	6454.658659	41163.055571	3933.798542	20242.968245
58.037000	0.051673	0.023455	0.060152	0.112652	6027.778725	36547.442139	3820.968564	18190.911524
58.537000	0.056944	0.023338	0.069379	0.102154	6145.264859	37360.462372	3867.699680	18566.053442
59.037500	0.065958	0.030902	0.068004	0.058823	6567.317884	41640.061140	3974.446466	20214.126400
59.534500	0.072905	0.033791	0.080203	0.086903	6390.786574	39459.188845	3932.824449	19127.473133
60.035500	0.082045	0.043845	0.089886	0.114422	6244.081516	38019.644653	3887.855421	18128.541957
60.535000	0.092794	0.050194	0.098885	0.142830	6108.857945	36282.335138	3840.976904	17161.667557
61.035500	0.094892	0.050344	0.108839	0.161350	5987.943506	34901.426463	3820.943398	16564.545679
61.536000	0.101461	0.053200	0.120934	0.201584	5753.923733	32265.761520	3757.851421	15351.824772
62.039000	0.106108	0.063446	0.119556	0.215034	5695.662225	32050.155644	3726.211737	14970.833827
62.536000	0.107300	0.065045	0.122278	0.206535	5759.861196	32734.924076	3750.052429	15210.184360
63.037000	0.112080	0.068876	0.123876	0.203668	5811.547279	33198.069561	3759.714708	15292.017020
63.540000	0.113358	0.071356	0.122556	0.204425	5815.107059	33318.307436	3755.209159	15270.362943
64.037500	0.115359	0.072982	0.124729	0.207335	5808.899677	33228.567534	3753.612513	15187.453904
64.534500	0.118266	0.074071	0.127399	0.207659	5826.552280	33282.007542	3758.696582	15178.270980
65.035500	0.117823	0.075348	0.125826	0.209985	5807.634376	33208.793393	3750.264159	15112.454206
65.535500	0.119275	0.075686	0.131055	0.210836	5811.727817	33173.047195	3759.737843	15088.467252
66.036500	0.120267	0.076831	0.131990	0.211618	5813.162095	33198.375220	3760.069931	15066.464296
66.536500	0.123457	0.078003	0.131451	0.212407	5829.583686	33225.036576	3757.185747	15044.307327
67.036000	0.126412	0.079367	0.136358	0.214148	5837.925463	33198.801713	3764.075851	14995.552404
67.536500	0.126151	0.081305	0.127215	0.212961	5844.307849	33417.339001	3746.854266	15028.783947
68.037000	0.130130	0.081799	0.133880	0.213600	5867.415491	33407.149383	3759.871061	15010.881399
68.535000	0.132202	0.083845	0.136525	0.214001	5879.053305	33522.781940	3764.764970	14999.680850
69.035000	0.132568	0.086213	0.138090	0.216964	5860.991305	33480.867149	3761.712331	14917.113167
69.540000	0.134259	0.085301	0.136643	0.216398	5876.677945	33456.556940	3759.795096	14932.849996
70.035500	0.137360	0.088987	0.140188	0.220384	5870.519082	33435.500337	3758.834981	14822.521561
70.538500	0.136846	0.088376	0.138926	0.221523	5859.046045	33312.870923	3753.634908	14791.200740
71.036000	0.134364	0.088219	0.140648	0.224087	5824.290460	33123.127305	3751.814896	14720.941750
71.538500	0.137957	0.088932	0.141788	0.225049	5842.359773	33105.831551	3752.197988	14694.691170
72.036000	0.137152	0.088487	0.142375	0.225987	5830.376099	33009.935653	3751.442235	14669.152594
72.537000	0.139901	0.089399	0.142761	0.228847	5829.621385	32875.389154	3746.126674	14591.649288
73.037500	0.141854	0.091004	0.143446	0.233150	5813.537105	32689.957024	3738.403803	14475.965780
73.535000	0.141938	0.092519	0.145945	0.234612	5804.154094	32693.577979	3740.608714	14436.918776
74.035000	0.140118	0.092113	0.149628	0.234830	5790.322099	32650.906829	3748.022651	14431.106599
74.535000	0.140849	0.091936	0.148561	0.236202	5785.986656	32545.057997	3742.797927	14394.596297
75.038500	0.139993	0.091794	0.151183	0.237659	5770.393052	32436.296724	3745.287452	14355.955203
75.536000	0.140879	0.093047	0.154856	0.239859	5761.575719	32372.060264	3748.448950	14297.879527
76.036000	0.143462	0.092813	0.152206	0.242014	5764.447585	32210.604355	3738.183363	14241.260417
76.536000	0.147443	0.093173	0.149376	0.243876	5778.699304	32109.545835	3728.265030	14192.556933
77.037000	0.144068	0.092713	0.153150	0.244626	5751.010857	32028.401057	3734.642887	14172.986776
77.536500	0.147074	0.093760	0.155660	0.245898	5762.614136	32013.271529	3737.268245	14139.892733
78.034000	0.145770	0.092769	0.157758	0.246104	5752.510849	31933.246485	3741.292342	14134.542862
78.535000	0.147218	0.093267	0.154595	0.246682	5758.328793	31927.958050	3733.351062	14119.554797
79.035000	0.150015	0.094429	0.155007	0.248291	5766.296301	31898.127739	3730.824425	14077.905040
79.538000	0.148934	0.094314	0.157201	0.248433	5758.096820	31881.007529	3735.160333	14074.252320
80.036000	0.147709	0.095657	0.154397	0.249422	5743.309908	31904.660879	3727.161490	14048.739795
80.536000	0.148713	0.096448	0.160006	0.249775	5747.651379	31933.871813	3738.263907	14039.645339
81.036500	0.146176	0.094956	0.152883	0.248994	5735.962476	31886.439484	3724.884142	14059.775685
81.537000	0.150272	0.096796	0.158634	0.250400	5753.883613	31915.341461	3734.029509	14023.553917
82.036500	0.148896	0.095879	0.163033	0.250017	5747.250578	31879.715326	3744.201934	14033.396449
82.537000	0.149830	0.096762	0.155751	0.250528	5750.082423	31904.583407	3727.681862	14020.273386
83.037000	0.145596	0.095099	0.158576	0.248849	5733.066004	31905.617448	3737.192590	14063.500573
83.535000	0.148405	0.095386	0.152284	0.248546	5753.800409	31945.002325	3724.567013	14071.326679
84.035500	0.149441	0.095925	0.156897	0.249051	5757.347738	31947.248807	3733.209290	14058.285071
84.535500	0.149484	0.096473	0.159277	0.248365	5762.232505	32029.795616	3739.713289	14075.993868
85.036000	0.149871	0.094503	0.154438	0.246820	5775.222086	32001.346169	3732.726856	14115.976887
85.536000	0.149005	0.095102	0.154110	0.247166	5767.069691	32018.255897	3731.304982	14107.016623
86.039000	0.150292	0.094876	0.156650	0.246745	5778.563827	32031.312235	3737.572464	14117.924368
86.537000	0.146317	0.094376	0.154493	0.246192	5755.583560	32034.936815	3734.172710	14132.275746
87.037000	0.147486	0.093742	0.156942	0.245813	5765.954888	32017.788133	3740.174222	14142.110756
87.537500	0.147202	0.095658	0.156246	0.246741	5757.830459	32084.051987	3736.723911	14118.033563
88.035000	0.147498	0.094943	0.151320	0.246397	5762.116346	32059.140694	3727.052165	14126.954272
88.534500	0.150908	0.096299	0.159229	0.247637	5776.703994	32066.928537	3741.161466	14094.820791
89.035000	0.144677	0.094777	0.153741	0.246602	5741.897271	32034.305701	3731.716701	14121.631232
89.536000	0.147382	0.094212	0.148183	0.246637	5759.727250	31994.134270	3719.990233	14120.720933
90.036000	0.146276	0.095290	0.154907	0.247293	5747.954204	32022.350165	3732.720023	14103.731907
90.536500	0.149867	0.094713	0.158185	0.247238	5772.379914	31987.411907	3739.786241	14105.147381
91.036500	0.149518	0.094546	0.158968	0.247366	5769.170687	31967.747355	3741.184085	14101.844167
91.537000	0.147780	0.092642	0.159740	0.246221	5765.187427	31917.047779	3745.278879	14131.521744
92.037000	0.145961	0.093606	0.157872	0.247119	5747.008526	31921.417695	3739.373988	14108.217198
92.538000	0.147126	0.093099	0.156800	0.247152	5754.574689	31885.450011	3737.027596	14107.385169
93.034500	0.148483	0.092686	0.157555	0.247608	5760.603706	31827.528318	3737.661115	14095.572143
93.535000	0.148262	0.092661	0.157709	0.248216	5755.051135	31785.482789	3736.696490	14079.852308
94.035500	0.148320	0.091835	0.162928	0.248490	5753.608606	31712.510835	3747.249236	14072.766518
94.536000	0.147559	0.090842	0.156016	0.248384	5749.231116	31653.782319	3732.758409	14075.515225
95.036500	0.147820	0.091645	0.159334	0.249343	5744.577778	31643.491754	3737.753828	14050.766540
95.536500	0.148048	0.091330	0.160541	0.249868	5742.599414	31588.037480	3739.202986	14037.239309
96.037000	0.144292	0.091119	0.162248	0.250891	5710.945198	31506.748322	3740.660029	14010.943576
