sample name	sample
index	97
start time	 02-15-2021  10:55:27 AM
880	0.432579
Peak Time (s)	91.535
Peak Height 	0.4326
calc peak height	90,93
Baseline Time (s)	9.537
Baseline Value 	-0.002726
subtract baseline	10,4
Abs	0.336066
Peak Time (s)	91.535
Peak Height 	0.3361
calc peak height	90,93
Baseline Time (s)	10.037
Baseline Value 	2.5152E-4
subtract baseline	10,3
PK_550	0.152536
Peak Time (s)	91.038
Peak Height 	0.1525
calc peak height	90,93
Baseline Time (s)	11.535
Baseline Value 	-4.9605E-4
subtract baseline	10,2
PK_880	0.306465
Peak Time (s)	91.038
Peak Height 	0.3065
calc peak height	90,93
Baseline Time (s)	11.036
Baseline Value 	-1.4343E-5
subtract baseline	10,1


Time (s)	A880-A510	A880-A775	A880-A975	A880	I510	I775	I975	I880	
0.039000	-0.000838	0.001479	0.007936	0.007844	4187.462211	15519.855745	3194.415613	8779.022505
0.540500	-0.001051	-0.000922	0.001171	0.003329	4200.158651	15581.209884	3192.758117	8840.484538
1.034500	-0.003483	0.000952	0.001863	0.003771	4191.665388	15622.971323	3192.942493	8834.444890
1.537000	0.004573	0.000818	-0.008269	0.001122	4223.597576	15696.583326	3187.489223	8870.769414
2.036000	-0.003914	-0.001343	-0.009317	0.003788	4190.344897	15555.618605	3184.817285	8834.207825
2.536000	-0.001342	-0.002120	-0.009950	-0.001746	4214.428356	15694.537914	3188.347915	8910.338855
3.036500	-0.001024	-0.000124	0.000305	-0.001307	4214.066340	15740.337938	3195.540275	8904.273338
3.536500	-0.003698	-0.000264	0.004788	0.001199	4198.629262	15662.619856	3197.008524	8869.712381
4.036500	-0.005337	-0.001000	-0.004077	0.003475	4187.080333	15574.687419	3188.820502	8838.485441
4.537500	0.003126	0.000998	-0.006937	0.001942	4216.771008	15677.830756	3187.859853	8859.504128
5.040000	0.000282	0.000091	-0.010904	0.000857	4211.496112	15683.048055	3185.781754	8874.414253
5.534500	-0.001675	-0.000359	-0.011751	-0.000683	4210.249389	15715.053216	3186.279663	8895.643898
6.035000	-0.001291	0.001347	0.000087	0.001481	4204.938326	15701.603107	3193.320112	8865.835107
6.535500	0.004101	-0.001657	-0.008134	-0.001018	4228.646132	15686.766880	3189.137407	8900.277428
7.035500	-0.000938	-0.000376	-0.005726	-0.000603	4212.214610	15712.185856	3190.587460	8894.535846
7.536000	0.000263	0.001235	-0.000842	0.000927	4211.227380	15714.554030	3193.043693	8873.444151
8.036000	0.000214	0.000519	0.015196	0.000214	4213.217206	15714.492488	3205.600760	8883.271042
8.537000	-0.000346	-0.001583	0.001167	-0.001085	4215.433324	15690.890994	3196.013912	8901.194525
9.037000	-0.000002	0.000529	-0.009185	0.000640	4211.295069	15702.264782	3187.175468	8877.396145
9.537500	-0.000389	-0.000495	-0.001599	0.000000	4212.051463	15690.986283	3193.169096	8886.217953
10.037000	0.004908	0.000643	0.000000	0.000256	4227.229987	15716.893329	3194.158887	8882.693224
10.535000	0.003583	0.000298	0.006367	0.000256	4223.222566	15706.747529	3198.890815	8882.687511
11.035500	0.000000	-0.000131	-0.024091	-0.001353	4217.278136	15741.478400	3177.993367	8904.907888
11.535000	0.002399	0.000000	0.003261	-0.000263	4221.217373	15713.237328	3196.959533	8889.839840
12.036000	0.000985	0.000938	-0.009547	-0.000020	4216.234383	15733.720715	3187.391397	8886.499988
12.536000	-0.001835	-0.000785	-0.001424	-0.001013	4210.756912	15712.201822	3194.044536	8900.200754
13.037000	0.001107	-0.001344	0.005135	-0.004143	4229.040955	15788.024547	3201.270412	8943.615972
13.536500	0.000787	0.001028	-0.005224	-0.000664	4217.570289	15755.316475	3190.998663	8895.376902
14.039500	0.002390	0.002913	-0.004198	0.000118	4220.044812	15787.912321	3191.177480	8884.597057
14.534500	-0.002170	-0.000543	0.005664	0.001444	4202.432774	15647.255531	3197.477874	8866.336823
15.034500	0.002228	0.001452	-0.007766	0.001077	4216.670314	15716.546342	3187.885845	8871.389345
15.535500	-0.000042	0.001111	-0.000784	-0.000072	4213.307080	15740.317521	3193.822376	8887.211456
16.038500	0.001364	0.000698	0.004807	-0.000012	4217.347259	15726.402907	3197.925364	8886.386523
16.535500	-0.000662	0.001367	0.002490	-0.000605	4213.046105	15763.584772	3196.640597	8894.563311
17.036500	-0.001522	-0.000499	0.005245	-0.001899	4214.345448	15746.714210	3199.665435	8912.459299
17.536000	0.002179	0.000225	-0.005521	-0.004204	4232.482846	15836.310868	3193.376986	8944.468125
18.036500	-0.003881	-0.000154	-0.007519	-0.001912	4207.330733	15757.276396	3190.234940	8912.641136
18.537000	-0.002283	0.000743	0.002237	-0.000198	4206.982650	15733.183003	3196.150056	8888.942144
19.037000	0.001114	0.000873	0.006786	0.001326	4212.581863	15692.210883	3198.404026	8867.963402
19.540000	-0.002609	-0.000410	0.006456	-0.000077	4205.652476	15695.718440	3199.207049	8887.276490
20.034500	-0.004514	0.000343	0.003232	0.000477	4198.348573	15701.592744	3196.387623	8879.643411
20.535500	0.001541	-0.000303	-0.011325	-0.000780	4220.188788	15719.539351	3186.656679	8896.983990
21.035500	-0.005737	-0.000702	0.001096	-0.000178	4196.668043	15690.127604	3195.289264	8888.672230
21.535500	-0.002607	0.000885	-0.003848	0.000840	4202.930614	15706.861293	3190.905279	8874.649545
22.036000	-0.000274	-0.000539	-0.001811	0.000066	4212.201319	15687.760656	3192.965336	8885.312947
22.536500	-0.000315	0.001465	0.008090	0.000843	4209.751747	15723.816487	3199.742741	8874.604605
23.036000	0.002136	0.001073	-0.000336	0.001062	4216.441009	15705.844739	3193.317254	8871.597532
23.537500	-0.002423	0.000038	0.000353	-0.000481	4207.408946	15720.778160	3194.963252	8892.847632
24.038000	0.000542	0.000244	-0.007627	0.001219	4211.190126	15676.885999	3187.882833	8869.431247
24.535000	-0.000934	-0.000557	0.003761	0.000055	4210.259715	15687.567734	3197.095522	8885.463470
25.035500	-0.002822	-0.001752	-0.005215	-0.001460	4209.142541	15696.933390	3191.587701	8906.386923
25.535500	-0.001814	-0.000081	-0.000555	0.000189	4207.227271	15697.577285	3193.798328	8883.606051
26.036000	-0.000120	-0.000634	-0.001574	-0.000310	4213.785552	15696.005039	3193.415304	8890.489283
26.536000	0.001086	0.000868	-0.002592	0.000260	4215.695188	15723.399846	3192.249398	8882.637935
27.036500	-0.002022	0.001649	0.000074	0.001430	4202.914803	15711.952028	3193.347534	8866.524525
27.536500	-0.000479	0.000249	0.009525	0.000694	4209.707329	15692.423323	3200.933745	8876.649635
28.036500	0.007243	0.001890	-0.002681	0.001645	4230.098246	15712.697639	3191.169441	8863.571931
28.537500	0.000627	-0.000860	-0.003172	-0.002417	4222.368887	15751.369865	3193.790891	8919.641743
29.051000	0.002771	0.001318	-0.005202	-0.000816	4224.009840	15768.388670	3191.126165	8897.479084
29.535000	0.001532	0.001224	0.003369	-0.001151	4221.279974	15775.490833	3197.701843	8902.109788
30.035000	-0.004052	0.000483	-0.001826	0.002605	4193.426305	15643.329739	3191.093184	8850.408289
30.535500	0.005739	0.000558	0.002038	-0.002013	4236.652623	15781.297314	3197.351801	8914.040006
31.035500	0.001619	0.001261	-0.000362	-0.000962	4220.975667	15771.016344	3194.791200	8899.501918
31.536000	-0.003618	0.000098	0.010209	0.000577	4200.708469	15691.462452	3201.538258	8878.268515
32.036000	-0.002630	-0.002443	-0.000496	-0.001078	4208.575282	15665.451841	3194.776930	8901.096672
32.538000	0.003164	0.001847	0.002827	-0.001046	4225.892747	15790.829817	3197.219341	8900.660746
33.053500	0.002945	0.001365	0.004557	-0.001550	4226.755023	15791.488287	3198.888491	8907.635271
33.540000	0.000465	-0.001387	0.005095	-0.003251	4224.399031	15760.400966	3200.568297	8931.217697
34.037500	0.001887	0.001285	0.002551	0.001150	4215.424825	15709.473403	3195.383096	8870.375419
34.535000	-0.000755	0.000788	-0.002285	-0.000903	4213.660697	15755.300417	3193.328530	8898.681469
35.035500	-0.001047	0.001174	0.006871	-0.002034	4216.177415	15800.108039	3200.989414	8914.326493
35.535500	0.001134	0.000912	0.005391	0.000991	4213.644787	15703.193500	3197.612279	8872.567573
36.036500	-0.004723	-0.000876	-0.006665	0.000382	4198.010421	15668.587526	3189.186690	8880.948277
36.536500	0.001808	0.001439	-0.006634	0.000829	4216.154242	15723.461223	3188.885638	8874.803466
37.036500	-0.000598	-0.001284	0.001276	-0.000395	4212.607555	15679.430286	3195.583327	8891.664172
37.537000	0.003105	0.000820	0.006548	0.001412	4218.300299	15688.155525	3198.161949	8866.784754
38.036000	-0.000353	0.001169	-0.008017	0.001617	4207.328164	15692.367604	3187.313556	8863.959610
38.537500	0.004260	0.001400	-0.000150	0.001626	4221.132490	15698.862658	3193.038891	8863.833031
39.035000	0.000590	0.001369	0.011529	0.000805	4212.574946	15722.126283	3202.363745	8875.133450
39.535500	0.000380	0.000588	0.007272	-0.000139	4214.771942	15726.886364	3199.865734	8888.131562
40.035000	-0.002012	0.000057	0.001821	0.000733	4205.017775	15685.671755	3195.152139	8876.118682
40.536000	-0.000300	0.000404	0.004899	0.000979	4209.390324	15688.629699	3197.254577	8872.729979
41.036000	0.002043	0.000240	0.002951	0.000859	4216.770119	15687.355147	3195.895808	8874.390973
41.536500	0.001308	0.001051	0.009241	0.000572	4215.423393	15719.580531	3200.811579	8878.331082
42.036500	-0.001367	-0.001318	-0.005621	0.000069	4208.923810	15664.837041	3190.174760	8885.271857
42.537000	-0.000024	-0.000834	-0.006742	0.000672	4211.133355	15661.363304	3188.920875	8876.962564
43.040000	-0.005290	-0.000275	0.006644	0.000258	4196.699911	15689.867977	3199.097053	8882.665010
43.535000	-0.001799	-0.001385	0.006143	0.000373	4206.727950	15653.969562	3198.636189	8881.083249
44.035000	-0.001599	-0.000141	0.008822	0.000411	4207.209386	15689.312010	3200.617132	8880.551273
44.535500	0.000341	-0.000838	0.002291	-0.000416	4215.487129	15693.124732	3196.352386	8891.962239
45.036000	0.003881	0.001065	-0.013487	0.001881	4219.223248	15681.559763	3183.200585	8860.339136
45.536500	0.004377	0.002199	0.015663	-0.000514	4227.955402	15785.496612	3206.515344	8893.311236
46.036500	0.000196	-0.001079	0.005425	0.001176	4210.285358	15639.436615	3197.500183	8870.026723
46.566500	0.002889	0.001438	0.002726	-0.000771	4224.228423	15770.599849	3196.939548	8896.860749
47.037000	-0.000495	0.000990	-0.006209	-0.001877	4217.364700	15790.043190	3191.165533	8912.163486
47.537000	0.001633	0.000561	0.007769	-0.002231	4224.846227	15787.812436	3201.815503	8917.061124
48.037500	0.000511	0.000292	0.003408	0.002662	4206.788475	15636.077759	3194.899028	8849.628418
48.534500	0.003521	0.000368	0.013926	-0.001315	4227.788352	15755.048023	3205.799028	8904.375010
49.035000	-0.004335	-0.000806	-0.000886	-0.000011	4200.327826	15682.195601	3193.702688	8886.374341
49.535500	-0.000871	0.000097	0.006744	0.001284	4206.778099	15670.684099	3198.404250	8868.540830
50.035500	-0.000984	0.000685	0.018989	0.000879	4207.647046	15699.809631	3207.999516	8874.107281
50.536500	0.001522	0.000288	0.009298	-0.001818	4223.263526	15767.574632	3202.659839	8911.344449
51.036000	0.000171	0.001318	-0.010591	-0.001117	4217.081293	15777.261036	3187.428889	8901.638065
51.537000	0.006049	0.001224	0.000730	-0.002505	4239.098638	15815.553004	3196.744275	8920.858983
52.037000	-0.004967	-0.000279	0.007351	-0.001790	4203.733303	15750.005243	3201.167336	8910.954334
52.540000	0.004756	0.000154	0.004864	0.001937	4221.690064	15653.235011	3196.515797	8859.569644
53.035000	-0.057990	-0.034616	0.028751	0.190837	3645.705896	10537.629169	3094.480730	6756.676960
53.535000	-0.031401	-0.020832	0.004920	0.058837	3969.088167	13566.663332	3156.915296	8127.432311
54.035500	0.005967	-0.008210	0.019874	-0.040574	4360.408295	16692.851940	3242.227960	9472.682776
54.535500	-0.009440	-0.011059	0.001721	-0.068500	4402.768088	17510.086027	3250.613890	9909.375553
55.036000	-0.006336	-0.015872	0.011206	0.003057	4185.375593	15161.254310	3200.420448	8844.213994
55.535500	-0.001867	-0.010151	0.012156	-0.059490	4397.843399	17240.885235	3251.852816	9765.403623
56.036500	0.015923	-0.003644	0.016806	-0.075085	4516.570032	17987.323117	3269.897184	10016.514597
56.536500	0.027112	-0.002535	0.029535	-0.025168	4379.676011	16388.219930	3237.385142	9243.530147
57.037000	0.047816	0.001920	0.036263	-0.002139	4371.840373	15825.366759	3223.989076	8915.787870
57.537500	0.060258	0.004659	0.073506	0.026133	4319.586242	15089.860627	3231.299558	8536.482313
58.035000	0.075658	0.012985	0.077275	0.063376	4250.541685	14307.483827	3204.774447	8073.055679
58.535500	0.102646	0.024005	0.097271	0.088548	4256.149890	13943.149319	3200.851928	7781.604657
59.034500	0.127028	0.034903	0.143062	0.125784	4216.948780	13295.935282	3207.360058	7380.290729
59.536000	0.149441	0.046196	0.159931	0.166065	4164.348542	12627.516747	3189.850935	6983.203642
60.036000	0.170173	0.061813	0.167889	0.208998	4101.938453	12037.200031	3165.390857	6598.622543
60.535500	0.189433	0.075691	0.200969	0.247449	4050.503760	11536.989137	3161.806658	6285.026162
61.036500	0.196382	0.085716	0.215551	0.277607	3991.254825	11147.722864	3151.657367	6057.765786
61.536500	0.214637	0.091164	0.228605	0.306902	3964.168617	10709.408345	3141.456315	5851.625289
62.039500	0.239928	0.105915	0.219914	0.329707	3970.208158	10566.728060	3122.727648	5700.500335
62.536500	0.248054	0.112882	0.253705	0.344497	3954.091763	10430.636506	3133.863046	5606.645768
63.035000	0.254777	0.120238	0.274129	0.358227	3937.413249	10321.560618	3137.904047	5522.336927
63.535000	0.260684	0.124568	0.277913	0.364810	3935.818690	10283.390563	3136.206804	5482.849605
64.035500	0.262235	0.127206	0.289931	0.356345	3959.706243	10473.458938	3148.882800	5533.740644
64.538500	0.272244	0.132586	0.288031	0.342236	4019.536025	10819.036098	3156.727390	5620.788325
65.036000	0.270472	0.136516	0.277587	0.345135	4007.685260	10837.743038	3148.164986	5602.668929
65.555500	0.263362	0.132123	0.257954	0.340023	4002.658888	10850.827445	3139.140960	5634.701249
66.036500	0.266246	0.136997	0.283877	0.348384	3988.989151	10787.596077	3150.093702	5582.510247
66.539500	0.274083	0.137813	0.288620	0.350203	4004.016336	10769.499487	3151.960673	5571.286411
67.037500	0.272877	0.136338	0.278113	0.350302	4000.740605	10741.183872	3145.247802	5570.676255
67.535000	0.271057	0.138400	0.291795	0.354242	3986.394960	10707.543897	3151.407475	5546.533815
68.034500	0.272042	0.141390	0.294373	0.362651	3968.187698	10611.278453	3147.704638	5495.738071
68.535500	0.279257	0.142414	0.296452	0.363940	3982.695996	10606.607289	3148.203149	5488.035175
69.035000	0.272627	0.141678	0.275913	0.364225	3965.783681	10588.610126	3135.352846	5486.335321
69.535500	0.280679	0.143895	0.294536	0.369337	3972.941483	10537.810976	3143.619535	5456.038622
70.036000	0.276477	0.142075	0.299326	0.374635	3949.986662	10414.367083	3143.304953	5425.018937
70.536500	0.277753	0.142911	0.293982	0.373087	3956.756954	10455.495614	3140.958561	5434.043426
71.037000	0.277995	0.143929	0.283454	0.375997	3950.359301	10422.834325	3132.816672	5417.104364
71.537500	0.281740	0.145471	0.305424	0.380294	3949.040144	10375.550752	3143.577310	5392.295908
72.037500	0.285448	0.147716	0.302339	0.384591	3947.634128	10340.509204	3139.029156	5367.733359
72.535000	0.287113	0.147326	0.314387	0.384820	3951.065100	10329.981516	3146.348348	5366.432793
73.035000	0.284572	0.148332	0.302279	0.388185	3937.029444	10289.973416	3136.806514	5347.375243
73.535500	0.282849	0.147189	0.301839	0.388750	3931.644861	10261.145102	3136.198765	5344.192261
74.035500	0.281817	0.147144	0.301868	0.393925	3917.175151	10173.717582	3133.107138	5315.209937
74.536000	0.287338	0.145866	0.321846	0.392588	3933.173460	10174.706524	3146.154211	5322.664098
75.036500	0.287326	0.147473	0.315888	0.395549	3926.205781	10152.187813	3140.616558	5306.182981
75.536000	0.291732	0.152606	0.302706	0.402100	3921.209796	10128.701548	3128.761470	5270.123346
76.040000	0.291988	0.146746	0.319352	0.401280	3923.714904	10045.802735	3139.227579	5274.608339
76.536500	0.290600	0.148186	0.296452	0.400459	3922.393178	10082.864244	3126.067136	5279.105903
77.034500	0.294037	0.150706	0.315176	0.403164	3924.099845	10079.838935	3135.548722	5264.319891
77.535500	0.289275	0.152072	0.299423	0.407453	3903.223390	10031.950487	3123.740506	5241.055534
78.035500	0.292416	0.150667	0.313540	0.409503	3905.718171	9975.807603	3130.784862	5230.024005
78.535500	0.295804	0.149025	0.312250	0.407418	3918.319599	9982.968525	3131.255263	5241.247177
79.035500	0.299055	0.150337	0.301523	0.408821	3922.610229	9981.490963	3124.162381	5233.686112
79.536500	0.297166	0.151716	0.298975	0.412183	3910.463260	9949.429441	3120.777052	5215.670100
80.036500	0.293290	0.149760	0.309744	0.410780	3904.793393	9940.513258	3127.798721	5223.170285
80.536500	0.294336	0.149322	0.312441	0.410317	3908.251985	9940.931675	3129.654864	5225.655005
81.037000	0.295182	0.154881	0.319501	0.416311	3896.509770	9933.918283	3130.283804	5193.740541
81.537000	0.296330	0.150586	0.322542	0.416134	3899.517065	9867.951171	3132.191348	5194.674967
82.035000	0.297956	0.149378	0.304888	0.414196	3907.657552	9879.595554	3123.006011	5204.951172
82.535500	0.303789	0.153764	0.319500	0.418028	3912.254218	9888.447064	3129.270412	5184.678903
83.035500	0.301171	0.152725	0.318364	0.416898	3908.832337	9889.919004	3129.267331	5190.639830
83.535500	0.293084	0.150361	0.336298	0.419377	3884.872943	9812.874188	3138.524190	5177.586010
84.036000	0.304402	0.154765	0.346126	0.422175	3904.147081	9838.324017	3142.845518	5162.942791
84.536000	0.295592	0.154699	0.324102	0.421682	3885.327946	9845.115777	3129.829171	5165.516611
85.036500	0.297178	0.150991	0.327814	0.419221	3894.440643	9825.327848	3133.495187	5178.405077
85.539500	0.301831	0.152457	0.331978	0.420717	3901.610056	9824.865540	3135.096120	5170.564620
86.037000	0.298489	0.154649	0.309712	0.422903	3889.092079	9824.945796	3120.786967	5159.151218
86.534500	0.297534	0.154922	0.331974	0.424174	3884.095205	9809.141812	3133.021482	5152.539106
87.035000	0.301525	0.153898	0.328584	0.424748	3891.774711	9783.929949	3130.665399	5149.559528
87.535500	0.299746	0.153651	0.327299	0.424800	3887.652218	9779.230477	3129.875614	5149.292173
88.035500	0.301462	0.149818	0.315819	0.422684	3896.300080	9752.253776	3124.411895	5160.289981
88.535500	0.300900	0.152818	0.314409	0.425782	3888.039926	9750.727581	3121.823494	5144.205357
89.036000	0.301088	0.153661	0.314761	0.427788	3883.961802	9732.522060	3120.880283	5133.851936
89.536500	0.295277	0.153184	0.323746	0.427505	3871.667497	9729.486186	3126.210940	5135.308921
90.037000	0.299555	0.151127	0.314509	0.430100	3875.393684	9657.184550	3119.425564	5121.976946
90.537000	0.297497	0.148205	0.313077	0.424377	3883.559666	9700.637438	3121.865048	5151.485892
91.037500	0.306465	0.152536	0.331307	0.427826	3895.985447	9714.368323	3130.455408	5133.655931
91.534500	0.306392	0.151210	0.336066	0.432579	3885.110252	9620.248250	3130.458782	5109.315348
92.035000	0.304352	0.151447	0.332336	0.429131	3888.271800	9677.144581	3130.292290	5126.946386
92.535500	0.301993	0.151417	0.327624	0.429821	3881.443305	9666.003467	3127.121325	5123.410590
93.036000	0.307153	0.155634	0.327953	0.433142	3885.553347	9679.875839	3125.380875	5106.449327
93.536000	0.304535	0.151788	0.310531	0.435144	3875.252574	9589.786111	3114.374253	5096.291490
94.035500	0.310874	0.154211	0.330300	0.433697	3892.678194	9649.263387	3126.421912	5103.629238
94.536500	0.308410	0.153929	0.318856	0.433929	3886.609107	9641.332080	3119.718664	5102.451912
95.036500	0.307017	0.150689	0.330682	0.432344	3887.040591	9615.870679	3127.433117	5110.513700
95.537000	0.304427	0.152766	0.324337	0.439787	3864.773338	9533.941416	3119.505437	5072.912133
96.037000	0.302669	0.149920	0.329475	0.432748	3876.430521	9597.873754	3126.494037	5108.457810
96.562500	0.308287	0.152882	0.341470	0.436061	3881.561440	9592.487742	3131.597645	5091.654050
97.035000	0.306018	0.153135	0.307685	0.437504	3873.309685	9574.300331	3111.506594	5084.374989
97.535000	0.303938	0.151058	0.323190	0.440734	3861.628095	9493.788259	3118.323522	5068.173502
98.036000	0.304754	0.151852	0.332230	0.435749	3874.397857	9581.522245	3126.351215	5093.233283
98.564500	0.313769	0.153235	0.319924	0.438692	3887.947730	9557.715232	3117.635005	5078.402269
99.036500	0.313692	0.152116	0.321230	0.438302	3888.651158	9546.619217	3118.589268	5080.362865
