sample name	sample
index	492
start time	 03-11-2021  02:15:33 PM
880	0.505087
Peak Time (s)	92.536
Peak Height 	0.5051
calc peak height	90,93
Baseline Time (s)	11.537
Baseline Value 	-0.00593
subtract baseline	10,4
Abs	0.319637
Peak Time (s)	92.536
Peak Height 	0.3196
calc peak height	90,93
Baseline Time (s)	10.539
Baseline Value 	0.004139
subtract baseline	10,3
PK_550	0.155994
Peak Time (s)	90.035
Peak Height 	0.156
calc peak height	90,93
Baseline Time (s)	10.539
Baseline Value 	4.212E-4
subtract baseline	10,2
PK_880	0.307974
Peak Time (s)	92.035
Peak Height 	0.308
calc peak height	90,93
Baseline Time (s)	10.539
Baseline Value 	0.002228
subtract baseline	10,1


Time (s)	A880-A510	A880-A775	A880-A975	A880	I510	I775	I975	I880	
0.035000	-0.003321	-0.001125	-0.004286	0.008626	6973.449283	44819.327938	3951.877458	23871.541590
0.535000	-0.001814	0.000352	-0.006087	0.006951	7003.486953	45124.391915	3951.559279	23952.617093
1.038500	-0.002749	-0.000529	-0.002059	0.004983	7013.299027	45230.132659	3966.832230	24048.334555
1.542000	-0.000643	-0.000403	-0.001615	0.003148	7050.902417	45421.458612	3972.692038	24137.927659
2.036000	-0.003082	0.000047	-0.002266	0.008798	6974.083786	44915.836181	3956.561910	23863.221619
2.537000	0.000902	0.000162	0.002052	0.003112	7066.068341	45480.219850	3982.275134	24139.648388
3.042500	0.000322	-0.000041	-0.003148	-0.000335	7093.746314	45799.196482	3977.728701	24309.015230
3.537000	-0.000148	-0.000134	-0.001559	0.000880	7077.465932	45670.342077	3978.696494	24249.182663
4.037000	-0.000257	-0.000269	0.002301	0.002759	7058.336067	45472.663472	3983.843738	24156.965474
4.535000	-0.000445	0.000743	0.004348	0.001433	7069.268576	45702.135714	3992.660252	24221.982374
5.034500	0.000569	0.000058	0.000102	0.000512	7087.949516	45725.494097	3983.969967	24267.308436
5.535000	0.000103	0.000023	-0.002808	0.000701	7081.614118	45703.407207	3975.928382	24257.975563
6.038500	-0.000649	-0.000526	-0.001870	0.000252	7078.681825	45693.455207	3979.518968	24280.069781
6.536000	0.000334	-0.000004	0.003353	0.000691	7083.937007	45701.669250	3991.996455	24258.462836
7.042000	0.000097	-0.000310	-0.002325	0.000011	7088.226648	45738.610750	3978.964788	24291.976177
7.536500	0.001812	0.000312	0.001966	0.000463	7100.458649	45755.292199	3988.961994	24269.700779
8.037000	0.001189	0.000105	-0.000057	-0.000062	7099.502151	45786.591832	3985.049701	24295.541905
8.537000	0.001101	-0.000593	0.003291	-0.000706	7104.899975	45781.327567	3995.500645	24327.320343
9.035000	0.000347	0.000957	0.000521	0.000738	7083.617334	45791.758538	3984.472230	24256.169522
9.535000	-0.000307	0.000090	0.007160	-0.000453	7088.807000	45823.782212	4005.054648	24314.858843
10.035000	-0.000937	-0.000760	-0.000016	-0.000821	7086.271062	45776.211161	3987.136061	24333.018489
10.538500	0.000000	0.000000	0.000000	0.000769	7079.964172	45694.437392	3983.034484	24254.646120
11.036000	0.000656	0.000214	-0.002407	0.000631	7087.625446	45728.994971	3977.143795	24261.405264
11.536500	-0.001938	-0.000696	-0.003711	0.000000	7068.692671	45701.619737	3975.406513	24292.505595
12.041500	-0.000475	-0.000233	0.000809	0.000056	7082.258453	45741.644756	3987.000744	24289.736075
12.536500	-0.000399	-0.000090	0.001202	0.001677	7067.368327	45596.330004	3983.798741	24210.018199
13.036500	-0.001517	0.001082	0.001155	-0.000831	7080.771753	45959.235510	3990.227018	24333.525407
13.537500	0.001003	-0.000009	-0.000911	0.000355	7093.658663	45734.223017	3981.741386	24274.993619
14.040500	0.002538	0.000679	0.003316	0.000988	7102.404552	45739.676066	3991.120636	24243.865068
14.535000	-0.001139	0.000258	-0.000265	0.003378	7043.944373	45463.648393	3975.581267	24126.662611
15.035000	0.000190	-0.000053	-0.003640	0.001182	7077.813521	45648.583846	3972.537872	24234.332341
15.536000	0.000299	0.000315	0.001337	0.000542	7085.050920	45747.829389	3987.110585	24265.831661
16.039000	0.001058	0.000428	0.002448	0.000486	7092.929641	45764.441203	3990.160968	24268.567072
16.537000	-0.000467	0.000290	-0.003593	0.001936	7064.219971	45608.153960	3970.716810	24197.276193
17.042500	0.000419	0.000106	0.001209	0.000588	7085.754496	45722.675699	3986.655504	24263.526944
17.537000	0.007080	0.000254	-0.001723	-0.002402	7180.079283	46032.888090	3986.806831	24411.223396
18.040000	-0.000054	-0.000029	0.004171	0.000570	7081.361789	45711.163355	3994.461639	24264.438626
18.536500	0.001036	0.000024	0.001482	0.002107	7077.049765	45565.257185	3983.406853	24188.894349
19.034500	0.000391	-0.000452	-0.004315	0.001590	7075.819544	45569.323420	3969.751961	24214.298915
19.538000	-0.000167	-0.000091	0.002483	0.001975	7066.726560	45566.916646	3986.360908	24195.360178
20.035500	-0.000682	0.000357	0.000003	0.002200	7059.618611	45588.861994	3979.323919	24184.351211
20.535500	0.002722	0.001057	0.000903	0.002609	7088.483770	45617.445768	3980.598994	24164.309782
21.036000	-0.001657	-0.000131	0.002313	0.002253	7049.750508	45535.731216	3985.192747	24181.742288
21.536500	-0.001595	0.000062	-0.000338	0.001583	7056.778119	45620.394721	3980.039633	24214.615420
22.042000	-0.000243	0.000270	0.002214	0.002057	7065.208535	45594.322879	3985.444894	24191.344356
22.537000	0.000344	0.000939	0.003451	0.002526	7066.347499	45613.955149	3987.448233	24168.357880
23.034500	0.000310	-0.000257	-0.000469	0.001647	7074.482205	45582.852044	3979.535114	24211.488779
23.534500	-0.000886	-0.000212	0.000646	0.001565	7063.759336	45595.307975	3982.643422	24215.505113
24.037500	0.001896	-0.000156	-0.001212	0.001787	7088.445676	45579.007699	3977.246062	24204.602508
24.535000	-0.000470	0.000635	-0.000951	0.001892	7064.615387	45646.396581	3977.649450	24199.453460
25.035500	-0.001203	0.000960	0.000570	0.002183	7054.777966	45649.707737	3980.840624	24185.175273
25.536000	0.001442	0.000803	0.003226	0.002511	7077.063599	45602.037699	3986.901265	24169.086403
26.036000	0.000054	0.000550	0.000288	0.001908	7069.503167	45636.461829	3980.821465	24198.654548
26.536500	-0.001690	0.000143	-0.001032	0.001591	7055.783527	45627.620518	3978.220000	24214.217392
27.037000	-0.001682	0.000316	0.000208	0.001941	7052.502559	45610.218068	3980.526869	24197.033835
27.537000	-0.000852	0.000445	-0.000977	0.000390	7075.407131	45775.643530	3981.481200	24273.306787
28.037500	0.002532	0.000530	0.000991	-0.001253	7124.143727	45946.328331	3990.898475	24354.339726
28.540500	0.002001	0.000121	0.000961	0.000566	7101.283919	45726.285869	3986.066845	24264.627200
29.046000	0.000728	0.000229	0.000235	0.000658	7088.069579	45727.954997	3983.935935	24260.110533
29.535500	0.000992	-0.000606	0.003041	-0.000456	7101.420978	45755.416309	3994.188904	24315.013910
30.036000	0.001322	0.000059	0.000494	0.001219	7088.391179	45656.022944	3983.148922	24232.525636
30.536000	-0.001589	0.000435	0.003264	0.002371	7049.273815	45579.702004	3987.365366	24175.964068
31.046500	0.000428	0.000749	0.002585	0.000533	7086.376351	45791.477817	3990.396814	24266.231461
31.537000	-0.001003	-0.000015	0.000722	0.003235	7046.619494	45450.878434	3978.507452	24133.664120
32.042500	0.000550	0.001110	0.003128	0.003246	7061.408630	45560.076179	3984.728888	24133.126034
32.539500	-0.000544	-0.000065	-0.001585	0.002218	7060.771607	45545.629731	3975.167361	24183.447228
33.043000	0.001507	0.000605	0.001667	0.000505	7097.086621	45780.007385	3988.067550	24267.616943
33.535000	0.000658	0.000168	-0.000835	0.000116	7092.637885	45775.304544	3982.559884	24286.792836
34.035500	0.000328	0.000289	0.002140	0.002056	7070.720345	45596.361168	3985.254957	24191.420702
34.535500	-0.001471	0.000233	0.001582	0.001603	7057.767820	45635.297068	3984.980054	24213.634282
35.038500	-0.002213	-0.000597	0.001812	0.001721	7049.521944	45542.158631	3985.273377	24207.840183
35.536000	-0.000788	0.000354	-0.000661	0.002140	7059.178678	45594.443473	3977.761304	24187.307837
36.036500	-0.002729	0.000311	-0.005291	0.002439	7037.717178	45560.774383	3965.066546	24172.607825
36.536500	-0.001912	0.000058	0.001310	0.001923	7050.479431	45586.689468	3983.440884	24197.939139
37.036500	0.000089	0.000352	-0.002576	0.002551	7063.660964	45553.923297	3971.752287	24167.158176
37.537500	-0.001082	-0.000044	0.003469	0.002159	7056.167332	45553.530130	3988.457183	24186.357892
38.035000	-0.000274	-0.000312	-0.001456	0.001802	7067.362991	45562.246470	3976.577152	24203.879254
38.535000	-0.000616	0.000483	0.001330	0.002218	7060.081074	45599.441940	3982.723518	24183.467018
39.035500	0.000588	0.000749	-0.001666	0.002482	7069.113582	45599.641838	3974.275620	24170.522454
39.536000	-0.001289	0.000117	0.004649	0.002519	7050.730129	45533.919229	3990.601623	24168.701252
40.036000	-0.001542	0.000623	-0.002806	0.002827	7045.354638	45553.311024	3970.447759	24153.599125
40.536000	0.000150	0.000492	-0.000874	0.002788	7061.966353	45544.407951	3975.531381	24155.536587
41.036000	0.000222	-0.000372	0.003663	0.002313	7067.225487	45506.245970	3988.559967	24178.805336
41.537000	-0.002281	0.000392	-0.003532	0.002653	7039.961360	45547.885295	3969.032719	24162.168824
42.039000	-0.001255	0.000778	-0.000390	0.002588	7050.399192	45592.105639	3977.301576	24165.339143
42.534500	-0.001006	0.000669	0.002004	0.002958	7049.232214	45545.069717	3982.551466	24147.192222
43.034500	-0.000240	-0.000459	-0.002054	0.001952	7066.247941	45533.085360	3974.643771	24196.505410
43.535000	-0.000548	0.000800	0.001454	0.002668	7056.411311	45586.307196	3981.875120	24161.389854
44.035000	-0.001304	-0.000001	-0.002367	0.002201	7053.641819	45553.653178	3973.192649	24184.304133
44.538500	-0.000396	0.000015	0.003040	-0.000215	7085.645946	45792.898469	3993.553957	24303.121055
45.036500	0.003014	-0.000217	0.004062	-0.001912	7135.287359	45937.625906	4000.713646	24386.951246
45.536000	0.000685	0.000143	0.001327	0.000048	7093.554807	45779.636081	3988.374987	24290.158314
46.042500	0.001022	0.000212	0.003397	0.000580	7091.668688	45733.921001	3992.403371	24263.949665
46.540000	0.000053	0.000599	0.002117	0.002059	7068.039936	45626.468026	3985.188100	24191.267713
47.040000	-0.000240	0.000210	-0.000852	-0.000083	7085.868828	45799.048330	3983.034726	24296.591117
47.534500	0.001038	0.000339	0.002550	0.000282	7094.706270	45775.755316	3990.962562	24278.607893
48.068500	0.001095	0.000296	0.000101	0.000099	7097.029308	45789.662002	3985.043246	24287.633015
48.535500	-0.001599	0.000005	-0.002655	0.002838	7044.710055	45491.723369	3970.810729	24153.095936
49.036000	-0.000579	0.000370	0.003191	0.002763	7055.198333	45534.854355	3986.151675	24156.760564
49.538500	0.000570	0.000225	0.000330	0.000504	7088.024321	45742.656623	3984.583208	24267.669375
50.042000	0.002591	0.000026	0.006356	0.000338	7109.222721	45739.376576	4000.830855	24275.832324
50.536500	-0.001816	0.000619	-0.001837	0.005842	7013.997663	45258.221606	3965.199522	24006.509545
51.042000	0.000977	0.000040	0.003061	-0.002463	7120.787807	46017.682262	3999.526550	24414.246951
51.537500	0.001016	-0.000392	0.000078	-0.001498	7111.762760	45879.401758	3989.150589	24366.457019
52.037000	0.001582	0.000349	0.002087	0.000533	7097.541476	45751.957843	3989.093938	24266.227100
52.534500	-0.000743	0.000097	-0.001507	0.003396	7047.563690	45446.193006	3972.330137	24125.798458
53.035500	0.004666	-0.001620	0.006481	-0.013833	7270.114773	46991.612763	4039.241333	24985.285773
53.535000	-0.025694	-0.002934	-0.015794	0.246329	5132.880341	27068.418586	3472.113809	15026.537857
54.035500	-0.048511	-0.018551	-0.016756	-0.019815	6818.908093	45895.045779	3993.037871	25291.772566
54.535500	-0.049630	-0.035692	-0.005421	-0.159542	8296.664497	59902.097552	4467.244124	33794.577299
55.036500	-0.000281	-0.062707	0.029356	-0.222908	9899.311040	64874.773828	4876.516955	38649.737274
55.539000	0.025840	-0.004024	0.050657	-0.100882	8510.119386	56470.024832	4457.680187	29889.654249
56.039000	0.058589	0.019844	0.074540	-0.049218	8270.526981	53151.588162	4358.250648	26861.145120
56.537000	0.100127	0.043243	0.106718	0.000834	8166.025931	50162.966308	4297.560800	24251.417174
57.034500	0.129274	0.062599	0.127002	0.073602	7661.697310	44698.907578	4133.137058	20955.631593
57.535000	0.151408	0.077827	0.153821	0.140762	7191.597431	39992.949973	4019.588751	18366.825200
58.035000	0.176902	0.093378	0.180118	0.175643	7099.583230	38380.252846	3996.761898	17172.200020
58.535500	0.198072	0.106540	0.199665	0.223032	6852.863064	35694.747665	3925.740793	15695.483553
59.036000	0.216081	0.117042	0.218460	0.257592	6704.618933	33929.902186	3887.504087	14715.763008
59.536000	0.227372	0.124924	0.230951	0.286954	6549.080138	32434.745516	3848.092181	13942.492101
60.045000	0.235866	0.130169	0.244292	0.326422	6297.094018	30200.136250	3789.997636	12982.121252
60.536500	0.248950	0.138184	0.258251	0.361577	6128.183764	28549.051207	3745.370766	12197.172924
61.037000	0.252634	0.142844	0.259308	0.379726	6022.054409	27766.016176	3710.937425	11816.137910
61.535000	0.260995	0.147402	0.268804	0.404376	5906.689874	26643.851742	3681.518370	11323.452813
62.034500	0.268490	0.148076	0.277539	0.418955	5857.857080	25897.110672	3670.446543	11044.958148
62.535000	0.273931	0.152658	0.283831	0.424981	5853.858108	25820.922063	3670.947291	10932.561342
63.038000	0.277891	0.156649	0.289432	0.439806	5780.592142	25257.332199	3653.760564	10662.567071
63.535500	0.282654	0.160064	0.292106	0.458992	5686.117401	24461.626690	3623.891610	10326.551116
64.036000	0.287989	0.161876	0.292609	0.465715	5677.193642	24219.702235	3612.930295	10212.283595
64.539000	0.288424	0.161338	0.293921	0.467276	5669.961282	24117.119918	3612.494976	10185.990092
65.070000	0.293626	0.164006	0.297682	0.466800	5706.569487	24270.939742	3619.938881	10193.998424
65.539500	0.293013	0.163756	0.297129	0.466699	5703.249535	24263.610820	3619.142555	10195.695964
66.039500	0.294192	0.165339	0.302794	0.466943	5709.317436	24329.471510	3628.764329	10191.592425
66.535000	0.293439	0.164966	0.303240	0.467319	5701.990262	24292.604553	3628.887253	10185.263792
67.037500	0.293173	0.163733	0.298154	0.463964	5722.075291	24397.151422	3625.802683	10241.861547
67.535500	0.294402	0.165253	0.301914	0.467733	5705.553303	24286.330307	3625.786605	10178.312821
68.035000	0.299901	0.166479	0.302389	0.465254	5757.781347	24469.192351	3631.060835	10220.055917
68.535500	0.297153	0.165149	0.300810	0.464818	5742.552674	24424.967009	3629.016029	10227.427087
69.038500	0.299280	0.165236	0.299829	0.463663	5764.195799	24486.425574	3629.326927	10246.961598
69.539000	0.298758	0.165357	0.303267	0.467645	5734.532348	24295.794346	3628.355760	10179.798233
70.036500	0.301016	0.166808	0.309048	0.466238	5758.646785	24436.749454	3641.293440	10203.456585
70.536500	0.300500	0.166239	0.301791	0.466420	5754.039595	24399.649676	3627.906842	10200.397056
71.034000	0.303963	0.166076	0.304369	0.466006	5779.734461	24412.030826	3633.262597	10207.364211
71.535000	0.297825	0.164935	0.308091	0.469353	5717.272988	24191.333977	3633.937359	10151.170891
72.035000	0.303775	0.165424	0.309518	0.466909	5772.486735	24335.348634	3640.928973	10192.171327
72.535500	0.301185	0.165436	0.304865	0.469018	5741.445974	24232.285754	3628.757874	10156.784658
73.035500	0.301181	0.163202	0.304706	0.466932	5755.151533	24225.009383	3632.204656	10191.772910
73.538500	0.302107	0.165578	0.303167	0.474667	5710.561887	23964.042390	3615.744763	10062.834223
74.039000	0.302972	0.164880	0.308996	0.470882	5740.936771	24114.004704	3632.816605	10125.644589
74.536000	0.303029	0.165878	0.309811	0.474803	5715.672006	23972.007901	3627.259433	10060.588584
75.036500	0.304318	0.164136	0.309584	0.473266	5734.129126	23962.075988	3629.598457	10086.012008
75.537000	0.305520	0.165403	0.310560	0.475447	5727.721986	23917.895379	3627.446735	10049.962934
76.037500	0.302782	0.164392	0.306755	0.475517	5709.417044	23865.716665	3620.566994	10048.798363
76.534500	0.300563	0.163144	0.305812	0.477312	5683.470442	23719.694974	3615.746037	10019.269743
77.035000	0.301469	0.162292	0.313172	0.477203	5690.007773	23684.150212	3628.974027	10021.050907
77.535500	0.297480	0.160952	0.312056	0.483023	5627.439331	23345.074790	3616.681588	9926.093855
78.038500	0.300421	0.161799	0.310135	0.480660	5661.094046	23496.402971	3617.458531	9964.495113
78.535500	0.301557	0.161647	0.310957	0.481159	5665.164463	23465.599722	3618.027516	9956.370910
79.038500	0.300492	0.160650	0.306964	0.482055	5652.655280	23376.384439	3609.465111	9941.803494
79.536500	0.297358	0.160038	0.306118	0.489120	5588.497615	23018.394178	3595.813215	9827.970608
80.034000	0.301517	0.161272	0.305941	0.485996	5634.157645	23220.816238	3600.869484	9878.070434
80.537000	0.300455	0.159515	0.310720	0.485216	5632.374543	23175.268242	3610.502533	9890.644466
81.035000	0.303640	0.159566	0.306325	0.487672	5636.982178	23063.516249	3598.647513	9851.140571
81.535500	0.297228	0.158874	0.306221	0.493181	5562.565292	22778.346439	3589.075177	9763.373662
82.037500	0.301613	0.158637	0.312504	0.488347	5619.938485	22989.392096	3608.155694	9840.331428
82.538500	0.301074	0.158861	0.309183	0.490176	5605.086848	22915.428491	3599.256468	9811.113002
83.038500	0.302672	0.158975	0.309578	0.490757	5611.458908	22894.016862	3598.936774	9801.863150
83.536000	0.301769	0.158276	0.306569	0.496994	5567.052271	22577.923246	3583.225577	9703.271815
84.036500	0.304706	0.158859	0.313161	0.492480	5613.403229	22809.667898	3602.137347	9774.473654
84.537000	0.305266	0.159173	0.311413	0.493983	5607.495807	22755.376938	3596.552288	9750.689534
85.034500	0.303044	0.157718	0.311315	0.493810	5594.692743	22696.982042	3596.679945	9753.413816
85.537500	0.300874	0.157261	0.318538	0.499900	5543.710632	22401.446045	3598.622037	9657.810812
86.035000	0.304646	0.157843	0.315861	0.495202	5596.008885	22639.480360	3602.100613	9731.454807
86.535000	0.303988	0.157921	0.307051	0.498203	5573.288754	22507.318662	3582.003847	9684.316388
87.038000	0.306272	0.156524	0.314213	0.495962	5601.402855	22545.390426	3597.957121	9719.473363
87.535500	0.297744	0.154847	0.309135	0.500185	5522.911798	22280.933930	3582.175898	9653.375455
88.038500	0.306932	0.156742	0.316325	0.498295	5590.977524	22450.134743	3597.579278	9682.872036
88.536000	0.303923	0.156033	0.313499	0.498651	5570.113026	22402.400324	3592.143962	9677.306638
89.036500	0.305969	0.156818	0.318757	0.500449	5571.651852	22357.093059	3598.056599	9649.262560
89.536500	0.301736	0.154627	0.310615	0.505253	5516.386275	22046.893540	3576.176039	9574.864173
90.034500	0.305987	0.155994	0.310008	0.500357	5572.326673	22324.340932	3583.353371	9650.683236
90.534500	0.303854	0.154258	0.313299	0.501623	5551.404516	22190.877985	3586.765898	9630.996850
91.035000	0.305870	0.155195	0.318271	0.502003	5561.452811	22215.575831	3594.565405	9625.105440
91.538000	0.307679	0.154395	0.316122	0.502750	5568.000271	22147.073880	3589.636191	9613.524247
92.035500	0.307974	0.153304	0.315489	0.502956	5568.549002	22089.822523	3588.215883	9610.340003
92.536000	0.306394	0.154117	0.319637	0.505087	5545.745025	22031.798180	3591.638927	9577.434710
93.036500	0.305622	0.153177	0.316615	0.504075	5547.208305	22034.948295	3588.226245	9593.029203
93.536500	0.306640	0.151721	0.319583	0.509510	5520.309208	21734.441314	3584.062854	9509.635625
94.036500	0.308633	0.153221	0.320595	0.505562	5556.564537	21971.662598	3592.459817	9570.118293
94.537000	0.307694	0.153205	0.318516	0.506365	5545.875413	21935.758892	3587.569213	9557.766615
95.037000	0.309241	0.152139	0.317840	0.506584	5554.017679	21879.706298	3586.058223	9554.413107
95.534500	0.308447	0.151868	0.317725	0.507624	5542.784124	21822.608677	3584.110640	9538.458674
96.065500	0.309044	0.151701	0.314370	0.508649	5540.167848	21770.861071	3576.774476	9522.776889
96.535500	0.309366	0.151248	0.314177	0.510469	5531.037858	21672.586140	3573.428359	9495.035123
97.035500	0.311559	0.152464	0.319473	0.511465	5538.332225	21682.084566	3580.595261	9479.894518
97.536500	0.307939	0.150975	0.317927	0.516664	5485.064825	21395.757302	3569.384277	9401.448209
98.036000	0.311185	0.149209	0.317219	0.510072	5544.557097	21601.914740	3579.154657	9501.075581
98.536500	0.313185	0.149928	0.318893	0.510988	5551.193196	21593.441235	3580.423657	9487.140760
