sample name	sample
index	712
start time	 03-25-2021  11:15:11 AM


Wavelength (nm)	Absorbance
494.344910	-0.042441
494.563924	-0.042441
494.782919	-0.042441
495.001897	-0.015573
495.220856	-0.032823
495.439797	-0.022646
495.658719	-0.014583
495.877624	-0.014340
496.096510	-0.009357
496.315378	-0.013861
496.534227	-0.007337
496.753059	-0.004476
496.971872	0.000183
497.190667	0.053309
497.409444	0.070727
497.628203	0.077445
497.846943	0.082386
498.065665	0.084632
498.284369	0.086557
498.503055	0.089125
498.721723	0.088353
498.940372	0.088973
499.159003	0.090579
499.377616	0.090029
499.596210	0.089006
499.814787	0.088351
500.033345	0.087967
500.251885	0.087812
500.470406	0.085722
500.688910	0.087004
500.907395	0.087130
501.125862	0.086604
501.344311	0.087606
501.562742	0.088478
501.781154	0.089132
501.999548	0.088591
502.217924	0.088121
502.436282	0.088546
502.654621	0.088553
502.872942	0.087764
503.091245	0.087162
503.309530	0.086575
503.527797	0.086226
503.746045	0.085541
503.964275	0.086683
504.182487	0.088070
504.400681	0.089063
504.618856	0.088401
504.837013	0.089072
505.055152	0.090351
505.273273	0.091083
505.491376	0.091980
505.709460	0.092203
505.927526	0.091659
506.145574	0.091010
506.363604	0.091200
506.581615	0.091789
506.799608	0.092087
507.017583	0.091671
507.235540	0.092088
507.453478	0.092214
507.671399	0.092586
507.889301	0.094132
508.107185	0.094098
508.325050	0.093472
508.542898	0.093603
508.760727	0.093260
508.978538	0.093163
509.196330	0.093121
509.414105	0.092640
509.631861	0.092780
509.849599	0.091617
510.067319	0.092228
510.285021	0.092926
510.502704	0.092822
510.720369	0.093874
510.938016	0.093857
511.155645	0.093659
511.373255	0.093879
511.590848	0.094125
511.808422	0.094226
512.025977	0.093591
512.243515	0.093263
512.461034	0.093532
512.678536	0.093473
512.896018	0.093435
513.113483	0.093892
513.330930	0.093846
513.548358	0.093473
513.765768	0.093899
513.983160	0.094767
514.200533	0.095255
514.417889	0.095300
514.635226	0.095027
514.852545	0.095163
515.069845	0.095410
515.287128	0.094847
515.504392	0.094898
515.721638	0.094312
515.938866	0.093917
516.156075	0.093832
516.373267	0.094145
516.590440	0.094584
516.807594	0.094713
517.024731	0.093956
517.241850	0.094944
517.458950	0.095761
517.676032	0.097036
517.893095	0.096887
518.110141	0.096578
518.327168	0.096015
518.544177	0.095520
518.761168	0.095408
518.978141	0.095335
519.195095	0.095549
519.412031	0.094878
519.628949	0.094168
519.845849	0.095117
520.062731	0.094769
520.279594	0.095349
520.496439	0.095911
520.713266	0.096755
520.930074	0.097767
521.146865	0.097981
521.363637	0.098854
521.580391	0.098951
521.797127	0.097998
522.013844	0.099104
522.230543	0.099196
522.447224	0.098938
522.663887	0.098193
522.880532	0.098451
523.097158	0.098231
523.313766	0.098315
523.530356	0.098739
523.746928	0.099963
523.963481	0.100209
524.180017	0.100472
524.396534	0.100583
524.613032	0.101553
524.829513	0.100994
525.045975	0.101483
525.262420	0.101658
525.478845	0.101956
525.695253	0.101528
525.911643	0.101347
526.128014	0.101399
526.344367	0.101663
526.560702	0.101513
526.777018	0.101786
526.993316	0.101527
527.209597	0.101387
527.425858	0.101338
527.642102	0.101978
527.858328	0.101995
528.074535	0.102498
528.290724	0.102276
528.506894	0.102181
528.723047	0.102577
528.939181	0.102983
529.155297	0.103430
529.371395	0.103363
529.587475	0.103229
529.803536	0.103416
530.019579	0.102917
530.235604	0.103531
530.451611	0.104443
530.667600	0.104047
530.883570	0.104336
531.099522	0.104284
531.315456	0.105073
531.531372	0.105120
531.747269	0.105153
531.963148	0.105455
532.179009	0.105818
532.394852	0.105316
532.610676	0.105947
532.826482	0.105902
533.042271	0.106040
533.258040	0.106035
533.473792	0.107040
533.689525	0.107602
533.905240	0.108107
534.120937	0.108014
534.336616	0.108775
534.552277	0.109371
534.767919	0.109522
534.983543	0.109742
535.199149	0.109899
535.414736	0.109471
535.630306	0.109384
535.845857	0.109518
536.061390	0.109388
536.276904	0.108658
536.492401	0.108094
536.707879	0.108475
536.923339	0.108731
537.138781	0.108388
537.354204	0.108357
537.569610	0.108624
537.784997	0.108827
538.000366	0.109414
538.215716	0.109604
538.431049	0.110238
538.646363	0.110104
538.861659	0.110180
539.076937	0.110560
539.292196	0.110963
539.507438	0.111383
539.722661	0.111069
539.937866	0.111054
540.153052	0.111183
540.368221	0.110678
540.583371	0.111363
540.798503	0.111328
541.013617	0.111627
541.228712	0.111609
541.443789	0.111504
541.658848	0.112120
541.873889	0.111725
542.088912	0.112008
542.303916	0.112864
542.518902	0.112717
542.733870	0.113054
542.948820	0.113272
543.163752	0.113179
543.378665	0.113209
543.593560	0.113053
543.808437	0.113617
544.023295	0.113875
544.238136	0.113946
544.452958	0.113642
544.667762	0.113983
544.882548	0.113906
545.097315	0.114480
545.312064	0.114929
545.526795	0.115587
545.741508	0.115671
545.956203	0.115995
546.170879	0.115981
546.385537	0.116418
546.600177	0.116535
546.814799	0.116903
547.029402	0.116587
547.243988	0.116654
547.458555	0.116501
547.673103	0.116794
547.887634	0.116786
548.102146	0.117003
548.316640	0.117351
548.531116	0.117220
548.745574	0.117224
548.960013	0.117545
549.174435	0.117604
549.388838	0.117686
549.603222	0.118009
549.817589	0.118071
550.031937	0.117888
550.246267	0.117742
550.460579	0.118083
550.674873	0.118349
550.889148	0.118702
551.103405	0.118929
551.317644	0.119165
551.531865	0.119023
551.746068	0.119379
551.960252	0.120028
552.174418	0.120547
552.388566	0.120375
552.602696	0.120183
552.816807	0.120307
553.030900	0.120134
553.244975	0.120043
553.459032	0.120048
553.673070	0.119916
553.887091	0.119384
554.101093	0.119335
554.315077	0.119351
554.529042	0.119503
554.742990	0.119476
554.956919	0.119804
555.170830	0.119700
555.384722	0.120145
555.598597	0.120547
555.812453	0.120772
556.026291	0.120805
556.240111	0.121159
556.453913	0.121506
556.667696	0.121672
556.881461	0.121740
557.095208	0.122451
557.308937	0.122404
557.522647	0.122157
557.736339	0.122426
557.950013	0.122569
558.163669	0.122680
558.377307	0.122608
558.590926	0.122444
558.804527	0.122634
559.018110	0.122545
559.231675	0.123104
559.445221	0.123131
559.658749	0.123224
559.872259	0.123267
560.085751	0.123492
560.299225	0.124028
560.512680	0.124351
560.726117	0.124368
560.939536	0.124367
561.152937	0.124268
561.366319	0.124863
561.579683	0.125048
561.793029	0.125283
562.006357	0.125104
562.219667	0.125061
562.432958	0.125323
562.646231	0.125243
562.859486	0.125655
563.072723	0.125907
563.285941	0.126165
563.499141	0.126326
563.712323	0.126816
563.925487	0.127063
564.138632	0.126966
564.351760	0.127069
564.564869	0.127514
564.777960	0.127357
564.991032	0.127252
565.204087	0.127130
565.417123	0.127083
565.630141	0.126764
565.843140	0.126868
566.056122	0.126924
566.269085	0.126772
566.482030	0.126809
566.694957	0.127112
566.907866	0.127363
567.120756	0.127286
567.333628	0.127634
567.546482	0.127771
567.759318	0.128284
567.972135	0.128644
568.184935	0.128697
568.397716	0.128936
568.610478	0.128732
568.823223	0.128453
569.035949	0.128713
569.248657	0.128760
569.461347	0.128803
569.674019	0.128314
569.886672	0.128406
570.099308	0.128645
570.311925	0.128610
570.524523	0.128608
570.737104	0.129177
570.949666	0.129193
571.162210	0.129196
571.374736	0.129398
571.587244	0.129594
571.799733	0.129346
572.012205	0.129407
572.224658	0.129523
572.437092	0.129828
572.649509	0.129744
572.861907	0.130007
573.074287	0.129987
573.286649	0.129690
573.498993	0.130150
573.711318	0.130579
573.923625	0.130844
574.135914	0.131135
574.348185	0.131607
574.560438	0.131800
574.772672	0.131714
574.984888	0.131778
575.197086	0.132305
575.409266	0.132263
575.621427	0.132299
575.833570	0.132145
576.045695	0.132017
576.257802	0.131734
576.469890	0.132024
576.681961	0.132386
576.894013	0.132625
577.106046	0.132578
577.318062	0.132713
577.530059	0.132721
577.742039	0.133074
577.954000	0.133063
578.165942	0.133171
578.377867	0.132852
578.589773	0.132864
578.801661	0.132870
579.013531	0.133001
579.225382	0.132863
579.437216	0.132783
579.649031	0.132874
579.860828	0.133209
580.072606	0.133272
580.284367	0.133276
580.496109	0.133079
580.707833	0.133463
580.919539	0.133834
581.131227	0.134086
581.342896	0.133956
581.554547	0.133918
581.766180	0.133967
581.977795	0.134142
582.189391	0.134382
582.400969	0.134720
582.612529	0.134721
582.824071	0.134291
583.035595	0.134481
583.247100	0.135048
583.458587	0.135198
583.670056	0.135346
583.881506	0.135390
584.092939	0.135592
584.304353	0.135733
584.515749	0.135952
584.727127	0.136310
584.938486	0.136202
585.149828	0.136154
585.361151	0.136657
585.572456	0.136653
585.783742	0.136991
585.995011	0.137035
586.206261	0.137424
586.417493	0.137590
586.628706	0.137517
586.839902	0.137962
587.051079	0.138463
587.262238	0.138174
587.473379	0.138249
587.684502	0.138392
587.895606	0.138480
588.106692	0.137976
588.317760	0.137612
588.528810	0.138271
588.739841	0.138166
588.950855	0.138102
589.161850	0.137945
589.372827	0.137773
589.583785	0.137318
589.794726	0.137408
590.005648	0.137797
590.216552	0.138245
590.427437	0.138171
590.638305	0.138300
590.849154	0.138324
591.059985	0.138900
591.270798	0.139072
591.481592	0.139582
591.692369	0.139572
591.903127	0.139565
592.113867	0.139636
592.324588	0.139350
592.535292	0.139467
592.745977	0.139616
592.956644	0.139645
593.167293	0.139888
593.377923	0.139943
593.588536	0.140126
593.799130	0.140388
594.009706	0.140459
594.220263	0.140728
594.430803	0.140928
594.641324	0.140904
594.851827	0.140630
595.062312	0.140935
595.272778	0.141292
595.483227	0.141116
595.693657	0.141048
595.904069	0.141171
596.114462	0.141207
596.324838	0.141200
596.535195	0.141607
596.745534	0.141978
596.955855	0.142007
597.166157	0.141486
597.376441	0.141985
597.586707	0.142286
597.796955	0.142415
598.007185	0.142624
598.217396	0.142398
598.427589	0.142063
598.637764	0.142096
598.847921	0.142012
599.058060	0.142326
599.268180	0.142314
599.478282	0.142220
599.688366	0.142326
599.898431	0.142521
600.108479	0.142982
600.318508	0.143229
600.528519	0.143299
600.738511	0.143513
600.948486	0.143508
601.158442	0.143729
601.368380	0.144038
601.578300	0.144099
601.788202	0.144352
601.998085	0.144411
602.207950	0.144495
602.417797	0.144748
602.627626	0.144883
602.837436	0.145467
603.047228	0.145597
603.257002	0.145581
603.466758	0.145710
603.676496	0.145747
603.886215	0.145824
604.095916	0.145798
604.305599	0.145633
604.515264	0.145552
604.724910	0.145433
604.934538	0.145381
605.144148	0.145450
605.353740	0.145572
605.563314	0.145448
605.772869	0.145496
605.982406	0.145883
606.191925	0.146244
606.401425	0.146624
606.610908	0.146487
606.820372	0.146555
607.029818	0.146770
607.239246	0.146723
607.448655	0.146955
607.658047	0.146890
607.867420	0.147006
608.076775	0.147174
608.286111	0.146827
608.495430	0.147172
608.704730	0.147131
608.914012	0.147272
609.123275	0.147472
609.332521	0.147312
609.541748	0.147690
609.750957	0.147391
609.960148	0.147291
610.169321	0.147513
610.378475	0.147581
610.587611	0.147680
610.796729	0.147684
611.005829	0.147491
611.214910	0.147750
611.423974	0.148122
611.633019	0.148592
611.842045	0.148602
612.051054	0.148884
612.260044	0.148875
612.469017	0.149229
612.677970	0.149420
612.886906	0.149725
613.095824	0.149488
613.304723	0.149358
613.513604	0.149238
613.722467	0.149194
613.931311	0.149231
614.140138	0.149126
614.348946	0.149055
614.557736	0.148904
614.766507	0.149002
614.975261	0.149293
615.183996	0.149183
615.392713	0.149169
615.601412	0.149439
615.810092	0.149498
616.018754	0.150107
616.227399	0.150245
616.436024	0.150472
616.644632	0.150581
616.853222	0.150752
617.061793	0.150921
617.270346	0.151098
617.478880	0.151140
617.687397	0.151180
617.895895	0.150869
618.104375	0.150926
618.312837	0.150646
618.521281	0.150592
618.729706	0.150680
618.938113	0.150547
619.146502	0.150605
619.354873	0.150814
619.563226	0.150834
619.771560	0.151182
619.979876	0.151203
620.188174	0.151800
620.396453	0.151954
620.604715	0.152032
620.812958	0.152211
621.021183	0.152389
621.229390	0.152313
621.437578	0.152404
621.645748	0.152326
621.853900	0.152198
622.062034	0.151988
622.270150	0.152174
622.478247	0.152232
622.686326	0.152382
622.894387	0.152334
623.102430	0.152579
623.310454	0.152750
623.518461	0.152967
623.726449	0.153325
623.934418	0.153409
624.142370	0.153537
624.350303	0.153531
624.558218	0.153551
624.766115	0.153836
624.973994	0.153723
625.181855	0.154007
625.389697	0.154021
625.597521	0.153762
625.805327	0.154037
626.013114	0.153986
626.220883	0.154177
626.428634	0.154203
626.636367	0.154225
626.844082	0.154076
627.051778	0.153830
627.259457	0.153720
627.467117	0.154048
627.674758	0.154054
627.882382	0.153805
628.089987	0.153794
628.297574	0.153944
628.505143	0.154042
628.712694	0.154423
628.920226	0.154643
629.127740	0.154883
629.335236	0.154899
629.542714	0.154875
629.750174	0.155248
629.957615	0.155487
630.165038	0.155451
630.372443	0.155292
630.579829	0.155407
630.787198	0.155495
630.994548	0.155430
631.201880	0.155690
631.409194	0.155772
631.616489	0.155907
631.823766	0.155744
632.031025	0.155981
632.238266	0.156371
632.445489	0.156333
632.652693	0.156275
632.859879	0.156479
633.067047	0.156561
633.274197	0.156642
633.481329	0.156836
633.688442	0.156894
633.895537	0.156827
634.102614	0.156814
634.309672	0.156988
634.516713	0.157071
634.723735	0.156876
634.930739	0.156913
635.137724	0.156965
635.344692	0.156840
635.551641	0.156933
635.758572	0.157134
635.965485	0.156863
636.172379	0.157076
636.379256	0.157359
636.586114	0.157667
636.792954	0.157675
636.999775	0.158018
637.206579	0.158212
637.413364	0.158304
637.620131	0.158379
637.826880	0.158843
638.033610	0.158790
638.240323	0.158675
638.447017	0.158849
638.653692	0.158914
638.860350	0.158677
639.066990	0.158736
639.273611	0.159077
639.480214	0.159073
639.686798	0.159060
639.893365	0.159292
640.099913	0.159459
640.306443	0.159573
640.512955	0.159697
640.719449	0.160045
640.925924	0.159980
641.132381	0.159941
641.338820	0.160050
641.545241	0.160191
641.751644	0.160077
641.958028	0.160332
642.164394	0.160231
642.370742	0.160275
642.577071	0.160112
642.783383	0.160499
642.989676	0.160390
643.195951	0.160567
643.402207	0.160673
643.608446	0.160695
643.814666	0.160432
644.020868	0.160611
644.227052	0.160910
644.433218	0.160910
644.639365	0.160895
644.845494	0.161141
645.051605	0.161210
645.257698	0.161174
645.463772	0.161271
645.669828	0.161506
645.875866	0.161671
646.081886	0.161439
646.287888	0.161695
646.493871	0.161568
646.699836	0.161754
646.905783	0.161885
647.111712	0.162037
647.317622	0.162404
647.523514	0.162511
647.729388	0.162493
647.935244	0.162876
648.141082	0.162890
648.346901	0.163123
648.552702	0.163104
648.758485	0.163262
648.964250	0.163495
649.169996	0.163455
649.375724	0.163556
649.581434	0.163742
649.787126	0.163746
649.992800	0.163984
650.198455	0.163950
650.404092	0.164100
650.609711	0.164132
650.815311	0.164085
651.020894	0.164278
651.226458	0.164361
651.432004	0.164362
651.637532	0.164408
651.843041	0.164417
652.048532	0.164687
652.254006	0.164667
652.459460	0.164686
652.664897	0.164766
652.870315	0.164742
653.075716	0.164919
653.281097	0.164834
653.486461	0.165043
653.691807	0.165184
653.897134	0.165350
654.102443	0.165625
654.307734	0.165706
654.513006	0.166007
654.718261	0.166146
654.923497	0.166380
655.128715	0.166673
655.333915	0.166723
655.539096	0.166825
655.744259	0.166731
655.949404	0.166904
656.154531	0.166889
656.359640	0.166659
656.564730	0.166600
656.769802	0.166492
656.974856	0.166670
657.179892	0.166851
657.384909	0.166922
657.589908	0.167027
657.794889	0.167141
657.999852	0.167482
658.204797	0.167837
658.409723	0.167962
658.614631	0.167943
658.819521	0.168078
659.024393	0.168033
659.229246	0.167959
659.434081	0.168171
659.638898	0.168033
659.843697	0.168001
660.048478	0.167845
660.253240	0.167949
660.457984	0.168152
660.662710	0.168191
660.867417	0.168375
661.072107	0.168544
661.276778	0.168687
661.481431	0.168947
661.686066	0.169142
661.890682	0.169179
662.095281	0.169492
662.299861	0.169590
662.504422	0.169403
662.708966	0.169522
662.913491	0.169824
663.117999	0.169728
663.322488	0.169754
663.526958	0.169797
663.731411	0.170015
663.935845	0.170199
664.140261	0.170048
664.344659	0.170457
664.549038	0.170406
664.753400	0.170386
664.957743	0.170587
665.162068	0.170849
665.366375	0.170922
665.570663	0.171002
665.774933	0.170890
665.979185	0.171046
666.183419	0.170990
666.387635	0.171057
666.591832	0.171073
666.796011	0.171174
667.000172	0.171114
667.204315	0.171340
667.408439	0.171602
667.612545	0.171729
667.816634	0.172053
668.020703	0.172436
668.224755	0.172739
668.428788	0.172996
668.632803	0.173118
668.836800	0.173450
669.040779	0.173536
669.244739	0.173613
669.448681	0.173650
669.652605	0.173846
669.856511	0.173681
670.060399	0.173682
670.264268	0.173778
670.468119	0.173948
670.671952	0.173853
670.875767	0.173884
671.079563	0.173976
671.283341	0.174045
671.487101	0.173997
671.690843	0.174281
671.894567	0.174310
672.098272	0.174404
672.301959	0.174424
672.505628	0.174464
672.709278	0.174730
672.912911	0.174908
673.116525	0.174981
673.320121	0.175143
673.523699	0.175311
673.727258	0.175494
673.930799	0.175574
674.134322	0.175818
674.337827	0.176056
674.541314	0.175936
674.744782	0.176066
674.948232	0.176311
675.151664	0.176607
675.355078	0.176629
675.558474	0.176883
675.761851	0.177137
675.965210	0.177167
676.168551	0.177101
676.371873	0.177388
676.575178	0.177290
676.778464	0.177515
676.981732	0.177370
677.184981	0.177532
677.388213	0.177496
677.591426	0.177668
677.794621	0.177729
677.997798	0.177909
678.200956	0.177851
678.404097	0.178277
678.607219	0.178257
678.810323	0.178511
679.013408	0.178570
679.216476	0.178858
679.419525	0.178850
679.622556	0.179189
679.825569	0.179267
680.028563	0.179555
680.231540	0.179488
680.434498	0.179697
680.637438	0.179842
680.840359	0.180038
681.043263	0.179967
681.246148	0.180069
681.449015	0.179762
681.651864	0.179963
681.854694	0.180027
682.057506	0.180071
682.260301	0.180115
682.463076	0.179975
682.665834	0.179995
682.868573	0.179892
683.071295	0.179906
683.273998	0.180414
683.476682	0.180471
683.679349	0.180411
683.881997	0.180591
684.084627	0.180726
684.287239	0.180941
684.489833	0.181042
684.692408	0.181517
684.894965	0.181765
685.097504	0.181643
685.300025	0.181895
685.502527	0.182052
685.705012	0.182078
685.907478	0.182379
686.109925	0.182413
686.312355	0.182461
686.514766	0.182687
686.717159	0.182769
686.919534	0.182853
687.121891	0.182859
687.324230	0.183031
687.526550	0.183105
687.728852	0.183004
687.931136	0.183153
688.133401	0.183092
688.335649	0.182817
688.537878	0.182806
688.740089	0.182937
688.942281	0.183200
689.144456	0.183031
689.346612	0.183223
689.548750	0.183317
689.750870	0.183438
689.952971	0.183701
690.155055	0.183929
690.357120	0.184045
690.559167	0.184150
690.761195	0.183898
690.963206	0.184408
691.165198	0.184411
691.367172	0.184525
691.569128	0.184488
691.771065	0.184666
691.972984	0.184750
692.174885	0.184999
692.376768	0.185253
692.578633	0.185621
692.780479	0.185504
692.982308	0.185632
693.184118	0.185597
693.385909	0.185856
693.587683	0.185744
693.789438	0.185991
693.991175	0.185949
694.192894	0.185780
694.394595	0.185814
694.596277	0.185933
694.797941	0.186107
694.999587	0.186242
695.201215	0.186185
695.402824	0.186327
695.604416	0.186232
695.805989	0.186052
696.007543	0.186245
696.209080	0.186279
696.410598	0.186412
696.612099	0.186432
696.813580	0.186608
697.015044	0.186774
697.216490	0.187039
697.417917	0.187058
697.619326	0.187432
697.820717	0.187549
698.022089	0.187583
698.223444	0.187733
698.424780	0.187918
698.626098	0.187971
698.827397	0.188162
699.028679	0.188110
699.229942	0.188254
699.431187	0.188190
699.632414	0.188159
699.833622	0.188462
700.034813	0.188547
700.235985	0.188631
700.437139	0.188713
700.638274	0.188888
700.839392	0.189077
701.040491	0.189383
701.241572	0.189659
701.442635	0.189760
701.643679	0.189732
701.844706	0.189634
702.045714	0.189447
702.246704	0.189491
702.447675	0.189453
702.648629	0.189379
702.849564	0.189168
703.050481	0.188990
703.251380	0.189118
703.452260	0.189154
703.653122	0.189255
703.853966	0.189484
704.054792	0.189521
704.255600	0.189355
704.456389	0.189445
704.657160	0.189490
704.857913	0.189617
705.058648	0.189627
705.259365	0.189564
705.460063	0.189610
705.660743	0.189467
705.861405	0.189240
706.062048	0.189367
706.262674	0.189242
706.463281	0.189110
706.663870	0.189148
706.864441	0.189074
707.064993	0.189036
707.265527	0.189000
707.466043	0.188877
707.666541	0.189242
707.867021	0.189330
708.067482	0.189388
708.267925	0.189529
708.468350	0.189662
708.668757	0.189649
708.869145	0.189755
709.069516	0.189667
709.269868	0.189900
709.470201	0.189782
709.670517	0.189842
709.870814	0.189886
710.071093	0.189952
710.271354	0.189769
710.471597	0.189889
710.671821	0.189960
710.872028	0.190127
711.072216	0.190241
711.272385	0.190258
711.472537	0.190049
711.672670	0.189905
711.872785	0.189909
712.072882	0.189854
712.272961	0.189679
712.473021	0.189568
712.673063	0.189504
712.873087	0.189177
713.073093	0.189209
713.273081	0.189442
713.473050	0.189803
713.673001	0.189938
713.872934	0.190101
714.072849	0.190310
714.272745	0.190381
714.472623	0.190297
714.672483	0.190457
714.872325	0.190402
715.072148	0.190221
715.271954	0.189894
715.471741	0.189894
715.671509	0.189503
715.871260	0.189339
716.070992	0.189431
716.270707	0.189559
716.470403	0.189820
716.670080	0.189926
716.869740	0.189923
717.069381	0.190093
717.269004	0.189828
717.468609	0.190072
717.668195	0.190249
717.867764	0.190101
718.067314	0.189805
718.266846	0.189661
718.466360	0.189426
718.665855	0.189504
718.865332	0.189343
719.064791	0.189229
719.264232	0.189217
719.463655	0.189106
719.663059	0.188831
719.862445	0.189066
720.061813	0.188972
720.261163	0.189015
720.460494	0.189021
720.659807	0.189027
720.859102	0.189093
721.058379	0.189057
721.257638	0.189119
721.456878	0.189345
721.656100	0.189223
721.855304	0.189130
722.054490	0.188962
722.253657	0.188951
722.452806	0.188959
722.651937	0.189256
722.851050	0.189367
723.050145	0.189215
723.249221	0.188955
723.448279	0.189004
723.647319	0.188997
723.846340	0.189122
724.045344	0.188907
724.244329	0.188850
724.443296	0.188606
724.642245	0.188379
724.841175	0.188332
725.040088	0.188398
725.238982	0.188443
725.437857	0.188562
725.636715	0.188430
725.835554	0.188405
726.034376	0.188142
726.233179	0.188104
726.431963	0.188183
726.630730	0.188039
726.829478	0.187892
727.028208	0.187623
727.226920	0.187342
727.425614	0.187325
727.624289	0.187317
727.822946	0.187269
728.021585	0.187267
728.220206	0.187057
728.418808	0.187046
728.617392	0.187105
728.815958	0.186958
729.014506	0.186809
729.213036	0.186648
729.411547	0.186492
729.610040	0.186694
729.808515	0.186374
730.006972	0.186320
730.205410	0.186182
730.403831	0.186018
730.602233	0.186143
730.800616	0.186048
730.998982	0.186022
731.197329	0.186018
731.395658	0.185829
731.593969	0.185824
731.792262	0.185890
731.990536	0.185840
732.188793	0.185897
732.387031	0.185474
732.585250	0.185557
732.783452	0.185700
732.981635	0.185687
733.179800	0.185762
733.377947	0.185681
733.576076	0.185542
733.774186	0.185554
733.972278	0.185469
734.170352	0.185618
734.368408	0.185661
734.566446	0.185497
734.764465	0.185478
734.962466	0.185438
735.160449	0.185438
735.358413	0.185392
735.556360	0.185343
735.754288	0.185186
735.952198	0.184915
736.150090	0.184363
736.347963	0.184204
736.545818	0.183911
736.743655	0.183574
736.941474	0.183310
737.139275	0.182973
737.337057	0.182790
737.534821	0.182738
737.732567	0.182750
737.930295	0.182947
738.128005	0.182669
738.325696	0.182557
738.523369	0.182437
738.721024	0.182351
738.918660	0.182239
739.116279	0.182081
739.313879	0.181757
739.511461	0.181727
739.709024	0.181725
739.906570	0.181702
740.104097	0.181363
740.301606	0.181453
740.499097	0.181472
740.696569	0.181567
740.894024	0.181537
741.091460	0.181652
741.288878	0.181457
741.486277	0.181069
741.683659	0.181133
741.881022	0.181148
742.078367	0.180925
742.275694	0.180876
742.473002	0.180791
742.670293	0.180692
742.867565	0.180404
743.064819	0.180581
743.262054	0.180775
743.459272	0.180504
743.656471	0.180430
743.853652	0.180411
744.050815	0.180258
744.247959	0.180191
744.445085	0.180260
744.642194	0.180402
744.839283	0.180160
745.036355	0.180047
745.233408	0.180126
745.430444	0.180169
745.627461	0.179979
745.824459	0.179990
746.021440	0.180001
746.218402	0.179689
746.415346	0.179807
746.612272	0.179944
746.809180	0.179938
747.006069	0.180079
747.202940	0.180071
747.399793	0.180029
747.596628	0.179823
747.793444	0.179600
747.990243	0.179573
748.187023	0.179322
748.383784	0.179129
748.580528	0.178898
748.777253	0.178597
748.973960	0.178533
749.170649	0.178430
749.367320	0.178384
749.563973	0.178420
749.760607	0.178273
749.957223	0.178125
750.153821	0.177905
750.350400	0.177947
750.546962	0.177608
750.743505	0.177542
750.940030	0.177311
751.136536	0.177160
751.333025	0.176919
751.529495	0.176933
751.725947	0.176951
751.922381	0.177079
752.118796	0.176753
752.315194	0.177063
752.511573	0.176907
752.707934	0.177066
752.904276	0.177119
753.100601	0.177047
753.296907	0.176997
753.493195	0.176986
753.689465	0.176973
753.885716	0.177120
754.081949	0.176806
754.278164	0.176878
754.474361	0.176879
754.670540	0.176748
754.866700	0.176763
755.062843	0.176647
755.258967	0.176591
755.455072	0.176337
755.651160	0.176190
755.847229	0.176167
756.043280	0.176010
756.239313	0.175916
756.435328	0.175818
756.631324	0.175651
756.827302	0.175583
757.023262	0.175191
757.219204	0.175105
757.415127	0.175081
757.611033	0.174920
757.806920	0.174555
758.002788	0.174446
758.198639	0.174310
758.394471	0.174358
758.590286	0.174217
758.786081	0.174125
758.981859	0.173897
759.177619	0.173938
759.373360	0.173806
759.569083	0.173947
759.764788	0.173994
759.960474	0.174130
760.156143	0.173904
760.351793	0.173715
760.547425	0.174022
760.743038	0.174137
760.938634	0.173940
761.134211	0.174008
761.329770	0.174022
761.525311	0.173842
761.720833	0.173651
761.916338	0.173702
762.111824	0.173973
762.307292	0.173677
762.502741	0.173552
762.698173	0.173359
762.893586	0.173274
763.088981	0.173092
763.284358	0.173147
763.479716	0.172974
763.675057	0.172734
763.870379	0.172484
764.065683	0.172508
764.260968	0.172553
764.456236	0.172596
764.651485	0.172637
764.846716	0.172562
765.041929	0.172204
765.237123	0.172194
765.432299	0.172369
765.627457	0.172221
765.822597	0.172000
766.017719	0.171991
766.212822	0.172084
766.407907	0.171901
766.602974	0.171972
766.798023	0.172142
766.993054	0.172078
767.188066	0.171822
767.383060	0.172011
767.578036	0.171809
767.772993	0.171511
767.967933	0.171238
768.162854	0.171074
768.357757	0.170978
768.552642	0.170857
768.747508	0.171196
768.942356	0.171157
769.137186	0.170872
769.331998	0.171114
769.526792	0.171325
769.721567	0.171334
769.916324	0.171631
770.111063	0.171789
770.305784	0.171556
770.500486	0.171419
770.695171	0.171681
770.889837	0.171702
771.084484	0.171635
771.279114	0.171524
771.473725	0.171644
771.668318	0.171402
771.862893	0.171318
772.057450	0.171530
772.251988	0.171476
772.446509	0.171474
772.641011	0.171532
772.835494	0.171439
773.029960	0.171585
773.224407	0.171549
773.418836	0.171638
773.613247	0.171669
773.807640	0.171666
774.002014	0.171422
774.196370	0.171286
774.390708	0.171410
774.585028	0.171492
774.779330	0.171246
774.973613	0.171232
775.167878	0.171269
775.362125	0.171253
775.556354	0.171201
775.750564	0.171299
775.944756	0.171070
776.138930	0.170887
776.333086	0.170830
776.527223	0.170651
776.721343	0.170537
776.915444	0.170439
777.109526	0.170273
777.303591	0.170224
777.497637	0.170047
777.691666	0.170182
777.885676	0.170199
778.079667	0.170179
778.273641	0.170497
778.467596	0.170464
778.661533	0.170355
778.855452	0.170437
779.049352	0.170562
779.243235	0.170665
779.437099	0.170807
779.630945	0.170961
779.824773	0.170980
780.018582	0.171087
780.212373	0.171240
780.406146	0.171504
780.599901	0.171373
780.793638	0.170983
780.987356	0.171008
781.181056	0.170824
781.374738	0.170888
781.568402	0.170892
781.762047	0.170706
781.955674	0.170639
782.149283	0.170458
782.342874	0.170458
782.536447	0.170828
782.730001	0.170987
782.923537	0.170970
783.117055	0.170723
783.310555	0.170751
783.504036	0.170697
783.697499	0.170660
783.890944	0.170760
784.084371	0.170950
784.277780	0.171019
784.471170	0.170871
784.664542	0.171150
784.857896	0.171043
785.051231	0.171106
785.244549	0.171168
785.437848	0.171244
785.631129	0.171367
785.824392	0.171413
786.017636	0.171313
786.210863	0.171488
786.404071	0.171297
786.597260	0.171473
786.790432	0.171611
786.983585	0.171791
787.176721	0.171823
787.369838	0.171660
787.562936	0.171392
787.756017	0.171370
787.949079	0.171214
788.142123	0.171297
788.335149	0.171593
788.528156	0.171435
788.721146	0.171300
788.914117	0.171153
789.107070	0.171227
789.300005	0.171537
789.492921	0.171605
789.685819	0.171754
789.878699	0.171970
790.071561	0.171796
790.264405	0.171946
790.457230	0.172058
790.650037	0.172394
790.842826	0.172309
791.035597	0.172194
791.228349	0.172331
791.421084	0.172293
791.613800	0.172348
791.806497	0.172434
791.999177	0.172408
792.191838	0.172491
792.384481	0.172538
792.577106	0.172505
792.769713	0.172664
792.962301	0.172534
793.154871	0.172802
793.347423	0.172766
793.539957	0.172917
793.732473	0.172808
793.924970	0.172769
794.117449	0.172699
794.309910	0.172728
794.502353	0.172607
794.694777	0.172579
794.887183	0.172529
795.079571	0.172408
795.271941	0.172199
795.464293	0.172391
795.656626	0.172646
795.848941	0.172748
796.041238	0.173120
796.233516	0.173282
796.425777	0.173397
796.618019	0.173617
796.810243	0.173974
797.002449	0.174101
797.194636	0.174744
797.386805	0.174675
797.578956	0.174908
797.771089	0.174990
797.963204	0.175185
798.155300	0.175548
798.347378	0.175728
798.539438	0.175501
798.731480	0.175731
798.923503	0.175385
799.115509	0.175502
799.307496	0.175492
799.499465	0.175527
799.691415	0.175505
799.883348	0.175750
800.075262	0.175535
800.267158	0.175780
800.459035	0.175926
800.650895	0.176064
800.842736	0.175888
801.034559	0.175944
801.226364	0.176175
801.418150	0.176211
801.609919	0.176176
801.801669	0.176471
801.993401	0.176558
802.185114	0.176525
802.376810	0.176629
802.568487	0.177174
802.760146	0.177320
802.951787	0.177152
803.143409	0.177375
803.335014	0.177607
803.526600	0.177448
803.718168	0.177547
803.909717	0.177851
804.101249	0.177900
804.292762	0.178038
804.484257	0.178037
804.675734	0.178305
804.867192	0.178539
805.058632	0.178435
805.250054	0.178861
805.441458	0.179329
805.632844	0.179310
805.824211	0.179549
806.015561	0.179732
806.206891	0.179635
806.398204	0.179684
806.589499	0.179728
806.780775	0.179803
806.972033	0.179435
807.163273	0.179322
807.354495	0.179593
807.545698	0.179634
807.736883	0.179524
807.928050	0.179945
808.119199	0.180184
808.310329	0.180333
808.501441	0.180659
808.692535	0.181074
808.883611	0.181238
809.074669	0.181086
809.265708	0.181203
809.456729	0.181385
809.647732	0.181681
809.838717	0.181930
810.029683	0.182187
810.220632	0.182109
810.411562	0.182247
810.602474	0.182284
810.793367	0.182687
810.984242	0.182770
811.175100	0.183115
811.365938	0.183140
811.556759	0.182843
811.747562	0.182823
811.938346	0.182988
812.129112	0.183000
812.319860	0.182767
812.510589	0.182940
812.701300	0.183140
812.891994	0.182751
813.082668	0.182897
813.273325	0.183330
813.463964	0.183516
813.654584	0.183865
813.845186	0.184020
814.035769	0.184597
814.226335	0.184730
814.416882	0.184843
814.607411	0.185187
814.797922	0.185192
814.988415	0.185541
815.178889	0.185746
815.369345	0.185750
815.559783	0.186143
815.750203	0.186369
815.940605	0.186402
816.130988	0.186790
816.321353	0.187190
816.511700	0.187757
816.702028	0.187853
816.892339	0.188023
817.082631	0.188219
817.272905	0.188466
817.463161	0.188353
817.653398	0.188721
817.843617	0.188586
818.033819	0.188709
818.224001	0.188457
818.414166	0.188647
818.604312	0.189077
818.794440	0.189015
818.984550	0.189302
819.174642	0.189557
819.364716	0.189304
819.554771	0.189610
819.744808	0.189782
819.934827	0.190098
820.124827	0.190027
820.314810	0.189866
820.504774	0.190200
820.694720	0.189960
820.884647	0.190328
821.074557	0.190419
821.264448	0.190526
821.454321	0.190578
821.644176	0.190638
821.834012	0.190773
822.023831	0.191159
822.213631	0.191172
822.403413	0.191383
822.593176	0.191274
822.782922	0.191860
822.972649	0.192137
823.162358	0.192234
823.352049	0.192546
823.541721	0.193016
823.731376	0.192906
823.921012	0.193246
824.110629	0.193421
824.300229	0.193850
824.489811	0.193941
824.679374	0.193860
824.868919	0.194160
825.058445	0.194155
825.247954	0.194358
825.437444	0.194586
825.626916	0.194747
825.816370	0.195045
826.005806	0.195070
826.195223	0.195150
826.384622	0.195407
826.574003	0.195430
826.763366	0.195842
826.952711	0.195953
827.142037	0.195950
827.331345	0.196180
827.520635	0.196475
827.709906	0.196686
827.899160	0.196813
828.088395	0.197080
828.277612	0.197149
828.466810	0.197211
828.655991	0.197318
828.845153	0.197565
829.034297	0.197679
829.223423	0.197820
829.412531	0.198014
829.601620	0.198371
829.790691	0.198532
829.979744	0.199059
830.168779	0.199093
830.357795	0.199236
830.546793	0.199655
830.735773	0.199957
830.924735	0.200224
831.113679	0.200715
831.302604	0.200772
831.491511	0.200886
831.680400	0.200885
831.869271	0.201531
832.058123	0.201821
832.246957	0.202086
832.435773	0.202347
832.624571	0.202236
832.813351	0.202247
833.002112	0.202472
833.190855	0.202871
833.379580	0.203164
833.568287	0.202994
833.756975	0.203213
833.945645	0.203457
834.134297	0.203527
834.322931	0.203912
834.511547	0.203862
834.700144	0.204125
834.888723	0.204212
835.077284	0.204317
835.265826	0.204616
835.454351	0.204997
835.642857	0.204912
835.831345	0.205352
836.019815	0.205595
836.208266	0.206029
836.396699	0.206144
836.585114	0.206490
836.773511	0.206947
836.961890	0.207550
837.150250	0.207646
837.338592	0.208056
837.526916	0.208322
837.715222	0.208472
837.903510	0.208758
838.091779	0.209452
838.280030	0.209602
838.468263	0.209730
838.656477	0.209547
838.844674	0.209761
839.032852	0.210024
839.221012	0.210265
839.409153	0.210598
839.597277	0.210885
839.785382	0.210789
839.973469	0.210876
840.161538	0.211324
840.349589	0.211596
840.537621	0.211585
840.725635	0.211684
840.913631	0.211520
841.101609	0.211706
841.289568	0.211870
841.477509	0.212027
841.665432	0.212510
841.853337	0.212713
842.041224	0.213010
842.229092	0.213227
842.416942	0.213518
842.604774	0.213905
842.792588	0.214254
842.980383	0.214510
843.168160	0.214885
843.355919	0.215048
843.543660	0.215139
843.731382	0.215287
843.919087	0.215754
844.106773	0.216063
844.294441	0.216344
844.482090	0.216500
844.669722	0.216883
844.857335	0.216997
845.044930	0.217155
845.232507	0.217498
845.420065	0.217842
845.607605	0.217960
845.795127	0.218218
845.982631	0.218566
846.170117	0.218769
846.357584	0.218820
846.545033	0.219223
846.732464	0.219336
846.919877	0.219619
847.107272	0.219713
847.294648	0.220171
847.482006	0.220520
847.669346	0.220676
847.856667	0.221021
848.043971	0.221373
848.231256	0.221379
848.418523	0.221793
848.605771	0.221960
848.793002	0.222388
848.980214	0.222503
849.167408	0.222518
849.354584	0.222690
849.541742	0.222813
849.728881	0.222794
849.916002	0.223347
850.103105	0.223737
850.290190	0.223796
850.477256	0.223938
850.664304	0.224212
850.851334	0.224538
851.038346	0.224846
851.225340	0.225005
851.412315	0.225394
851.599272	0.225308
851.786211	0.225558
851.973132	0.225976
852.160034	0.226334
852.346918	0.226619
852.533784	0.226612
852.720632	0.226697
852.907462	0.226867
853.094273	0.227045
853.281066	0.227442
853.467841	0.227596
853.654598	0.227547
853.841336	0.227731
854.028056	0.227920
854.214758	0.228461
854.401442	0.228749
854.588107	0.229431
854.774755	0.229649
854.961384	0.230125
855.147995	0.230238
855.334587	0.230726
855.521162	0.230964
855.707718	0.231020
855.894256	0.231112
856.080775	0.231224
856.267277	0.231158
856.453760	0.231371
856.640225	0.231290
856.826672	0.231808
857.013101	0.231874
857.199511	0.232445
857.385903	0.232796
857.572277	0.232850
857.758633	0.233091
857.944970	0.233021
858.131290	0.233251
858.317591	0.233512
858.503873	0.233417
858.690138	0.234079
858.876384	0.233963
859.062612	0.234016
859.248822	0.234364
859.435014	0.234588
859.621188	0.235076
859.807343	0.235327
859.993480	0.235753
860.179599	0.236131
860.365699	0.236080
860.551781	0.236101
860.737846	0.236729
860.923891	0.236841
861.109919	0.237281
861.295929	0.237565
861.481920	0.237943
861.667893	0.237908
861.853848	0.238334
862.039784	0.238211
862.225702	0.238821
862.411603	0.239053
862.597484	0.239515
862.783348	0.239822
862.969193	0.239790
863.155021	0.240136
863.340830	0.240412
863.526620	0.240285
863.712393	0.240968
863.898147	0.240992
864.083883	0.240993
864.269601	0.241054
864.455301	0.240803
864.640982	0.241322
864.826645	0.241281
865.012290	0.241600
865.197917	0.241938
865.383526	0.241870
865.569116	0.242223
865.754688	0.242598
865.940242	0.242790
866.125777	0.243123
866.311295	0.243435
866.496794	0.243558
866.682275	0.243687
866.867737	0.243999
867.053182	0.244256
867.238608	0.244098
867.424016	0.243881
867.609406	0.244043
867.794778	0.244621
867.980131	0.244369
868.165466	0.244594
868.350783	0.244862
868.536082	0.244590
868.721362	0.244894
868.906625	0.245140
869.091869	0.245485
869.277094	0.245504
869.462302	0.245185
869.647491	0.245630
869.832662	0.245883
870.017815	0.245837
870.202950	0.246399
870.388066	0.246333
870.573165	0.246327
870.758245	0.246574
870.943306	0.246900
871.128350	0.247611
871.313375	0.247788
871.498382	0.247702
871.683371	0.248207
871.868342	0.248236
872.053294	0.248466
872.238229	0.248803
872.423144	0.248710
872.608042	0.248947
872.792922	0.248915
872.977783	0.249048
873.162626	0.249361
873.347451	0.249651
873.532258	0.249868
873.717046	0.250068
873.901816	0.250486
874.086568	0.250910
874.271302	0.250722
874.456017	0.251020
874.640715	0.251462
874.825394	0.251450
875.010055	0.251213
875.194697	0.251221
875.379322	0.251067
875.563928	0.250869
875.748516	0.250759
875.933085	0.251083
876.117637	0.251154
876.302170	0.251024
876.486685	0.251025
876.671182	0.251252
876.855661	0.251382
877.040121	0.251698
877.224563	0.251469
877.408987	0.251483
877.593393	0.251437
877.777780	0.251088
877.962150	0.251163
878.146501	0.251601
878.330833	0.251130
878.515148	0.251648
878.699444	0.251923
878.883722	0.252595
879.067982	0.252746
879.252224	0.252981
879.436447	0.253246
879.620653	0.253571
879.804840	0.253464
879.989008	0.253923
880.173159	0.253259
880.357291	0.253142
880.541405	0.253048
880.725501	0.253289
880.909579	0.253541
881.093638	0.253939
881.277680	0.253933
881.461703	0.254162
881.645707	0.254364
881.829694	0.254666
882.013662	0.254945
882.197612	0.255124
882.381544	0.255322
882.565458	0.255632
882.749353	0.255693
882.933230	0.255241
883.117089	0.255189
883.300930	0.254914
883.484753	0.254897
883.668557	0.254881
883.852343	0.254656
884.036111	0.254381
884.219861	0.254143
884.403592	0.253961
884.587305	0.254169
884.771000	0.254265
884.954677	0.254691
885.138335	0.254660
885.321976	0.254531
885.505598	0.254596
885.689201	0.254831
885.872787	0.254933
886.056354	0.254924
886.239904	0.255255
886.423434	0.255355
886.606947	0.254859
886.790442	0.255160
886.973918	0.255138
887.157376	0.254928
887.340816	0.254727
887.524237	0.254462
887.707641	0.254088
887.891026	0.253580
888.074393	0.253067
888.257741	0.253452
888.441072	0.253756
888.624384	0.253532
888.807678	0.253773
888.990954	0.253875
889.174211	0.254020
889.357451	0.253867
889.540672	0.253861
889.723875	0.253956
889.907059	0.253965
890.090226	0.253689
890.273374	0.253823
890.456504	0.254085
890.639616	0.253852
890.822709	0.253646
891.005785	0.254202
891.188842	0.254206
891.371881	0.254680
891.554901	0.254810
891.737904	0.254442
891.920888	0.254236
892.103854	0.253768
892.286802	0.253711
892.469731	0.253978
892.652643	0.253737
892.835536	0.253993
893.018410	0.254043
893.201267	0.253778
893.384106	0.254136
893.566926	0.254274
893.749728	0.254368
893.932511	0.254764
894.115277	0.254081
894.298024	0.254503
894.480753	0.254451
894.663464	0.254053
894.846157	0.254218
895.028831	0.253779
895.211487	0.253752
895.394125	0.253557
895.576745	0.252925
895.759346	0.253347
895.941930	0.252801
896.124495	0.252381
896.307041	0.252484
896.489570	0.251937
896.672080	0.252074
896.854573	0.251871
897.037046	0.252096
897.219502	0.252257
897.401940	0.252176
897.584359	0.252247
897.766760	0.252397
897.949143	0.252093
898.131507	0.252128
898.313854	0.251797
898.496182	0.251713
898.678492	0.251591
898.860783	0.251608
899.043057	0.251097
899.225312	0.250911
899.407549	0.251221
899.589768	0.251041
899.771968	0.250646
899.954151	0.250711
900.136315	0.250782
900.318461	0.250528
900.500588	0.249995
900.682698	0.249759
900.864789	0.249235
901.046862	0.248614
901.228917	0.248058
901.410953	0.248160
901.592971	0.247625
901.774972	0.247205
901.956953	0.246496
902.138917	0.246428
902.320862	0.246466
902.502790	0.246852
902.684699	0.246644
902.866589	0.247097
903.048462	0.246694
903.230316	0.246853
903.412152	0.246846
903.593970	0.246998
903.775770	0.247237
903.957551	0.246666
904.139314	0.246305
904.321059	0.246147
904.502786	0.245608
904.684494	0.245673
904.866185	0.245377
905.047857	0.245138
905.229510	0.245013
905.411146	0.244580
905.592763	0.244936
905.774363	0.244605
905.955943	0.244491
906.137506	0.244192
906.319051	0.243668
906.500577	0.243380
906.682085	0.242860
906.863575	0.242561
907.045046	0.241959
907.226500	0.241394
907.407935	0.241055
907.589352	0.240204
907.770750	0.240265
907.952131	0.240147
908.133493	0.239840
908.314837	0.239678
908.496163	0.239779
908.677470	0.239857
908.858760	0.239602
909.040031	0.239215
909.221284	0.239496
909.402518	0.239267
909.583735	0.239230
909.764933	0.239216
909.946113	0.238732
910.127275	0.238280
910.308418	0.238113
910.489544	0.238545
910.670651	0.238942
910.851740	0.238527
911.032810	0.238345
911.213863	0.238195
911.394897	0.237617
911.575913	0.237307
911.756911	0.236923
911.937890	0.236250
912.118851	0.235744
912.299794	0.234893
912.480719	0.234146
912.661626	0.233502
912.842514	0.232808
913.023384	0.232501
913.204236	0.232520
913.385070	0.232436
913.565886	0.232442
913.746683	0.231749
913.927462	0.231629
914.108223	0.231787
914.288965	0.231237
914.469690	0.230942
914.650396	0.230491
914.831084	0.230095
915.011754	0.229333
915.192405	0.229082
915.373038	0.229021
915.553653	0.228653
915.734250	0.227905
915.914829	0.227456
916.095389	0.227062
916.275931	0.226401
916.456455	0.225710
916.636961	0.225061
916.817448	0.224247
916.997917	0.223779
917.178368	0.222864
917.358801	0.222574
917.539216	0.222385
917.719612	0.221609
917.899990	0.221344
918.080350	0.221188
918.260692	0.221298
918.441015	0.220987
918.621320	0.220462
918.801607	0.220180
918.981876	0.219618
919.162127	0.219114
919.342359	0.219171
919.522573	0.218820
919.702769	0.218104
919.882947	0.217106
920.063106	0.216924
920.243247	0.216105
920.423370	0.216228
920.603475	0.215750
920.783562	0.215469
920.963630	0.214921
921.143680	0.214490
921.323712	0.214270
921.503725	0.214214
921.683721	0.213643
921.863698	0.213373
922.043657	0.212493
922.223598	0.212301
922.403520	0.212214
922.583424	0.211873
922.763311	0.211838
922.943178	0.211475
923.123028	0.210843
923.302859	0.210540
923.482673	0.210391
923.662467	0.209563
923.842244	0.208980
924.022003	0.208031
924.201743	0.207051
924.381465	0.206295
924.561169	0.205790
924.740854	0.205065
924.920522	0.204294
925.100171	0.204002
925.279802	0.203555
925.459414	0.203529
925.639009	0.203147
925.818585	0.202650
925.998143	0.201508
926.177683	0.200647
926.357205	0.200610
926.536708	0.199112
926.716193	0.198499
926.895660	0.197979
927.075109	0.196758
927.254539	0.195809
927.433951	0.195606
927.613345	0.196169
927.792721	0.195759
927.972079	0.194619
928.151418	0.194611
928.330739	0.193710
928.510042	0.193427
928.689327	0.193098
928.868593	0.193026
929.047841	0.192245
929.227071	0.191420
929.406283	0.190997
929.585476	0.190876
929.764652	0.190889
929.943809	0.189636
930.122948	0.188594
930.302068	0.187625
930.481171	0.186887
930.660255	0.186578
930.839321	0.185934
931.018369	0.185570
931.197398	0.184503
931.376409	0.183399
931.555402	0.183195
931.734377	0.183213
931.913334	0.182867
932.092272	0.182597
932.271192	0.182353
932.450094	0.181735
932.628978	0.181293
932.807844	0.180687
932.986691	0.180395
933.165520	0.180329
933.344331	0.179801
933.523123	0.179384
933.701898	0.178041
933.880654	0.176351
934.059392	0.174934
934.238111	0.173791
934.416813	0.173692
934.595496	0.173006
934.774161	0.172249
934.952808	0.171030
935.131437	0.170054
935.310047	0.170208
935.488639	0.169474
935.667213	0.169036
935.845769	0.168556
936.024306	0.168107
936.202825	0.167169
936.381326	0.166382
936.559809	0.166250
936.738274	0.166329
936.916720	0.165393
937.095148	0.165337
937.273558	0.164866
937.451950	0.164371
937.630323	0.163183
937.808678	0.163648
937.987015	0.162813
938.165334	0.161670
938.343635	0.159994
938.521917	0.158884
938.700181	0.158612
938.878427	0.158185
939.056655	0.156865
939.234864	0.156392
939.413055	0.155212
939.591228	0.154392
939.769383	0.154310
939.947519	0.154064
940.125638	0.153717
940.303738	0.152365
940.481820	0.152127
940.659883	0.152267
940.837929	0.152244
941.015956	0.150597
941.193965	0.150132
941.371955	0.149371
941.549928	0.149141
941.727882	0.148023
941.905818	0.148022
942.083736	0.146635
942.261636	0.145561
942.439517	0.144429
942.617380	0.144240
942.795225	0.143450
942.973052	0.142594
943.150860	0.141873
943.328651	0.142640
943.506423	0.141472
943.684176	0.140978
943.861912	0.140291
944.039629	0.139276
944.217328	0.137595
944.395009	0.136315
944.572672	0.135299
944.750317	0.134399
944.927943	0.132070
945.105551	0.130890
945.283141	0.129968
945.460712	0.128693
945.638265	0.128121
945.815801	0.129084
945.993317	0.129197
946.170816	0.128747
946.348297	0.127826
946.525759	0.127149
946.703203	0.127059
946.880629	0.127106
947.058036	0.127463
947.235425	0.126026
947.412797	0.123282
947.590149	0.121913
947.767484	0.121241
947.944800	0.121166
948.122099	0.119885
948.299379	0.119330
948.476640	0.118689
948.653884	0.117121
948.831109	0.116259
949.008316	0.116472
949.185505	0.115521
949.362676	0.114991
949.539828	0.113942
949.716962	0.113648
949.894078	0.112740
950.071176	0.111785
950.248256	0.111435
950.425317	0.113629
950.602360	0.113187
950.779385	0.112808
950.956391	0.112271
951.133380	0.110892
951.310350	0.109900
951.487302	0.109895
951.664235	0.108511
951.841151	0.107938
952.018048	0.105093
952.194927	0.104547
952.371788	0.104331
952.548631	0.102865
952.725455	0.102669
952.902261	0.102654
953.079049	0.102525
953.255819	0.101798
953.432570	0.101226
953.609303	0.100406
953.786018	0.099698
953.962715	0.100618
954.139394	0.100120
954.316054	0.098228
954.492696	0.097285
954.669320	0.095559
954.845926	0.094350
955.022513	0.093506
955.199083	0.093168
955.375634	0.092867
955.552166	0.091246
955.728681	0.092274
955.905177	0.093100
956.081655	0.094417
956.258115	0.094648
956.434557	0.096456
956.610980	0.096161
956.787385	0.095967
956.963772	0.094314
957.140141	0.093682
957.316492	0.093560
957.492824	0.094394
957.669138	0.092984
957.845434	0.091488
958.021712	0.090156
958.197971	0.089992
958.374212	0.089945
958.550435	0.090763
958.726640	0.088702
958.902826	0.088569
959.078995	0.087852
959.255145	0.086687
959.431277	0.087813
959.607390	0.086910
959.783486	0.086667
959.959563	0.087044
960.135622	0.087595
960.311662	0.087447
960.487685	0.086015
960.663689	0.086738
960.839675	0.086614
961.015643	0.084738
961.191593	0.084772
961.367524	0.084886
961.543437	0.083056
961.719332	0.081385
961.895209	0.082309
962.071067	0.080903
962.246907	0.079037
962.422730	0.079942
962.598533	0.081481
962.774319	0.081959
962.950086	0.082552
963.125835	0.082675
963.301566	0.083033
963.477279	0.082455
963.652973	0.081658
963.828650	0.081021
964.004308	0.079434
964.179947	0.079849
964.355569	0.078615
964.531172	0.077541
964.706757	0.078552
964.882324	0.078698
965.057873	0.079949
965.233403	0.080311
965.408916	0.079119
965.584410	0.081934
965.759885	0.079011
965.935343	0.079045
966.110782	0.078009
966.286203	0.076066
966.461606	0.074019
966.636991	0.074236
966.812357	0.074827
966.987705	0.074875
967.163035	0.073862
967.338347	0.074524
967.513641	0.074070
967.688916	0.073773
967.864173	0.075069
968.039412	0.077457
968.214632	0.077268
968.389835	0.076666
968.565019	0.078910
968.740185	0.076654
968.915333	0.077120
969.090462	0.079146
969.265573	0.081257
969.440667	0.082490
969.615741	0.083130
969.790798	0.082667
969.965836	0.081963
970.140856	0.081886
970.315858	0.083799
970.490842	0.083151
970.665808	0.082605
970.840755	0.080167
971.015684	0.079163
971.190595	0.077624
971.365487	0.078094
971.540362	0.079364
971.715218	0.079070
971.890056	0.078255
972.064875	0.078790
972.239677	0.076671
972.414460	0.077241
972.589225	0.077354
972.763972	0.077898
972.938700	0.076228
973.113411	0.075143
973.288103	0.074223
973.462777	0.073878
973.637432	0.074303
973.812070	0.075273
973.986689	0.076457
974.161290	0.077348
974.335873	0.077012
974.510437	0.077303
974.684984	0.079718
974.859512	0.080321
975.034022	0.080680
975.208513	0.081531
975.382987	0.081375
975.557442	0.081466
975.731879	0.078898
975.906298	0.081488
976.080698	0.081875
976.255080	0.079096
976.429445	0.078818
976.603790	0.078697
976.778118	0.079475
976.952427	0.081539
977.126719	0.081850
977.300992	0.083133
977.475246	0.082110
977.649483	0.081951
977.823701	0.083716
977.997901	0.083833
978.172083	0.083636
978.346247	0.081123
978.520392	0.080046
978.694519	0.078380
978.868628	0.079490
979.042719	0.077304
979.216791	0.077040
979.390845	0.075787
979.564882	0.075328
979.738899	0.075480
979.912899	0.076532
980.086880	0.078320
980.260843	0.080742
980.434788	0.079268
980.608715	0.082061
980.782623	0.083026
980.956514	0.082752
981.130386	0.084387
981.304240	0.084936
981.478075	0.085462
981.651892	0.081565
981.825692	0.080329
981.999472	0.081228
982.173235	0.080711
982.346980	0.081367
982.520706	0.084050
982.694414	0.082386
982.868104	0.081624
983.041775	0.081144
983.215428	0.081766
983.389064	0.080414
983.562680	0.079825
983.736279	0.078226
983.909860	0.078204
984.083422	0.077065
984.256966	0.077885
984.430491	0.077754
984.603999	0.077746
984.777488	0.078769
984.950959	0.079909
985.124412	0.079893
985.297847	0.081296
985.471263	0.079906
985.644661	0.080937
985.818041	0.080401
985.991403	0.080686
986.164747	0.079874
986.338072	0.080301
986.511379	0.081662
986.684668	0.080950
986.857938	0.079280
987.031191	0.079415
987.204425	0.077544
987.377641	0.076953
987.550839	0.078431
987.724018	0.077799
987.897179	0.077364
988.070322	0.076198
988.243447	0.076886
988.416554	0.077197
988.589642	0.079123
988.762712	0.079484
988.935764	0.081397
989.108798	0.082278
989.281813	0.083685
989.454811	0.084195
989.627790	0.082708
989.800751	0.082971
989.973693	0.084062
990.146617	0.083533
990.319524	0.084449
990.492412	0.081990
990.665281	0.080403
990.838133	0.079775
991.010966	0.079923
991.183781	0.080445
991.356578	0.081077
991.529356	0.080225
991.702117	0.079006
991.874859	0.079254
992.047583	0.080143
992.220288	0.080230
992.392976	0.081862
992.565645	0.080996
992.738296	0.081318
992.910929	0.079660
993.083543	0.080260
993.256139	0.081297
993.428718	0.080450
993.601277	0.080505
993.773819	0.080723
993.946342	0.079901
994.118848	0.081359
994.291335	0.081078
994.463803	0.079979
994.636254	0.079720
994.808686	0.080473
994.981100	0.081734
995.153496	0.082637
995.325874	0.081894
995.498233	0.082305
995.670574	0.083269
995.842897	0.084840
996.015202	0.087010
996.187488	0.086690
996.359757	0.085659
996.532007	0.085015
996.704239	0.085417
996.876452	0.085951
997.048648	0.084638
997.220825	0.083066
997.392984	0.081026
997.565124	0.081203
997.737247	0.081868
997.909351	0.083256
998.081437	0.082700
998.253505	0.082116
998.425554	0.082868
998.597586	0.081329
998.769599	0.083096
998.941594	0.084695
999.113571	0.084437
999.285529	0.085164
999.457469	0.084869
999.629391	0.086142
999.801295	0.085885
999.973181	0.085255
1000.145048	0.087053
1000.316897	0.085162
1000.488728	0.084060
1000.660541	0.083731
1000.832335	0.082660
1001.004111	0.080499
1001.175869	0.079620
1001.347609	0.078568
1001.519331	0.080424
1001.691034	0.080339
1001.862719	0.079383
1002.034386	0.080957
1002.206035	0.081490
1002.377665	0.082800
1002.549277	0.085313
1002.720871	0.085049
1002.892447	0.085606
1003.064004	0.083849
1003.235544	0.084132
1003.407065	0.085719
1003.578568	0.086159
1003.750052	0.085468
1003.921519	0.085015
1004.092967	0.083884
1004.264397	0.083563
1004.435809	0.084385
1004.607202	0.085195
1004.778577	0.083583
1004.949934	0.082366
1005.121273	0.080885
1005.292594	0.080463
1005.463896	0.081256
1005.635180	0.081360
1005.806446	0.082204
1005.977694	0.084101
1006.148923	0.083319
1006.320135	0.086423
1006.491328	0.087320
1006.662503	0.087126
1006.833659	0.088368
1007.004798	0.087040
1007.175918	0.087434
1007.347020	0.087471
1007.518103	0.085376
1007.689169	0.086073
1007.860216	0.084008
1008.031245	0.084663
1008.202256	0.084383
1008.373248	0.085119
1008.544223	0.085692
1008.715179	0.085558
1008.886117	0.086307
1009.057036	0.086072
1009.227938	0.084629
1009.398821	0.084981
1009.569686	0.082600
1009.740533	0.083519
1009.911361	0.081542
1010.082172	0.081002
1010.252964	0.080541
1010.423738	0.079183
1010.594493	0.078164
1010.765231	0.078063
1010.935950	0.077762
1011.106651	0.079487
1011.277334	0.077493
1011.447998	0.077937
1011.618645	0.077859
1011.789273	0.078499
1011.959882	0.079051
1012.130474	0.080674
1012.301048	0.081835
1012.471603	0.083110
1012.642140	0.083218
1012.812658	0.083898
1012.983159	0.084411
1013.153641	0.085035
1013.324105	0.083924
1013.494551	0.083752
1013.664979	0.083309
1013.835388	0.083157
1014.005779	0.082403
1014.176152	0.080059
1014.346507	0.081180
1014.516843	0.081450
1014.687162	0.081593
1014.857462	0.081927
1015.027744	0.081121
1015.198007	0.082077
1015.368252	0.081507
1015.538480	0.082162
1015.708689	0.083339
1015.878879	0.083241
1016.049052	0.084135
1016.219206	0.083360
1016.389342	0.083508
1016.559460	0.083324
1016.729559	0.081909
1016.899641	0.081902
1017.069704	0.081291
1017.239749	0.081801
1017.409775	0.081152
1017.579784	0.079863
1017.749774	0.080342
1017.919746	0.080543
1018.089700	0.079239
1018.259635	0.079732
1018.429553	0.078841
1018.599452	0.079565
1018.769333	0.081101
1018.939195	0.080329
1019.109040	0.079707
1019.278866	0.078884
1019.448674	0.078776
1019.618464	0.080370
1019.788235	0.080135
1019.957989	0.082128
1020.127724	0.084373
1020.297441	0.082393
1020.467139	0.082782
1020.636820	0.084185
1020.806482	0.084877
1020.976126	0.085107
1021.145752	0.086455
1021.315359	0.085821
1021.484948	0.084665
1021.654519	0.082303
1021.824072	0.082707
1021.993607	0.083781
1022.163123	0.083803
1022.332621	0.083547
1022.502101	0.083359
1022.671563	0.081969
1022.841007	0.082228
1023.010432	0.082937
1023.179839	0.083824
1023.349228	0.085731
1023.518598	0.085861
1023.687951	0.085384
1023.857285	0.085052
1024.026601	0.084884
1024.195899	0.085248
1024.365178	0.086518
1024.534439	0.085931
1024.703682	0.083987
1024.872907	0.081498
1025.042114	0.082246
1025.211302	0.083499
1025.380472	0.084453
1025.549624	0.086023
1025.718758	0.086630
1025.887873	0.086042
1026.056970	0.085723
1026.226049	0.084774
1026.395110	0.085741
1026.564153	0.086383
1026.733177	0.084532
1026.902183	0.084305
1027.071171	0.083099
1027.240141	0.081667
1027.409092	0.080823
1027.578026	0.081945
1027.746940	0.083910
1027.915837	0.084695
1028.084716	0.082535
1028.253576	0.082854
1028.422418	0.081318
1028.591242	0.079497
1028.760048	0.079758
1028.928835	0.080354
1029.097604	0.079795
1029.266355	0.079538
1029.435088	0.078707
1029.603803	0.079293
1029.772499	0.079715
1029.941177	0.080376
1030.109837	0.081903
1030.278478	0.082094
1030.447102	0.082702
1030.615707	0.082824
1030.784294	0.081760
1030.952863	0.081650
1031.121413	0.082719
1031.289945	0.084070
1031.458460	0.085213
1031.626955	0.085869
1031.795433	0.086612
1031.963892	0.086383
1032.132334	0.086552
1032.300756	0.088349
1032.469161	0.088119
1032.637548	0.086912
1032.805916	0.084706
1032.974266	0.084161
1033.142598	0.083020
1033.310911	0.083806
1033.479207	0.083540
1033.647484	0.083670
1033.815743	0.081528
1033.983983	0.083701
1034.152206	0.084627
1034.320410	0.085045
1034.488596	0.085352
1034.656764	0.085262
1034.824914	0.084656
1034.993045	0.084305
1035.161158	0.084480
1035.329253	0.085128
1035.497330	0.084800
1035.665388	0.084793
1035.833428	0.086329
1036.001450	0.086320
1036.169454	0.087543
1036.337440	0.086665
1036.505407	0.087167
1036.673356	0.086301
1036.841287	0.086804
1037.009200	0.085515
1037.177094	0.085074
1037.344970	0.083501
1037.512828	0.084014
1037.680668	0.082069
1037.848489	0.081447
1038.016293	0.081397
1038.184078	0.080848
1038.351845	0.079944
1038.519593	0.078770
1038.687324	0.077306
1038.855036	0.077454
1039.022730	0.076901
1039.190406	0.078976
1039.358063	0.079231
1039.525702	0.079064
1039.693323	0.079141
1039.860926	0.079990
1040.028511	0.080906
1040.196077	0.080340
1040.363625	0.079655
1040.531155	0.079132
1040.698667	0.078195
1040.866161	0.079651
1041.033636	0.080202
1041.201093	0.080715
1041.368532	0.082333
1041.535952	0.082226
1041.703355	0.086111
1041.870739	0.087231
1042.038105	0.086317
1042.205452	0.083782
1042.372782	0.083961
1042.540093	0.082890
1042.707386	0.083599
1042.874661	0.082455
1043.041918	0.081828
1043.209156	0.078371
1043.376376	0.077387
1043.543578	0.079381
1043.710762	0.082901
1043.877927	0.082146
1044.045074	0.082868
1044.212203	0.081500
1044.379314	0.080395
1044.546407	0.081151
1044.713481	0.082539
1044.880537	0.082436
1045.047575	0.081854
1045.214595	0.081195
1045.381596	0.080489
1045.548579	0.080833
1045.715544	0.082037
1045.882491	0.083059
1046.049420	0.083919
1046.216330	0.082623
1046.383222	0.083743
1046.550096	0.084220
1046.716951	0.082757
1046.883789	0.083240
1047.050608	0.081906
1047.217409	0.082182
1047.384192	0.082719
1047.550956	0.081235
1047.717703	0.082993
1047.884431	0.082973
1048.051140	0.082556
1048.217832	0.083594
1048.384505	0.084645
1048.551161	0.085486
1048.717798	0.085513
1048.884416	0.084251
1049.051017	0.084758
1049.217599	0.083873
1049.384163	0.084119
1049.550709	0.082589
1049.717237	0.082867
1049.883746	0.081905
1050.050237	0.081873
1050.216710	0.083274
1050.383165	0.084027
1050.549601	0.084228
1050.716019	0.085061
1050.882420	0.084064
1051.048801	0.084181
1051.215165	0.083524
1051.381510	0.083623
1051.547837	0.084678
1051.714146	0.083624
1051.880437	0.082391
1052.046709	0.082338
1052.212964	0.081947
1052.379200	0.082662
1052.545417	0.083843
1052.711617	0.083879
1052.877798	0.085085
1053.043961	0.084386
1053.210106	0.083084
1053.376233	0.083526
1053.542341	0.082749
1053.708432	0.082354
1053.874504	0.083504
1054.040557	0.082147
1054.206593	0.082341
1054.372610	0.081919
1054.538609	0.081280
1054.704590	0.082592
1054.870553	0.085644
1055.036497	0.085284
1055.202424	0.086295
1055.368331	0.085139
1055.534221	0.085308
1055.700093	0.085537
1055.865946	0.084989
1056.031781	0.085369
1056.197598	0.084872
1056.363397	0.083369
1056.529177	0.084324
1056.694939	0.083066
1056.860683	0.082300
1057.026409	0.083227
1057.192116	0.081771
1057.357806	0.081448
1057.523477	0.082753
1057.689130	0.082967
1057.854764	0.081640
1058.020381	0.081954
1058.185979	0.082095
1058.351559	0.082920
1058.517120	0.082922
1058.682664	0.083505
1058.848189	0.083566
1059.013696	0.082122
1059.179185	0.081544
1059.344656	0.081710
1059.510108	0.081654
1059.675542	0.083062
1059.840958	0.084457
1060.006356	0.084320
1060.171735	0.085299
1060.337096	0.085647
1060.502439	0.085107
1060.667764	0.087167
1060.833071	0.086347
1060.998359	0.085060
1061.163629	0.084028
1061.328881	0.082981
1061.494115	0.083424
1061.659330	0.084306
1061.824527	0.082662
1061.989706	0.084481
1062.154867	0.081941
1062.320010	0.083017
1062.485134	0.084730
1062.650240	0.085248
1062.815328	0.085708
1062.980398	0.085508
1063.145449	0.084948
1063.310482	0.087714
1063.475497	0.087178
1063.640494	0.087701
1063.805473	0.088259
1063.970433	0.087527
1064.135375	0.087080
1064.300299	0.086992
1064.465204	0.086717
1064.630092	0.085284
1064.794961	0.083713
1064.959812	0.083276
1065.124645	0.082961
1065.289459	0.083695
1065.454256	0.083696
1065.619034	0.084359
1065.783793	0.083771
1065.948535	0.083406
1066.113258	0.083467
1066.277964	0.083851
1066.442651	0.084413
1066.607319	0.084990
1066.771970	0.084912
1066.936602	0.086320
1067.101216	0.085779
1067.265812	0.085900
1067.430389	0.087525
1067.594949	0.087907
1067.759490	0.087118
1067.924013	0.086594
1068.088518	0.085907
1068.253004	0.083121
1068.417472	0.081509
1068.581922	0.080966
1068.746354	0.079813
1068.910768	0.078930
1069.075163	0.078454
1069.239540	0.079173
1069.403899	0.079042
1069.568240	0.080397
1069.732562	0.084058
1069.896866	0.083518
1070.061152	0.082453
1070.225420	0.085810
1070.389670	0.085202
1070.553901	0.087941
1070.718114	0.088130
1070.882309	0.086110
1071.046486	0.084718
1071.210644	0.082817
1071.374784	0.085665
1071.538906	0.087322
1071.703010	0.084834
1071.867096	0.085950
1072.031163	0.086004
1072.195212	0.086607
1072.359243	0.089772
1072.523256	0.090653
1072.687250	0.092145
1072.851226	0.091665
1073.015184	0.093439
1073.179124	0.092553
1073.343045	0.091493
1073.506949	0.090300
1073.670834	0.090061
1073.834701	0.091281
1073.998549	0.090860
1074.162380	0.089881
1074.326192	0.089410
1074.489986	0.086332
1074.653761	0.088216
1074.817519	0.091406
1074.981258	0.092501
1075.144979	0.092257
1075.308682	0.091516
1075.472367	0.090662
1075.636033	0.091967
1075.799681	0.090480
1075.963311	0.090358
1076.126923	0.091465
1076.290516	0.088379
1076.454092	0.088434
1076.617649	0.085687
1076.781187	0.084235
1076.944708	0.085303
1077.108210	0.083067
1077.271695	0.084726
1077.435160	0.086453
1077.598608	0.085106
1077.762038	0.086194
1077.925449	0.084855
1078.088842	0.086679
1078.252217	0.087607
1078.415573	0.087557
1078.578912	0.087085
1078.742232	0.084785
1078.905534	0.085179
1079.068817	0.083100
1079.232083	0.083408
1079.395330	0.082653
1079.558559	0.084962
1079.721770	0.083354
1079.884962	0.082533
1080.048136	0.084883
1080.211293	0.086520
1080.374430	0.086167
1080.537550	0.090151
1080.700651	0.088536
1080.863735	0.090528
1081.026800	0.089864
1081.189846	0.090400
1081.352875	0.088593
1081.515885	0.087649
1081.678877	0.086662
1081.841851	0.087819
1082.004807	0.084911
1082.167744	0.086750
1082.330663	0.084617
1082.493564	0.084169
1082.656447	0.083166
1082.819312	0.085959
1082.982158	0.085793
1083.144986	0.086815
1083.307796	0.083774
1083.470587	0.085086
1083.633361	0.085375
1083.796116	0.085751
1083.958853	0.086931
1084.121571	0.087772
1084.284272	0.088440
1084.446954	0.088408
1084.609618	0.089769
1084.772264	0.093345
1084.934892	0.092996
1085.097501	0.092762
1085.260092	0.091633
1085.422665	0.089229
1085.585220	0.088234
1085.747756	0.087078
1085.910274	0.087414
1086.072774	0.085455
1086.235256	0.085173
1086.397720	0.085299
1086.560165	0.081762
1086.722592	0.084419
1086.885001	0.087316
1087.047392	0.089335
1087.209764	0.089379
1087.372119	0.090344
1087.534455	0.092469
1087.696772	0.091352
1087.859072	0.088340
1088.021353	0.090117
1088.183616	0.089012
1088.345861	0.088022
1088.508088	0.086484
1088.670296	0.086539
1088.832486	0.084940
1088.994658	0.082812
1089.156812	0.084187
1089.318948	0.086072
1089.481065	0.085891
1089.643164	0.087563
1089.805245	0.087070
1089.967308	0.086813
1090.129352	0.086177
1090.291378	0.085533
1090.453386	0.084427
1090.615376	0.082097
1090.777347	0.083193
1090.939301	0.084912
1091.101236	0.083839
1091.263153	0.082511
1091.425051	0.083599
1091.586932	0.086147
1091.748794	0.085455
1091.910638	0.086177
1092.072463	0.083833
1092.234271	0.083243
1092.396060	0.083565
1092.557831	0.084048
1092.719584	0.085976
1092.881319	0.084738
1093.043035	0.081852
1093.204733	0.083666
1093.366413	0.083897
1093.528075	0.086543
1093.689718	0.086665
1093.851343	0.085910
1094.012950	0.086777
1094.174539	0.085781
1094.336110	0.084835
1094.497662	0.087786
1094.659196	0.087392
1094.820712	0.084503
1094.982210	0.085439
1095.143689	0.086347
1095.305151	0.088216
1095.466594	0.084395
1095.628018	0.085185
1095.789425	0.086780
1095.950813	0.086330
1096.112183	0.085465
1096.273535	0.090695
1096.434869	0.091119
1096.596184	0.090381
1096.757482	0.089216
1096.918761	0.093215
1097.080021	0.092564
1097.241264	0.094747
1097.402488	0.093319
1097.563694	0.092803
1097.724882	0.091743
1097.886052	0.089124
1098.047203	0.086522
1098.208336	0.085499
1098.369451	0.084246
1098.530548	0.082944
1098.691627	0.082507
1098.852687	0.083909
1099.013729	0.083796
1099.174753	0.084699
1099.335758	0.085343
1099.496746	0.085325
1099.657715	0.083573
1099.818666	0.085505
1099.979599	0.087533
1100.140513	0.086647
1100.301409	0.083660
1100.462287	0.085748
1100.623147	0.084878
1100.783989	0.086942
1100.944812	0.087758
1101.105617	0.087067
1101.266404	0.084447
1101.427173	0.081752
1101.587923	0.081440
1101.748656	0.081915
1101.909370	0.081756
1102.070066	0.081001
1102.230743	0.079941
1102.391403	0.082665
1102.552044	0.085087
1102.712667	0.084244
1102.873271	0.085913
1103.033858	0.086746
1103.194426	0.087352
1103.354976	0.089179
1103.515508	0.091149
1103.676021	0.087385
1103.836517	0.086928
1103.996994	0.090167
1104.157453	0.090025
1104.317893	0.091006
1104.478316	0.091678
1104.638720	0.090744
1104.799106	0.090614
1104.959474	0.089138
1105.119823	0.092753
1105.280155	0.091067
1105.440468	0.090624
1105.600763	0.093737
1105.761039	0.092065
1105.921298	0.090304
1106.081538	0.093300
1106.241760	0.092357
1106.401964	0.093280
1106.562149	0.092825
1106.722316	0.095041
1106.882465	0.095130
1107.042596	0.094015
1107.202709	0.095822
1107.362803	0.097640
1107.522879	0.095379
1107.682937	0.094469
1107.842977	0.089743
1108.002999	0.092058
1108.163002	0.090557
1108.322987	0.085862
1108.482954	0.085659
1108.642902	0.082125
1108.802833	0.083705
1108.962745	0.083896
1109.122639	0.084242
1109.282515	0.087054
1109.442372	0.088291
1109.602211	0.088445
1109.762032	0.090696
1109.921835	0.091134
1110.081620	0.094501
1110.241386	0.091820
1110.401134	0.091316
1110.560864	0.090984
1110.720576	0.089802
1110.880269	0.088521
1111.039945	0.089613
1111.199602	0.088022
1111.359240	0.087734
1111.518861	0.083616
1111.678463	0.082442
1111.838047	0.085421
1111.997613	0.084153
1112.157161	0.088733
1112.316690	0.085834
1112.476202	0.083469
1112.635695	0.082936
1112.795169	0.084615
1112.954626	0.085920
1113.114064	0.087763
1113.273484	0.088436
1113.432886	0.089988
1113.592270	0.086090
1113.751635	0.088813
1113.910983	0.091200
1114.070312	0.090361
1114.229622	0.087903
1114.388915	0.088937
1114.548189	0.087286
1114.707445	0.085836
1114.866683	0.083037
1115.025903	0.086770
1115.185104	0.088580
1115.344287	0.084965
1115.503452	0.086555
1115.662599	0.087130
1115.821727	0.090933
1115.980838	0.092138
1116.139930	0.095552
1116.299004	0.099378
1116.458059	0.092808
1116.617097	0.089196
1116.776116	0.093317
1116.935117	0.094656
1117.094099	0.092730
1117.253064	0.087047
1117.412010	0.087145
1117.570938	0.083425
1117.729848	0.084668
1117.888740	0.089657
1118.047613	0.091490
1118.206468	0.091130
1118.365305	0.093180
1118.524124	0.095292
1118.682924	0.099714
1118.841707	0.100496
1119.000471	0.100948
1119.159216	0.099503
1119.317944	0.096365
1119.476653	0.093987
1119.635344	0.095186
1119.794017	0.094848
1119.952672	0.093814
1120.111308	0.090142
1120.269927	0.086872
1120.428527	0.084092
1120.587108	0.083757
1120.745672	0.084302
1120.904217	0.083927
1121.062744	0.081811
1121.221253	0.073974
1121.379744	0.073988
1121.538216	0.076404
1121.696671	0.081358
1121.855107	0.085207
1122.013524	0.083207
1122.171924	0.085692
1122.330305	0.088804
1122.488668	0.089758
1122.647013	0.095138
1122.805340	0.093531
1122.963648	0.094272
1123.121938	0.088965
1123.280210	0.082374
1123.438464	0.084406
1123.596700	0.081876
1123.754917	0.079398
1123.913116	0.080625
1124.071297	0.080342
1124.229459	0.081815
1124.387604	0.084522
1124.545730	0.086259
1124.703838	0.090272
1124.861928	0.092624
1125.019999	0.093168
1125.178052	0.094767
1125.336088	0.089048
1125.494104	0.092786
1125.652103	0.089649
1125.810083	0.088988
1125.968045	0.093656
1126.125989	0.095531
1126.283915	0.086455
1126.441823	0.087219
1126.599712	0.085169
1126.757583	0.088040
1126.915436	0.083620
1127.073270	0.082521
1127.231087	0.077269
1127.388885	0.071551
1127.546665	0.067454
1127.704426	0.074339
1127.862170	0.076887
1128.019895	0.080689
1128.177602	0.081631
1128.335291	0.080020
1128.492961	0.082018
1128.650614	0.084154
1128.808248	0.087047
1128.965864	0.089011
1129.123461	0.089302
1129.281041	0.086612
1129.438602	0.083424
1129.596145	0.077626
1129.753670	0.083412
1129.911176	0.083935
1130.068665	0.081643
1130.226135	0.081573
1130.383587	0.079716
1130.541020	0.077586
1130.698436	0.074623
1130.855833	0.075667
1131.013212	0.080475
1131.170573	0.078040
1131.327915	0.083831
1131.485239	0.085096
1131.642545	0.084058
1131.799833	0.089108
1131.957103	0.087647
1132.114354	0.089328
1132.271588	0.090551
1132.428803	0.089570
1132.585999	0.090074
1132.743178	0.085712
1132.900338	0.086422
1133.057480	0.090017
1133.214604	0.085127
1133.371710	0.083782
1133.528797	0.090689
1133.685866	0.082458
1133.842917	0.083172
1133.999950	0.084794
1134.156964	0.086381
1134.313960	0.084530
1134.470938	0.080865
1134.627898	0.084737
1134.784840	0.089402
1134.941763	0.082550
1135.098668	0.083610
1135.255555	0.082190
1135.412424	0.077939
1135.569274	0.077711
1135.726107	0.083443
1135.882921	0.085504
1136.039716	0.084767
1136.196494	0.082921
1136.353253	0.084119
1136.509995	0.095784
1136.666717	0.097561
1136.823422	0.097171
1136.980109	0.093329
1137.136777	0.088819
1137.293427	0.085725
1137.450059	0.087209
1137.606672	0.089266
1137.763267	0.087566
1137.919844	0.076873
1138.076403	0.077088
1138.232944	0.082462
1138.389466	0.089418
1138.545971	0.089874
1138.702457	0.090042
1138.858924	0.084348
1139.015374	0.085893
1139.171805	0.087493
1139.328218	0.092230
1139.484613	0.093228
1139.640990	0.093290
1139.797348	0.091207
1139.953688	0.089522
1140.110010	0.091602
1140.266314	0.099408
1140.422600	0.099032
1140.578867	0.099360
1140.735116	0.100918
1140.891347	0.100891
1141.047559	0.100510
1141.203754	0.097873
1141.359930	0.103028
1141.516088	0.102933
1141.672228	0.098454
1141.828349	0.094722
1141.984452	0.095409
1142.140537	0.092092
1142.296604	0.090730
1142.452653	0.086592
1142.608683	0.086685
1142.764695	0.084743
1142.920689	0.083291
1143.076665	0.082045
1143.232622	0.079437
1143.388562	0.080772
1143.544483	0.084287
1143.700385	0.087312
1143.856270	0.093596
1144.012136	0.091649
1144.167985	0.088127
1144.323814	0.085047
1144.479626	0.081708
1144.635420	0.083199
1144.791195	0.078745
1144.946952	0.074500
1145.102691	0.071441
1145.258411	0.069420
1145.414113	0.068975
1145.569798	0.077283
1145.725463	0.078767
1145.881111	0.081499
1146.036741	0.083042
1146.192352	0.085122
1146.347945	0.087784
1146.503519	0.085729
1146.659076	0.082528
1146.814614	0.087642
1146.970134	0.081729
1147.125636	0.079207
1147.281120	0.073285
1147.436585	0.076229
1147.592032	0.073355
1147.747461	0.076004
1147.902872	0.077281
1148.058265	0.077941
1148.213639	0.070618
1148.368995	0.073371
1148.524333	0.082806
1148.679653	0.089551
1148.834954	0.090358
1148.990237	0.089843
1149.145502	0.087283
1149.300749	0.088476
1149.455977	0.079434
1149.611188	0.080896
1149.766380	0.076059
1149.921553	0.071386
1150.076709	0.073474
1150.231846	0.066626
1150.386966	0.074666
1150.542066	0.075284
1150.697149	0.074016
1150.852214	0.084121
1151.007260	0.090594
1151.162288	0.091290
1151.317298	0.094829
1151.472289	0.095995
1151.627263	0.099899
1151.782218	0.096502
1151.937155	0.097086
1152.092073	0.096000
1152.246974	0.091717
1152.401856	0.086770
1152.556720	0.086132
1152.711566	0.081424
1152.866393	0.080457
1153.021203	0.083022
1153.175994	0.079750
1153.330767	0.073237
1153.485521	0.074894
1153.640258	0.075453
1153.794976	0.073654
1153.949676	0.073556
1154.104358	0.077385
1154.259021	0.075047
1154.413667	0.066732
1154.568294	0.066204
1154.722903	0.068711
1154.877493	0.073783
1155.032066	0.079390
1155.186620	0.081812
1155.341156	0.080044
1155.495674	0.078776
1155.650173	0.078015
1155.804654	0.078349
1155.959118	0.077452
1156.113562	0.075310
1156.267989	0.069136
1156.422397	0.060389
1156.576788	0.064704
1156.731160	0.060768
1156.885513	0.059200
1157.039849	0.053042
1157.194166	0.055367
1157.348465	0.057958
1157.502746	0.058217
1157.657009	0.056250
1157.811253	0.061064
1157.965479	0.057593
1158.119687	0.069461
1158.273877	0.066815
1158.428048	0.075017
1158.582201	0.075072
1158.736337	0.071681
1158.890453	0.067728
1159.044552	0.068298
1159.198632	0.069395
1159.352694	0.069516
1159.506738	0.064492
1159.660764	0.063540
1159.814771	0.061037
1159.968761	0.064970
1160.122732	0.063520
1160.276685	0.069562
1160.430619	0.071974
1160.584535	0.068441
1160.738434	0.069148
1160.892313	0.064573
1161.046175	0.063262
1161.200019	0.061848
1161.353844	0.059136
1161.507651	0.066086
1161.661440	0.069797
1161.815210	0.069756
1161.968962	0.067391
1162.122697	0.064869
1162.276412	0.070556
1162.430110	0.069307
1162.583789	0.068169
1162.737451	0.074419
1162.891094	0.070296
1163.044718	0.072338
1163.198325	0.079967
1163.351913	0.086765
1163.505483	0.094118
1163.659035	0.093329
1163.812569	0.093181
1163.966084	0.090205
1164.119581	0.081749
1164.273060	0.092629
1164.426521	0.088086
1164.579964	0.086027
1164.733388	0.082584
1164.886794	0.077540
1165.040182	0.080925
1165.193551	0.082100
1165.346903	0.090608
1165.500236	0.094255
1165.653551	0.094852
1165.806848	0.088546
1165.960126	0.085848
1166.113386	0.088985
1166.266628	0.080206
1166.419852	0.074066
1166.573058	0.072620
1166.726245	0.065252
1166.879414	0.063003
1167.032565	0.052523
1167.185698	0.053647
1167.338812	0.047221
1167.491909	0.048726
1167.644987	0.048442
1167.798046	0.048995
1167.951088	0.055323
1168.104111	0.062254
1168.257117	0.064342
1168.410103	0.067377
1168.563072	0.069861
1168.716023	0.069389
1168.868955	0.064144
1169.021869	0.072344
1169.174765	0.080668
1169.327642	0.085232
1169.480501	0.084630
1169.633343	0.076377
1169.786165	0.077539
1169.938970	0.077368
1170.091757	0.077412
1170.244525	0.080493
1170.397275	0.078609
1170.550007	0.065157
1170.702720	0.054631
1170.855415	0.051650
1171.008092	0.059096
1171.160751	0.056775
1171.313392	0.059887
1171.466014	0.044111
1171.618619	0.083358
1171.771205	0.083358
1171.923772	0.083358
