sample name	sample
index	1129
start time	 04-22-2021  02:12:51 PM
880	0.443624
Peak Time (s)	102.035
Peak Height 	0.4436
calc peak height	100,103
Baseline Time (s)	9.039
Baseline Value 	-0.002658
subtract baseline	10,4
Abs	0.311522
Peak Time (s)	102.035
Peak Height 	0.3115
calc peak height	100,103
Baseline Time (s)	11.035
Baseline Value 	9.3135E-6
subtract baseline	10,3
PK_550	0.178866
Peak Time (s)	102.538
Peak Height 	0.1789
calc peak height	100,103
Baseline Time (s)	8.536
Baseline Value 	8.2129E-4
subtract baseline	10,2
PK_880	0.291078
Peak Time (s)	102.538
Peak Height 	0.2911
calc peak height	100,103
Baseline Time (s)	11.538
Baseline Value 	5.1852E-4
subtract baseline	10,1


Time (s)	A880-A510	A880-A775	A880-A975	A880	I510	I775	I975	I880	
0.039500	0.001766	0.000274	0.001132	0.003773	6286.830895	43087.724213	3917.283496	22625.682151
0.537500	-0.001789	-0.000271	-0.003273	0.005503	6246.575161	42878.484136	3903.343321	22547.521818
1.037500	-0.003247	-0.000603	-0.003958	0.004157	6245.721531	42971.571487	3904.836357	22608.299756
1.535000	-0.001294	0.000558	0.002704	0.002215	6275.337451	43257.915030	3924.469401	22696.327765
2.035500	0.000821	-0.001212	0.000353	0.001888	6294.043886	43124.525198	3919.816141	22711.213196
2.536000	-0.003220	-0.000908	-0.000597	0.002419	6259.110727	43103.601000	3916.425407	22687.089705
3.036000	-0.000331	-0.000349	0.006582	-0.001325	6309.904938	43502.510409	3941.712176	22857.831497
3.539000	0.000315	-0.001459	0.001197	0.000448	6301.222786	43234.809188	3925.070920	22776.798230
4.036500	-0.002091	0.000145	0.003552	0.003319	6260.847929	43117.685171	3923.880364	22646.236363
4.536500	0.000449	-0.000585	0.000471	0.000840	6299.237308	43279.350993	3922.494466	22758.895109
5.037000	-0.000055	-0.000931	0.002455	0.000614	6297.100936	43268.333549	3927.590705	22769.232231
5.540000	0.000025	-0.001068	0.000275	0.000077	6301.847309	43305.376473	3923.799218	22793.720175
6.035000	0.000735	-0.000150	0.006466	0.000579	6303.445623	43343.908476	3936.987014	22770.796815
6.540500	0.000461	-0.000630	-0.005028	-0.000171	6307.111187	43369.029133	3912.225351	22805.045294
7.035500	-0.001379	-0.000646	0.005479	0.000141	6290.567261	43338.570803	3935.709167	22790.801606
7.535500	-0.001976	-0.000102	0.002486	0.000534	6282.971699	43352.519640	3927.847586	22772.844251
8.036500	-0.000171	-0.000589	0.003349	0.000231	6299.157315	43335.533702	3930.549357	22786.711693
8.535500	-0.001211	0.000000	-0.001707	0.000900	6286.028798	43328.085028	3917.359977	22756.167160
9.039000	-0.000760	-0.000968	0.003437	0.000000	6296.400917	43321.824827	3931.286708	22797.239282
9.539500	0.000033	0.000127	-0.003781	0.000370	6299.651252	43389.055871	3913.832428	22780.332582
10.037000	0.000479	0.000033	-0.000061	-0.000163	6307.199776	43429.998749	3923.580431	22804.703785
10.534500	0.000677	-0.000251	0.000850	-0.000519	6311.467925	43436.580247	3926.499783	22820.942964
11.035000	-0.002010	-0.000770	0.000000	-0.000698	6292.159843	43405.026188	3924.951972	22829.140930
11.538000	0.000000	0.000400	0.002418	0.000336	6299.658564	43417.601193	3928.147898	22781.889193
12.036000	0.000166	-0.001127	-0.001572	-0.001162	6312.485196	43414.890205	3922.400323	22850.367896
12.536000	-0.002348	-0.000622	0.002593	-0.000644	6289.151758	43413.757946	3930.825173	22826.689656
13.039000	-0.001776	-0.000250	0.001135	0.000018	6288.464486	43386.814424	3925.918181	22796.426684
13.542000	-0.001344	0.000145	0.001553	-0.000014	6292.019968	43426.457464	3926.958547	22797.878132
14.037000	-0.002016	-0.000415	0.000755	0.001929	6272.013399	43194.401256	3920.643951	22709.340136
14.537000	-0.001811	-0.000754	-0.000558	0.000817	6282.076468	43265.933093	3920.183844	22759.984693
15.042500	-0.000191	-0.000083	0.002149	0.000286	6298.576321	43377.437434	3927.641504	22784.195658
15.537500	0.001207	-0.000248	0.007596	-0.000474	6315.216791	43432.704847	3942.094752	22818.903197
16.035000	-0.004977	-0.001540	-0.003585	0.002583	6244.548130	43030.211947	3909.245888	22679.641830
16.535500	-0.000989	-0.000670	-0.000889	-0.000585	6299.139825	43403.793202	3922.644879	22823.994404
17.035500	0.001598	-0.000356	-0.000083	-0.002619	6334.873697	43622.676159	3929.198695	22917.221998
17.539000	0.000551	-0.000247	0.004840	0.000189	6305.034747	43371.264776	3934.110266	22788.628700
18.036500	-0.001451	-0.000644	-0.001379	0.001640	6278.533289	43199.928993	3916.418573	22722.484981
18.536500	-0.003355	-0.000549	0.001511	0.000591	6272.003023	43305.888018	3925.465132	22770.285110
19.037000	-0.000257	-0.000474	0.005527	0.000694	6294.938229	43303.243078	3934.531607	22765.583750
19.534500	-0.000429	-0.000715	-0.000512	0.000072	6298.387729	43338.556704	3921.999570	22793.948097
20.034500	-0.000486	-0.000542	-0.003288	0.000771	6292.587029	43289.801886	3914.043176	22762.076679
20.534500	0.000901	-0.000522	0.005872	0.000435	6305.837536	43322.801171	3935.939367	22777.377613
21.035000	-0.000217	-0.000144	0.001678	0.001005	6292.851858	43305.046698	3924.895632	22751.405364
21.535500	-0.000939	-0.000650	0.003649	0.000518	6291.048104	43303.254979	3930.576554	22773.594793
22.036000	-0.001641	-0.000392	-0.000398	0.000092	6288.930458	43366.673666	3922.217083	22793.029137
22.536000	0.001184	-0.000347	0.002166	0.000611	6306.655443	43322.668455	3926.929318	22769.336400
23.036000	0.001042	0.000615	0.001879	0.001675	6297.378710	43313.285624	3923.815072	22720.904000
23.537000	-0.000562	-0.000352	-0.000439	0.001002	6290.230443	43286.072898	3920.033878	22751.547226
24.037000	-0.001434	-0.000860	0.002841	-0.000146	6292.348584	43345.397061	3930.245224	22803.924189
24.545500	0.000627	-0.000421	0.001908	0.000902	6300.130613	43288.930536	3925.662213	22756.092770
25.038000	-0.002445	-0.000822	0.001672	-0.000272	6285.562234	43360.660842	3927.829409	22809.687997
25.535000	-0.000603	-0.001339	0.002363	0.000006	6297.561077	43286.824679	3928.783895	22796.957576
26.035000	-0.001786	-0.000676	0.004490	0.000758	6282.713343	43278.541698	3931.971386	22762.646347
26.538500	-0.001801	-0.000387	0.000072	0.000646	6283.458076	43315.717117	3922.021431	22767.740533
27.039000	0.000344	-0.000398	0.007017	-0.001183	6314.021404	43484.772562	3942.400916	22851.340671
27.536000	0.002090	0.000132	0.000312	-0.001478	6329.834628	43561.701087	3927.473360	22864.876295
28.036500	0.000450	0.000180	0.006145	-0.000475	6309.375626	43472.641591	3938.699887	22818.949672
28.539500	-0.000684	0.000181	0.004628	-0.000403	6300.082686	43466.045938	3934.992695	22815.664237
29.034500	-0.000494	-0.000979	0.002533	-0.001099	6306.907970	43422.882029	3931.740808	22847.505273
29.537500	0.000621	0.000192	-0.000870	-0.000180	6308.419424	43446.316438	3921.757269	22805.468526
30.037000	-0.000664	-0.000170	0.009835	0.005078	6258.329184	42926.739787	3934.355872	22566.682696
30.535000	-0.000588	-0.000255	0.005947	0.001841	6283.591528	43217.214731	3932.839700	22713.322030
31.035000	-0.001596	-0.000442	-0.003060	0.001645	6277.386963	43218.155131	3912.570659	22722.267737
31.535500	-0.000124	-0.000593	0.001797	-0.000412	6304.466945	43394.905473	3928.441669	22816.073874
32.035500	-0.002846	-0.001423	-0.000346	0.004400	6246.919192	42873.906119	3912.476740	22597.308295
32.536500	0.001654	-0.000518	0.005719	-0.000575	6319.447687	43416.989085	3937.938798	22823.497683
33.036000	-0.000695	-0.000915	0.004821	-0.000863	6303.539944	43406.822044	3936.515408	22836.691135
33.537000	0.001820	-0.000918	0.000955	-0.002869	6338.544053	43593.537827	3932.184837	22928.699534
34.037000	0.000580	-0.000276	-0.000193	0.003607	6279.025298	43052.333041	3914.634022	22633.198215
34.537500	0.000370	0.000180	0.004309	0.002234	6287.927169	43221.188313	3928.130616	22695.462497
35.035000	-0.000467	-0.000815	0.003421	0.001201	6289.429927	43224.666390	3928.467730	22742.471000
35.535000	-0.000333	0.000010	0.002883	0.001849	6285.490641	43241.096232	3925.726300	22712.976794
36.035500	-0.000961	-0.000367	0.001425	0.002707	6274.120916	43126.893080	3920.396693	22673.989051
36.544000	-0.001661	0.000294	0.005916	0.001257	6279.853433	43322.252674	3934.127393	22739.909873
37.036000	-0.002080	-0.000340	0.003440	0.001404	6275.531132	43249.895026	3928.042257	22733.240249
37.536500	-0.000876	-0.000436	0.002220	0.001115	6286.952192	43267.763465	3925.890760	22746.385813
38.037000	-0.002753	-0.000631	0.001120	0.002896	6259.028956	43085.056000	3919.262116	22665.404459
38.536500	-0.000388	-0.000932	-0.000699	0.000694	6293.926887	43260.760216	3920.142445	22765.564800
39.034500	-0.001221	-0.000291	0.004818	0.001093	6284.479448	43283.248787	3931.957184	22747.392643
39.537500	0.000408	-0.000453	0.004261	0.001464	6294.127733	43233.815632	3929.802985	22730.487089
40.035000	-0.002900	-0.001207	0.002500	0.000962	6272.647606	43210.511174	3926.890037	22753.358596
40.535500	-0.001129	-0.000487	0.001630	0.001684	6280.655431	43210.315176	3923.219424	22720.461605
41.036000	-0.000969	-0.000245	0.004155	0.001448	6283.685306	43254.555936	3929.594647	22731.199696
41.536500	-0.001344	-0.000307	0.003336	0.001408	6281.123280	43252.542750	3927.792588	22733.044122
42.036500	0.001694	0.000616	-0.003193	0.002237	6298.069687	43261.304061	3910.921648	22695.351683
42.536000	-0.001966	-0.000638	0.004019	0.001254	6277.546009	43236.169122	3929.727933	22740.043401
43.037000	-0.000577	-0.000985	-0.000505	0.000791	6291.730928	43246.872830	3920.363780	22761.143697
43.536500	-0.001782	-0.000088	0.006351	0.001105	6280.092323	43300.949830	3935.494804	22746.833982
44.035000	0.002788	0.000160	0.002791	-0.003184	6348.540569	43723.764616	3937.194233	22943.179506
44.534500	0.002059	-0.000435	0.003708	-0.000881	6324.959694	43453.191896	3933.963604	22837.516518
45.035500	0.001944	-0.000597	0.000371	0.000529	6313.157595	43307.188058	3922.981254	22773.095307
45.535500	0.003277	0.000131	0.003972	0.000031	6327.331398	43421.045669	3932.458932	22795.832438
46.038500	0.000134	-0.000561	0.003339	-0.000646	6308.253658	43419.598870	3932.558926	22826.764260
46.536000	0.000489	-0.000293	0.004355	-0.000524	6310.055288	43433.163310	3934.639125	22821.185443
47.036500	-0.000889	-0.001185	0.000911	-0.000442	6298.805626	43342.753694	3926.465080	22817.450634
47.536500	-0.003359	-0.000462	0.002875	0.001710	6263.442910	43210.217983	3926.028556	22719.281392
48.037000	-0.003171	-0.000813	-0.001826	0.004004	6247.457546	42966.381490	3910.012090	22615.234184
48.537500	-0.001049	-0.000112	0.006240	-0.000313	6296.584518	43430.420755	3938.544739	22811.540213
49.037500	-0.000949	0.000006	0.004230	0.000991	6287.343458	43320.171483	3930.827876	22752.028427
49.535000	0.000326	-0.000579	0.006227	-0.002591	6324.782910	43599.220949	3943.851193	22915.927060
50.035500	-0.002491	-0.000136	0.002239	0.003998	6252.658181	43029.175819	3919.302757	22615.506778
50.541000	0.001354	-0.000421	-0.000320	0.007428	6255.806685	42688.498708	3905.667025	22460.906694
51.036000	0.019099	-0.015285	0.020489	0.501999	4058.342164	15303.912238	3253.467502	9206.413241
51.536000	0.008139	-0.015595	-0.004120	0.056079	5952.783216	37268.689728	3793.936766	20394.591485
52.037000	-0.009931	-0.026874	-0.012774	-0.107765	7147.089902	51678.579613	4167.780768	28383.269859
52.536500	-0.003498	-0.066935	-0.002387	-0.249836	8854.696993	64558.065925	4691.047538	38220.434793
53.037000	0.009718	-0.017273	0.011615	-0.154883	7843.162943	58465.144029	4390.473431	31296.335494
53.537500	0.016853	-0.011825	0.018343	-0.126562	7610.597606	55621.155714	4319.321673	29507.639510
54.035000	0.009194	-0.005030	0.013840	-0.079046	7055.564796	50914.484707	4161.762732	26756.629349
54.535000	0.015469	-0.002667	0.019264	-0.070124	7030.679191	50196.799223	4151.832452	26272.842643
55.036000	0.026756	0.002826	0.027726	-0.071430	7150.490043	50940.991080	4179.771553	26343.054561
55.535500	0.040250	0.009786	0.046436	-0.061959	7189.497127	50664.715866	4206.780732	25838.671615
56.036500	0.049709	0.018111	0.051329	-0.028026	6957.658391	47937.386843	4123.782752	24119.384001
56.536500	0.067841	0.026690	0.066204	-0.000307	6870.342342	46001.418845	4088.805232	22811.257874
57.036500	0.077904	0.034293	0.081466	0.037949	6624.461526	43073.179987	4028.715250	21137.671459
57.537000	0.093429	0.044307	0.090366	0.063445	6541.260806	41670.968046	3987.279486	20101.437868
58.034500	0.101545	0.050457	0.099121	0.098048	6329.283032	39220.795952	3925.818634	18788.899846
58.537500	0.115341	0.057101	0.114912	0.131092	6183.150569	37086.580473	3886.781850	17629.443938
59.034500	0.126816	0.064238	0.136542	0.164095	6027.205043	35117.626228	3861.886521	16556.217193
59.535500	0.137309	0.071836	0.142456	0.183389	5965.640185	34265.093858	3833.418561	15965.547128
60.038000	0.148077	0.077480	0.155449	0.219778	5793.358693	32130.500466	3785.698635	14920.466103
60.536000	0.157936	0.083495	0.168442	0.228937	5797.935794	31920.602284	3793.342013	14670.925877
61.036000	0.165048	0.088903	0.178072	0.250041	5707.911667	30895.216561	3770.664301	14115.608639
61.537000	0.173716	0.094864	0.176961	0.266733	5657.583230	30215.249262	3736.640286	13695.098942
62.037000	0.177986	0.096978	0.187625	0.276356	5624.519093	29749.284793	3738.591553	13459.919328
62.537500	0.174093	0.103120	0.183119	0.283337	5558.594038	29697.783465	3717.318674	13292.548398
63.037500	0.179741	0.104822	0.193503	0.285332	5580.554514	29679.730015	3732.798311	13245.198814
63.534500	0.183672	0.106791	0.192755	0.281856	5625.658749	30015.925790	3737.897632	13327.816431
64.050000	0.187423	0.109971	0.200482	0.284589	5631.917614	30043.715613	3747.314975	13262.799890
64.535500	0.190104	0.112851	0.208445	0.277657	5691.753275	30660.925882	3776.059578	13428.525651
65.035500	0.192593	0.115399	0.206464	0.276612	5714.090145	30890.469975	3774.223557	13453.747083
65.536500	0.197752	0.116868	0.212077	0.275420	5754.683585	31061.677327	3787.657872	13482.574523
66.036000	0.199784	0.119404	0.213074	0.281341	5729.749116	30843.976324	3777.915274	13340.115707
66.537000	0.200228	0.120614	0.209301	0.282006	5728.347201	30878.968251	3769.230772	13324.255125
67.037000	0.203330	0.122981	0.218746	0.287907	5710.546818	30653.277640	3776.158902	13184.410916
67.537000	0.209328	0.125471	0.221851	0.293754	5711.505836	30440.579463	3770.792474	13047.725295
68.034500	0.210371	0.125953	0.222956	0.300659	5674.591595	30038.227628	3759.553621	12888.649131
68.537000	0.210698	0.127686	0.228797	0.304638	5651.850664	29898.996690	3763.145033	12798.140403
69.037500	0.213031	0.129822	0.230093	0.310955	5627.251381	29641.552049	3753.493807	12656.104248
69.538500	0.215185	0.131817	0.234108	0.316318	5607.611423	29436.009941	3750.922999	12537.151581
70.036000	0.217946	0.132939	0.234267	0.321808	5591.010726	29171.773540	3740.828104	12416.880446
70.536500	0.217818	0.133120	0.232474	0.327046	5558.686926	28869.166673	3727.702295	12303.545242
71.036500	0.223218	0.134415	0.234267	0.332132	5560.564892	28644.613521	3721.628726	12194.797368
71.537000	0.225035	0.136100	0.239853	0.336899	5542.954139	28463.505458	3723.135585	12094.021938
72.036500	0.226133	0.137518	0.245297	0.344201	5506.300775	28121.308852	3719.723282	11941.792636
72.537000	0.230385	0.139881	0.246780	0.346962	5515.056348	28098.317635	3717.383208	11884.885954
73.035000	0.230039	0.139931	0.248580	0.351369	5487.233806	27848.160241	3712.633550	11794.822508
73.535000	0.232190	0.141779	0.249399	0.355833	5473.804737	27699.101046	3706.038490	11704.505875
74.035500	0.231773	0.142416	0.245323	0.361281	5440.059259	27427.383946	3689.064319	11595.521838
74.536000	0.235061	0.143056	0.256591	0.363171	5448.062934	27357.263935	3705.774173	11558.041885
75.039000	0.240535	0.146710	0.254023	0.369577	5442.721534	27203.584938	3689.776350	11432.189260
75.536500	0.241481	0.148112	0.258631	0.372223	5433.021074	27134.480328	3693.246267	11380.758966
76.036500	0.240858	0.149099	0.259648	0.377174	5401.460487	26915.484815	3686.305365	11285.327541
76.537000	0.246463	0.150080	0.261664	0.377306	5432.445910	26962.220917	3689.620668	11282.807779
77.037500	0.245683	0.151072	0.260318	0.381343	5405.157968	26795.091683	3680.184768	11205.835304
77.534500	0.247819	0.152698	0.260226	0.383376	5405.733873	26772.769355	3676.490951	11167.333092
78.035000	0.250350	0.153980	0.269648	0.388402	5391.718474	26569.027718	3684.152594	11072.942126
78.535500	0.251135	0.153123	0.269296	0.388227	5397.100635	26532.051720	3683.840714	11076.201363
79.038000	0.254179	0.154523	0.274847	0.391764	5394.335689	26416.769813	3687.376233	11010.401887
79.536000	0.252852	0.156921	0.274676	0.394843	5369.746585	26380.071093	3681.680886	10953.541406
80.036000	0.256033	0.156803	0.271120	0.399084	5363.865497	26146.928531	3668.192107	10875.893741
80.536000	0.260083	0.158636	0.278303	0.400375	5379.200447	26175.822818	3678.361985	10852.408649
81.036500	0.258355	0.156592	0.278401	0.400313	5369.931718	26070.420016	3678.641399	10853.533366
81.537000	0.257843	0.158292	0.276152	0.403959	5346.956393	25967.434480	3668.460779	10787.575693
82.037000	0.262143	0.158583	0.277687	0.407343	5351.998970	25804.701219	3665.297319	10726.845161
82.535000	0.267247	0.159435	0.280419	0.408514	5373.772583	25787.986700	3667.967381	10705.935754
83.035000	0.266779	0.161734	0.287277	0.411509	5354.588170	25751.528016	3674.618352	10652.719788
83.538500	0.268843	0.162415	0.288182	0.413353	5355.803223	25690.790378	3672.996160	10620.153086
84.036000	0.267194	0.162368	0.288297	0.415215	5336.503195	25591.413383	3669.988605	10587.390409
84.536000	0.267774	0.162053	0.291475	0.416368	5333.365807	25515.302283	3673.476631	10567.172918
85.036500	0.267848	0.162980	0.292251	0.418199	5323.773799	25468.525384	3671.656172	10535.177778
85.536500	0.272433	0.164713	0.292058	0.420775	5334.741240	25424.999913	3666.902004	10490.394522
86.036500	0.271729	0.164355	0.290129	0.421963	5324.411662	25345.434431	3661.586151	10469.832306
86.537000	0.271303	0.164849	0.289335	0.422787	5317.612960	25328.497255	3658.841037	10455.607056
87.035000	0.275873	0.167240	0.290758	0.425293	5328.850863	25322.611983	3657.009973	10412.498962
87.534500	0.276365	0.167239	0.295536	0.425984	5327.769213	25287.115579	3663.946141	10400.660641
88.034500	0.275501	0.167403	0.287954	0.427187	5316.514758	25233.896508	3649.117374	10380.074541
88.535000	0.278561	0.167314	0.296164	0.427505	5331.449451	25213.148971	3662.423652	10374.653892
89.035500	0.278373	0.169503	0.294076	0.429399	5320.099095	25228.172718	3655.679676	10342.394253
89.536500	0.279758	0.169187	0.297902	0.430152	5323.540196	25173.664868	3660.878407	10329.616663
90.036000	0.277917	0.170188	0.294554	0.431417	5306.686330	25160.210859	3653.089709	10308.193754
90.536500	0.281405	0.171157	0.300229	0.432131	5321.733131	25173.208712	3661.469613	10296.127510
91.037000	0.283371	0.171984	0.299116	0.432695	5329.375976	25186.637269	3658.627654	10286.617039
91.537000	0.281972	0.172480	0.305957	0.433223	5318.882313	25185.018862	3669.389565	10277.718770
92.034500	0.285466	0.174783	0.302912	0.435643	5324.722540	25179.039821	3660.063885	10237.070155
92.535000	0.284902	0.173456	0.303904	0.434322	5328.851357	25178.672820	3663.995356	10259.220838
93.038000	0.284195	0.171751	0.298035	0.433401	5330.020411	25138.736992	3655.607998	10274.710796
93.536000	0.283248	0.173112	0.302061	0.433973	5321.739653	25178.958448	3661.453914	10265.095643
94.035500	0.286110	0.174117	0.305924	0.435877	5326.960347	25133.157820	3664.789805	10233.152363
94.536500	0.288967	0.174145	0.303900	0.435367	5345.394394	25160.571012	3662.209823	10241.690418
95.036500	0.287939	0.176341	0.301429	0.437772	5326.599419	25149.953034	3653.964255	10201.501045
95.539500	0.285647	0.176037	0.304103	0.436557	5320.736365	25196.370604	3660.534217	10221.781494
96.037500	0.289635	0.176134	0.309345	0.437634	5336.623751	25146.414532	3667.635827	10203.799897
96.537000	0.289207	0.177315	0.295494	0.438804	5327.886015	25146.944571	3642.338763	10184.310088
97.035000	0.288860	0.176718	0.302736	0.438848	5325.751718	25114.327521	3654.352081	10183.580060
97.538000	0.287769	0.175011	0.304704	0.437816	5325.435010	25080.068370	3659.418197	10200.766955
98.036000	0.287292	0.175551	0.305477	0.438351	5319.923497	25080.297840	3659.820379	10191.853013
98.535500	0.290082	0.177782	0.305907	0.441526	5317.829320	25032.428856	3655.181251	10139.195130
99.036500	0.288017	0.175982	0.300953	0.440303	5313.260668	25003.252310	3648.923237	10159.437589
99.536000	0.286867	0.177011	0.299039	0.441073	5302.872640	25016.358745	3644.454490	10146.687372
100.036500	0.288241	0.175526	0.302774	0.440250	5314.761499	24982.858627	3652.060171	10160.308241
100.536500	0.287845	0.175779	0.300101	0.441097	5308.023669	24952.816351	3646.178415	10146.281012
101.037000	0.289311	0.176515	0.301499	0.442347	5309.196576	24926.878983	3646.424848	10125.637822
101.535000	0.288726	0.177449	0.309246	0.442632	5304.492990	24959.618787	3658.952754	10120.939257
102.034500	0.289694	0.177864	0.311522	0.443624	5304.361811	24930.536064	3661.130399	10104.605777
102.538000	0.291078	0.178866	0.311477	0.443455	5312.768066	24989.685378	3661.341973	10107.397560
103.035500	0.291673	0.177899	0.303740	0.443015	5318.387833	24963.045850	3649.048106	10114.638661
103.552000	0.294280	0.177527	0.307019	0.443191	5331.628557	24935.403555	3654.249763	10111.734162
104.036000	0.293500	0.179108	0.311196	0.444548	5319.985801	24946.700237	3659.011659	10089.439364
104.536500	0.292660	0.179165	0.309827	0.443601	5320.568179	24997.414389	3658.296995	10104.997938
105.037000	0.292493	0.179568	0.307811	0.443561	5319.877102	25019.844879	3654.961483	10105.651712
105.537500	0.292916	0.179898	0.306199	0.444186	5318.774800	25004.873500	3651.202598	10095.373101
106.037500	0.294256	0.179614	0.306606	0.444130	5326.373770	24993.332005	3651.979473	10096.293688
