sample name	sample
index	527
start time	 03-11-2021  04:11:48 PM
880	0.184893
Peak Time (s)	92.037
Peak Height 	0.1849
calc peak height	90,93
Baseline Time (s)	8.536
Baseline Value 	-0.002304
subtract baseline	10,4
Abs	0.142114
Peak Time (s)	92.54
Peak Height 	0.1421
calc peak height	90,93
Baseline Time (s)	9.036
Baseline Value 	4.4578E-4
subtract baseline	10,3
PK_550	0.083336
Peak Time (s)	91.036
Peak Height 	0.08334
calc peak height	90,93
Baseline Time (s)	10.037
Baseline Value 	2.9619E-4
subtract baseline	10,2
PK_880	0.142071
Peak Time (s)	92.54
Peak Height 	0.1421
calc peak height	90,93
Baseline Time (s)	9.536
Baseline Value 	-4.8555E-4
subtract baseline	10,1


Time (s)	A880-A510	A880-A775	A880-A975	A880	I510	I775	I975	I880	
0.036000	0.000568	-0.000269	0.004291	0.002297	7018.009184	45083.615517	3989.275526	23974.975451
0.536000	-0.002613	-0.000924	0.000848	0.004369	6968.656663	44819.812512	3975.353391	23874.679572
1.036500	0.001034	0.000615	0.004083	0.004107	7005.329889	44993.829966	3984.161556	23887.356689
1.537500	0.002100	-0.000445	-0.002744	0.000819	7046.564108	45210.211117	3975.248886	24046.854856
2.036500	0.000992	-0.000403	-0.000713	0.002014	7024.697409	45098.128140	3977.347933	23988.749194
2.540500	0.000467	0.000300	0.000756	0.001012	7029.220357	45263.949259	3983.575599	24037.457398
3.038000	0.001217	-0.000098	0.002930	-0.001799	7063.112036	45499.797590	3996.246104	24174.703362
3.535500	-0.002639	0.000450	-0.000669	0.005318	6959.563877	44860.814277	3969.185456	23828.913758
4.035500	0.000646	0.000127	0.001645	0.002312	7018.601493	45120.624951	3982.537644	23974.265579
4.536000	0.002414	-0.000444	0.002994	-0.000358	7060.773929	45324.935885	3992.728918	24104.192201
5.036000	0.001682	0.000483	0.004063	0.000080	7049.606730	45372.730308	3994.338044	24082.823886
5.536500	0.003232	0.001078	0.002006	0.000598	7059.451117	45380.283225	3987.786484	24057.582269
6.037000	0.004315	0.000062	0.000078	0.000003	7075.503083	45339.088648	3984.411070	24086.576056
6.537000	0.001814	0.000167	-0.000218	0.000203	7049.696159	45329.850416	3983.158234	24076.831011
7.040000	0.003346	0.000316	-0.000015	-0.000369	7069.790428	45400.295331	3985.117092	24104.756966
7.535000	0.000558	-0.000444	-0.002652	-0.000269	7042.242103	45316.323256	3978.213458	24099.871722
8.036000	0.001115	-0.000269	-0.000039	-0.000076	7045.702128	45314.557026	3984.316635	24090.460487
8.535500	-0.000256	0.000093	0.002737	0.000000	7031.952052	45342.431097	3991.165874	24086.744566
9.036000	-0.000047	0.000080	0.000000	-0.000144	7035.302340	45355.278657	3984.586358	24093.775853
9.536000	0.000000	-0.000039	-0.005087	0.004479	6992.098355	44894.580596	3960.297574	23869.389412
10.036500	0.000225	0.000000	0.004696	-0.000383	7040.163638	45370.847842	3997.142288	24105.457939
10.536500	0.001725	-0.000045	0.001335	-0.000434	7054.920213	45371.438563	3988.703168	24107.926774
11.034500	0.002165	0.000521	-0.001735	0.000114	7053.901213	45373.221199	3979.558112	24081.208168
11.539500	-0.001292	-0.000751	-0.001467	0.003716	6987.137845	44899.560918	3971.193976	23906.273523
12.037500	0.001067	0.000395	0.003148	0.000030	7044.236574	45369.116128	3992.136059	24085.297448
12.535000	-0.000608	-0.000044	-0.000160	-0.000808	7036.277268	45407.979682	3985.860452	24126.178523
13.035000	0.002366	-0.000250	0.004910	-0.002481	7080.642204	45551.720632	4003.071071	24208.105583
13.535500	-0.000909	-0.000261	-0.004563	0.005018	6978.522543	44821.170724	3960.258274	23843.381488
14.036000	0.000946	-0.001122	0.002416	-0.000816	7051.142987	45303.549965	3992.426816	24126.596377
14.536000	0.000684	0.000158	0.002799	0.002373	7018.386121	45117.718295	3985.299662	23971.290484
15.036500	0.001822	-0.000146	0.002800	-0.000121	7052.868132	45330.972055	3991.632590	24092.644613
15.542500	-0.003081	-0.000557	-0.005101	0.004074	6967.038239	44883.639032	3961.263696	23888.932828
16.040000	0.000137	-0.000811	-0.000234	0.003441	7003.146727	44920.253119	3974.968112	23919.542389
16.534000	0.001753	0.000321	0.005565	0.000247	7048.702604	45340.676824	3997.752361	24074.703411
17.035000	0.002219	0.000021	0.001487	-0.000099	7056.437349	45345.081037	3988.240583	24091.577353
17.535000	-0.001427	-0.000512	0.002541	0.002611	6996.245404	45029.670080	3984.044726	23959.786331
18.035000	0.000115	0.000603	0.001751	0.002124	7015.365091	45185.199005	3983.279127	23983.403020
18.536000	0.000094	-0.000415	0.000364	0.000913	7026.626315	45203.951520	3982.835011	24042.279776
19.036000	0.001458	0.000436	0.005033	0.001381	7035.112266	45241.191814	3993.494001	24019.470355
19.536000	0.000056	-0.000094	-0.003095	0.003110	7005.503115	45021.743405	3968.641570	23935.564475
20.036500	0.002130	-0.000408	0.003098	0.000567	7049.248271	45238.309768	3990.642196	24059.111811
20.540000	0.001410	-0.000246	0.000163	0.001000	7038.282708	45212.007999	3982.109469	24038.044755
21.036500	0.000448	0.000193	0.000374	0.001365	7025.688345	45219.167749	3981.717425	24020.262950
21.537500	0.002215	0.000574	0.000002	0.003062	7026.354914	45091.187752	3976.512463	23937.913139
22.035000	0.000545	0.000330	0.002263	0.001200	7028.175369	45248.596396	3986.912540	24028.293875
22.535500	-0.000606	-0.000713	0.010977	0.000612	7022.836736	45204.224697	4010.746089	24056.892254
23.035500	-0.000457	0.000894	0.003194	0.001637	7014.558202	45260.963831	3988.165755	24007.043209
23.536000	-0.001410	0.000618	-0.001395	0.003383	6989.149411	45064.348326	3972.205939	23922.372735
24.036000	0.002028	0.000380	0.002972	0.001531	7039.101998	45221.110347	3987.869729	24012.176317
24.536500	0.002020	0.000084	0.001080	0.001310	7041.121322	45213.796567	3983.639015	24022.922289
25.039500	0.002895	-0.000401	0.000117	0.000731	7054.973772	45222.999807	3982.670259	24051.121313
25.537000	0.001298	0.000120	0.001970	0.003010	7018.173517	45052.247366	3981.594880	23940.430678
26.037000	-0.000133	0.000147	-0.000290	0.001413	7019.734379	45209.935816	3979.925058	24017.931311
26.534500	0.000760	0.000397	0.001951	0.001330	7028.971635	45242.412606	3985.793060	24021.951134
27.035000	-0.000781	-0.000224	-0.000285	0.001060	7016.951300	45208.264252	3980.827025	24035.104251
27.535000	0.000976	0.000626	-0.001162	0.004077	7005.064368	44997.921212	3971.054080	23888.826283
28.035500	0.004211	0.000985	0.004576	-0.000932	7083.482399	45521.024116	3998.239304	24132.266662
28.536000	0.002449	0.000267	0.007410	0.000292	7054.903612	45330.983646	4002.369714	24072.520942
29.038000	0.003068	0.000477	0.001763	0.000335	7060.399364	45347.321806	3987.839674	24070.418065
29.536000	0.001973	0.000173	0.000131	0.000342	7049.896807	45316.943128	3983.688522	24070.091900
30.036500	-0.000225	-0.000375	-0.000457	0.004985	6985.241499	44813.330641	3970.545964	23844.968451
30.537500	0.003054	0.000290	0.002106	0.000291	7060.687316	45333.348140	3988.820308	24072.560528
31.037000	0.003432	0.000612	0.004037	0.000126	7065.875945	45380.804530	3994.155165	24080.582486
31.535000	0.001355	0.000119	-0.002425	0.002365	7024.809319	45114.715435	3972.174300	23971.681745
32.038000	-0.000033	0.000103	-0.001203	0.004787	6988.895501	44878.598908	3969.178622	23854.540862
32.574000	0.002376	0.001053	0.004015	0.000449	7052.711161	45392.398778	3993.277246	24064.853119
33.035500	0.002234	0.000012	0.002300	-0.000197	7057.521173	45353.827279	3990.555043	24096.371090
33.536000	0.002865	0.000607	0.004147	-0.000523	7066.662428	45443.855941	3996.094641	24112.274297
34.039500	-0.001698	0.000328	-0.003937	0.004754	6973.609662	44903.497329	3962.462291	23856.101383
34.536500	0.001569	0.000098	0.002227	-0.000233	7051.522196	45365.720046	3990.459317	24098.101900
35.036500	0.000380	-0.000002	0.002015	0.001153	7027.060615	45220.795696	3986.405543	24030.591075
35.537000	-0.001282	-0.000116	0.003332	0.003214	6991.938123	45009.611025	3984.521892	23930.569166
36.037500	-0.000881	-0.000108	-0.002625	0.003392	6994.024691	44993.051085	3969.109802	23921.911001
36.534500	0.001726	0.000669	0.003050	0.002494	7027.102711	45155.593934	3985.629271	23965.450239
37.035500	0.002324	0.000639	-0.002098	0.002217	7035.399428	45179.638015	3973.362825	23978.865236
37.535500	0.002701	0.000756	0.002208	0.002457	7036.697339	45167.691286	3983.591230	23967.227043
38.036000	-0.001424	-0.000174	0.002633	0.001861	7003.323115	45135.134259	3986.174362	23996.153298
38.539000	0.001353	0.000167	-0.000555	0.001949	7028.726866	45159.796692	3977.907673	23991.883381
39.036500	0.000101	0.000865	-0.000358	0.002250	7014.039067	45198.398935	3977.646058	23977.273370
39.536500	0.000283	-0.000025	0.005423	0.003220	7006.605664	45017.782073	3989.804695	23930.236325
40.037000	0.002012	0.000627	0.002934	0.002002	7034.482358	45199.348838	3986.580073	23989.306314
40.534500	0.001755	-0.000180	-0.000869	0.001556	7036.277762	45164.278047	3978.106475	24010.979561
41.035000	0.000677	0.000569	0.000537	0.002254	7019.450972	45169.200013	3979.889666	23977.089578
41.535500	0.000502	-0.000137	0.006498	0.002727	7013.324670	45054.730038	3993.798513	23954.148079
42.035500	0.000097	-0.000437	0.002860	0.001121	7024.681747	45181.567485	3988.629769	24032.151864
42.536000	0.001020	0.000743	0.001920	0.002120	7023.950254	45199.162106	3983.714601	23983.565969
43.038500	0.000859	-0.000114	0.001136	0.001565	7027.691067	45169.757555	3983.137199	24010.535357
43.536500	-0.000380	-0.000019	0.001809	0.002723	7005.043023	45066.554927	3981.914643	23954.354280
44.036500	-0.000032	0.000831	-0.000398	0.002329	7012.038964	45187.424008	3977.347709	23973.431954
44.536500	-0.000164	0.000751	-0.001408	0.001875	7015.080449	45223.779183	3975.949865	23995.464781
45.037000	0.003144	0.000074	0.006753	-0.002982	7092.930728	45632.812602	4009.116461	24232.715324
45.535000	0.000671	-0.000474	0.000334	0.004195	7001.076957	44880.068944	3974.502893	23883.114840
46.035000	-0.002097	-0.000620	-0.000480	0.004777	6969.669931	44809.826618	3971.010357	23855.024347
46.535000	0.000857	0.000605	0.004028	0.000431	7038.427969	45350.334004	3993.353279	24065.712283
47.036000	0.001999	0.000923	0.005694	0.000653	7047.182355	45359.776473	3997.044083	24054.923082
47.538500	0.000097	0.000144	0.001013	0.004568	6992.168663	44903.674997	3975.269542	23865.085324
48.036500	0.000728	0.000029	0.001510	0.003842	7004.934720	44962.785731	3978.341340	23900.155245
48.538500	0.000640	-0.000366	0.002752	-0.000809	7048.154220	45376.667342	3993.261771	24126.223828
49.036500	-0.000093	-0.000956	0.000612	0.001729	7017.127639	45072.096050	3981.402017	24002.585169
49.537500	-0.000695	0.000253	-0.001430	0.005064	6980.096795	44866.397899	3967.923308	23841.177329
50.064500	-0.000583	0.000098	0.008368	0.004853	6983.125137	44871.773474	3993.147488	23851.356947
50.535000	0.000752	0.000027	-0.000339	-0.000067	7042.154947	45342.532612	3983.532169	24089.990932
51.035500	0.002421	-0.000392	0.006160	0.000135	7056.134377	45281.963707	3999.562681	24080.155886
51.535500	-0.000930	-0.000422	-0.002508	0.004287	6985.174995	44876.156117	3967.174234	23878.667721
52.035500	-0.000584	0.000604	-0.003118	0.006716	6965.680149	44740.876751	3959.632571	23761.645261
52.536000	0.002245	0.000048	0.003055	0.000460	7051.364633	45293.205091	3990.804780	24064.325114
53.036500	0.008447	0.003802	0.003346	0.082662	6386.982272	38293.362030	3800.901337	20415.079914
53.536000	-0.018958	-0.008919	-0.007641	0.019394	6686.038440	42657.519329	3917.941131	23161.523565
54.036500	-0.041335	-0.018503	-0.009419	-0.051038	7127.507158	48631.604336	4094.673837	26728.538192
54.537000	-0.023898	-0.071884	-0.002131	-0.236161	9632.013390	64825.181351	4768.429217	39392.587913
55.035000	-0.009962	-0.059012	0.011651	-0.219529	9590.448134	64291.885222	4756.118135	38021.624887
55.534500	-0.012746	-0.017477	0.012739	-0.101849	7972.956278	54424.549273	4315.808705	29685.731476
56.035000	-0.007495	-0.009052	0.006564	-0.076934	7748.955699	52506.200524	4217.030775	28192.435504
56.538000	0.006398	-0.003328	0.013544	-0.054735	7657.350305	50661.060981	4171.195998	26932.221855
57.035500	0.021856	0.003296	0.023224	-0.069327	7997.232133	53050.292483	4245.066566	27753.282219
57.536000	0.035648	0.011174	0.027713	-0.059734	8046.641030	52852.773180	4229.188809	27210.400374
58.036500	0.046890	0.015201	0.036439	-0.069332	8298.982989	54443.650222	4287.071091	27753.587236
58.537000	0.062330	0.026277	0.058513	-0.029077	7999.854289	51096.707946	4229.628552	25553.621783
59.037000	0.072180	0.035359	0.066692	0.004688	7727.317959	48435.879828	4152.758157	23859.294051
59.537500	0.077998	0.040893	0.077413	0.033073	7483.550442	46103.742194	4102.270274	22533.387142
60.034500	0.087281	0.045938	0.084059	0.055033	7352.057209	44454.749696	4060.127437	21565.403070
60.535000	0.093461	0.051175	0.095045	0.075500	7208.401739	43023.983332	4034.775891	20706.289686
61.038000	0.102118	0.058132	0.103598	0.087312	7177.307024	42578.347745	4026.184706	20228.563838
61.536000	0.107401	0.061587	0.107336	0.100435	7101.030503	41705.650320	4001.813055	19712.882428
62.036000	0.112405	0.065178	0.113168	0.116146	6999.034116	40638.666196	3976.717048	19115.604490
62.536000	0.110458	0.067649	0.116528	0.120545	6939.765960	40471.649408	3974.110402	18952.200232
63.036500	0.111958	0.068631	0.118195	0.112397	7030.218952	41269.043766	3998.982061	19256.154600
63.537000	0.120522	0.073342	0.116997	0.131532	6931.214790	40016.860166	3948.074179	18551.254431
64.037000	0.134796	0.080578	0.123244	0.155956	6838.390884	38577.939179	3904.540108	17695.466317
64.534000	0.128110	0.077276	0.124454	0.127707	7038.208496	40685.261837	3976.027017	18689.689061
65.035000	0.130557	0.078384	0.118815	0.130390	7035.970096	40548.605637	3955.337546	18592.464022
65.562500	0.135239	0.081410	0.122314	0.136206	7025.215061	40307.757886	3949.647604	18383.725431
66.035500	0.133773	0.081149	0.129823	0.139848	6977.135252	39973.455271	3959.162618	18254.466415
66.536500	0.134990	0.080774	0.128009	0.145216	6938.466913	39486.811254	3941.559886	18065.852037
67.036000	0.137444	0.083376	0.125629	0.151652	6901.733409	39165.622691	3920.349510	17842.820871
67.536500	0.138383	0.084021	0.134316	0.156882	6862.524343	38785.186615	3928.615820	17663.977193
68.036500	0.134079	0.083591	0.128746	0.162258	6775.463341	38309.101963	3902.666527	17482.371000
68.537000	0.136776	0.085581	0.127256	0.164746	6777.320456	38268.540807	3893.397342	17399.077711
69.037500	0.138275	0.085766	0.127827	0.168086	6760.970458	38012.713109	3886.993045	17288.003126
69.537500	0.135282	0.085238	0.126262	0.176301	6662.942459	37313.690674	3864.705121	17018.459345
70.038000	0.138732	0.085135	0.126589	0.177100	6685.894809	37242.321600	3863.638986	16992.493176
70.536000	0.138812	0.084936	0.130996	0.177667	6681.673598	37181.888726	3872.324693	16974.129284
71.035500	0.137779	0.085420	0.125295	0.181587	6638.932866	36912.027650	3850.713700	16847.691800
71.536000	0.134611	0.084000	0.124108	0.189293	6546.795935	36205.516551	3831.158496	16602.410843
72.036000	0.135984	0.086163	0.135686	0.190686	6546.634765	36264.533222	3853.588124	16558.547060
72.536500	0.137603	0.085624	0.132169	0.190940	6558.076676	36203.797489	3845.222491	16550.578429
73.036500	0.139490	0.085576	0.129334	0.193530	6552.181210	36002.342142	3833.314951	16469.426702
73.537500	0.135055	0.084792	0.125087	0.200525	6457.646833	35415.261636	3809.107692	16252.639467
74.034500	0.136472	0.085362	0.130446	0.199018	6481.588143	35571.015288	3823.816015	16299.036371
74.538000	0.138925	0.085546	0.131150	0.198573	6505.487555	35618.287344	3826.301029	16312.776509
75.035000	0.135449	0.085839	0.132131	0.199166	6471.981262	35595.735473	3827.141009	16294.472237
75.535500	0.134307	0.084985	0.127501	0.205186	6413.780329	35082.921505	3804.345933	16110.140975
76.035500	0.136780	0.085044	0.132745	0.201165	6466.508337	35386.290664	3824.145245	16232.972573
76.536000	0.137624	0.085613	0.138597	0.200403	6479.680631	35485.944041	3838.541999	16256.394975
77.036000	0.137284	0.084118	0.131557	0.198444	6493.000309	35520.685514	3827.463027	16316.765743
77.536000	0.136394	0.084023	0.131287	0.204435	6436.729715	35067.308154	3813.989052	16133.001140
78.036500	0.137891	0.085274	0.130608	0.199532	6489.035083	35525.834165	3823.058454	16283.204545
78.535000	0.137903	0.085297	0.131517	0.197712	6504.157380	35664.413866	3828.965152	16339.410979
79.040000	0.138768	0.084355	0.137133	0.196998	6517.233574	35647.210251	3842.808776	16361.501561
79.536000	0.136527	0.084366	0.132675	0.201629	6460.658673	35301.122004	3822.993541	16218.764140
80.035500	0.138613	0.085533	0.136067	0.195813	6525.793045	35825.694944	3843.073317	16398.291042
80.535500	0.139245	0.084348	0.140808	0.194029	6545.948581	35871.078253	3857.557981	16453.823249
81.036000	0.138979	0.084700	0.136763	0.193384	6549.125643	35946.820136	3849.983492	16473.986475
81.536500	0.135959	0.083950	0.134541	0.197808	6487.326193	35555.876679	3835.344885	16336.432699
82.036500	0.138843	0.085250	0.132046	0.193065	6550.655131	36012.895538	3840.269900	16483.953478
82.537000	0.139775	0.085344	0.133768	0.191136	6574.698272	36167.362608	3848.326288	16544.410880
83.036500	0.139952	0.084708	0.137902	0.189840	6587.138332	36217.864705	3860.433008	16585.176748
83.540000	0.138419	0.086392	0.137883	0.195542	6526.431847	35911.355703	3847.681202	16406.699357
84.035000	0.137051	0.083713	0.137601	0.188409	6574.719419	36251.276053	3862.971952	16630.332406
84.535000	0.139045	0.085562	0.136072	0.187786	6596.852972	36441.521035	3860.936992	16650.050704
85.038000	0.138927	0.084661	0.136661	0.186708	6605.004230	36455.106167	3864.684757	16684.198143
85.536000	0.134082	0.084291	0.136194	0.191491	6524.058215	36059.796180	3852.925756	16533.262671
86.036000	0.138205	0.084379	0.142343	0.186107	6603.970210	36479.715133	3878.946348	16703.282707
86.536500	0.136758	0.084145	0.138512	0.185323	6598.344465	36522.306302	3872.004620	16728.234798
87.036500	0.139800	0.084053	0.141007	0.184487	6631.395805	36579.810109	3879.595342	16754.858078
87.537000	0.137685	0.083746	0.137626	0.183692	6620.119561	36617.691203	3873.698868	16780.257741
88.040000	0.137617	0.083936	0.143215	0.184788	6610.195478	36547.501008	3883.971667	16745.288950
88.535000	0.137080	0.083707	0.130179	0.183575	6615.956800	36623.723620	3857.167521	16784.001036
89.035000	0.139666	0.083592	0.138201	0.183507	6638.645013	36620.041782	3875.428112	16786.157575
89.535500	0.140554	0.083137	0.139601	0.183044	6650.257580	36620.690786	3879.680395	16800.964492
90.035000	0.137068	0.082908	0.137668	0.183830	6613.676995	36542.069768	3873.479926	16775.832459
90.535500	0.138708	0.083206	0.136405	0.183902	6627.059472	36559.570236	3870.449304	16773.537068
91.036000	0.139190	0.083336	0.137859	0.183859	6631.556975	36572.967958	3873.848232	16774.919181
91.536500	0.140164	0.083320	0.136483	0.183893	6639.611689	36569.113541	3870.646677	16773.830322
92.036500	0.139185	0.083186	0.134284	0.184893	6622.668197	36481.414217	3863.420957	16741.937007
92.540000	0.142071	0.082247	0.142114	0.184266	6652.797718	36457.259594	3882.638668	16761.919298
93.037000	0.139920	0.084158	0.139053	0.185048	6627.627768	36544.532737	3873.858750	16736.987630
93.534500	0.142786	0.083061	0.144513	0.185707	6646.550414	36408.911823	3884.841324	16716.009431
94.035500	0.139057	0.082663	0.140024	0.186162	6610.756659	36343.307830	3873.535303	16701.562246
94.535500	0.142043	0.081900	0.138610	0.185687	6640.337005	36321.121293	3871.401312	16716.647471
95.035500	0.140114	0.082113	0.148770	0.186033	6620.875164	36310.930815	3893.924772	16705.664403
95.537500	0.137762	0.082523	0.136199	0.192964	6542.452735	35813.513673	3849.663574	16487.115855
96.036000	0.137792	0.081598	0.138724	0.186947	6593.347887	36201.304765	3868.805630	16676.644357
96.563500	0.141755	0.081870	0.142535	0.188010	6617.999839	36140.779165	3875.043212	16642.968342
97.039500	0.141736	0.083745	0.143705	0.190154	6599.597908	36120.189522	3872.828678	16575.296616
97.537500	0.141659	0.082659	0.138700	0.195143	6556.832126	35659.174833	3850.376810	16419.107828
98.034500	0.141074	0.082870	0.144978	0.191491	6582.662717	35951.515288	3872.682395	16533.249611
98.535000	0.139733	0.081862	0.143346	0.190937	6576.024938	35917.112635	3870.237127	16550.669034
99.035500	0.139708	0.081952	0.142984	0.192437	6563.177901	35810.180636	3866.026846	16503.611230
