sample name	sample
index	1018
start time	 04-19-2021  11:52:25 AM
880	0.574920
Peak Time (s)	100.535
Peak Height 	0.5749
calc peak height	100,103
Baseline Time (s)	9.035
Baseline Value 	-0.004973
subtract baseline	10,4
Abs	0.392483
Peak Time (s)	101.036
Peak Height 	0.3925
calc peak height	100,103
Baseline Time (s)	10.036
Baseline Value 	0.003212
subtract baseline	10,3
PK_550	0.211858
Peak Time (s)	102.54
Peak Height 	0.2119
calc peak height	100,103
Baseline Time (s)	11.537
Baseline Value 	4.0477E-4
subtract baseline	10,2
PK_880	0.367788
Peak Time (s)	101.036
Peak Height 	0.3678
calc peak height	100,103
Baseline Time (s)	9.536
Baseline Value 	0.001883
subtract baseline	10,1


Time (s)	A880-A510	A880-A775	A880-A975	A880	I510	I775	I975	I880	
0.035500	0.000243	-0.000073	0.002723	0.000757	6574.852426	45993.794334	3971.954618	24288.646826
0.536000	-0.002989	-0.000658	-0.002177	0.003187	6525.725998	45695.056952	3951.638617	24168.629146
1.036000	-0.002224	-0.000419	-0.003313	0.005738	6510.367380	45467.457673	3941.550040	24043.364511
1.537000	0.000679	0.000696	-0.000495	0.000911	6577.315882	46055.001182	3962.566796	24281.021293
2.037000	0.001185	0.000069	0.001371	-0.000089	6590.496822	46092.168930	3970.540920	24330.587370
2.537000	0.000407	-0.000578	-0.006081	-0.001092	6592.473753	46127.639295	3952.670944	24380.429678
3.037000	-0.002961	-0.000313	-0.004376	0.005060	6509.866033	45544.609149	3940.504803	24076.617623
3.540000	-0.001925	0.000511	-0.001445	0.000925	6554.509978	46035.229989	3959.898920	24280.358858
4.035000	-0.000710	-0.000570	-0.001197	-0.000488	6577.407288	46068.319784	3964.501761	24350.429694
4.535000	0.000845	0.000370	-0.003861	0.000597	6581.514563	46053.939987	3954.133099	24296.612442
5.035500	-0.003543	0.000820	-0.004279	0.003214	6520.726949	45838.605310	3945.803907	24167.292697
5.536000	-0.000302	0.000470	0.001267	0.000446	6572.807608	46078.882372	3968.761257	24304.080052
6.036000	-0.003293	-0.000794	-0.003101	-0.000873	6558.250445	46084.330714	3960.289759	24369.562688
6.539500	-0.001002	0.000118	-0.000208	0.000466	6566.530412	46041.780305	3964.598985	24303.090550
7.037000	-0.000681	0.000523	-0.002899	0.000399	6569.909802	46088.794198	3957.330144	24306.384348
7.537000	0.000268	0.000333	-0.005188	-0.000084	6582.423777	46118.071783	3952.356139	24330.368414
8.040500	0.000015	0.000034	-0.003955	-0.000344	6582.484747	46114.164925	3956.466563	24343.259646
8.534000	0.000414	-0.000083	-0.003971	-0.000546	6587.744969	46122.630629	3956.981531	24353.316474
9.035000	-0.001860	0.000082	-0.002777	0.000000	6563.115448	46084.575253	3958.770506	24326.188950
9.535500	0.000000	-0.000206	0.001469	-0.000141	6580.578322	46070.042196	3970.962037	24333.198218
10.035500	0.000505	0.000397	0.000000	0.000188	6582.110972	46097.272757	3965.949199	24316.845606
10.535500	-0.000621	-0.000179	-0.003537	0.003292	6545.286310	45732.100260	3947.622627	24163.483284
11.036500	-0.000326	0.000184	0.006827	0.000034	6576.195941	46091.400394	3985.521530	24324.502301
11.536500	0.000134	0.000000	0.006360	-0.000270	6582.879175	46103.390098	3985.062852	24339.605031
12.037000	-0.000243	0.000159	-0.001421	-0.000167	6578.679407	46108.970222	3962.988826	24334.477094
12.540000	0.000703	0.000278	0.000206	-0.000127	6586.604325	46116.791207	3967.399476	24332.488194
13.037500	-0.000467	-0.000068	0.000718	-0.001915	6592.028484	46260.890625	3973.822863	24421.422774
13.535000	-0.000025	0.000020	-0.000029	-0.001664	6593.699972	46244.523552	3971.030342	24408.909713
14.035500	-0.000641	0.000300	0.000084	0.001757	6558.438840	45931.526674	3961.828549	24239.192197
14.535500	-0.001913	-0.000145	0.001982	0.000873	6555.059796	45975.104954	3969.561869	24282.907802
15.038000	0.001771	0.000437	-0.000643	-0.001302	6606.296262	46250.020051	3968.306934	24390.860194
15.536000	0.002682	0.000890	0.000883	-0.001105	6612.592430	46275.596151	3972.015555	24381.072707
16.036500	0.001442	-0.000047	0.002691	-0.001555	6605.633546	46226.902417	3978.344576	24403.469390
16.536500	-0.002037	0.001092	-0.003297	0.004348	6523.934002	45753.335190	3945.387144	24111.534585
17.040000	0.003185	0.000021	0.000157	-0.003647	6639.548002	46443.361736	3977.103756	24507.905721
17.535000	0.000784	0.000474	-0.000495	0.000214	6584.329807	46102.419998	3964.503500	24315.588359
18.035000	-0.000563	0.001149	0.000785	0.001109	6564.758625	46080.483219	3965.573904	24271.248156
18.535000	-0.000082	-0.000451	-0.001346	0.001449	6565.984251	45887.572129	3958.720242	24254.416243
19.035500	0.001224	0.001205	-0.002693	0.001123	6580.225546	46084.606729	3955.903897	24270.559730
19.535500	-0.001120	-0.000397	-0.000050	-0.000062	6570.099531	46043.063059	3966.507355	24329.255672
20.036000	0.000316	0.000592	0.001276	0.000312	6579.379525	46104.389348	3969.159463	24310.721851
20.536500	-0.000380	0.000325	-0.000147	0.002246	6556.458747	45885.511903	3959.833852	24215.060945
21.036500	0.000581	0.000387	0.005174	0.000700	6578.303409	46045.339003	3978.985221	24291.492272
21.539500	0.001693	0.000866	0.002169	0.001146	6584.126294	46048.567927	3969.322047	24269.391639
22.037000	0.000545	0.000696	0.004123	0.000726	6577.761596	46073.488595	3975.962793	24290.213755
22.537000	-0.000809	0.000314	0.001942	0.002058	6554.362198	45903.099401	3966.150479	24224.327853
23.034500	-0.000163	0.001005	-0.000075	0.000986	6569.303560	46078.277643	3963.522642	24277.300681
23.535500	0.000798	0.000431	0.000670	0.000564	6581.384817	46063.238131	3966.768367	24298.218689
24.036000	0.000447	0.001287	0.001897	0.000929	6575.131535	46112.163129	3969.169378	24280.139177
24.536000	-0.002396	-0.000092	-0.004203	0.001841	6542.481836	45884.316509	3949.773230	24235.041732
25.036500	0.000892	0.000970	-0.002556	0.001103	6577.501460	46063.207039	3956.336358	24271.556334
25.536000	0.001516	0.000779	-0.002131	0.000807	6585.542686	46073.646177	3958.325048	24286.167277
26.039500	-0.000584	0.000657	0.001776	0.000856	6566.774787	46056.672801	3969.037366	24283.778905
26.537000	-0.000591	0.000825	-0.000390	0.000815	6567.067630	46077.453388	3963.124523	24285.775749
27.037000	0.001199	0.001269	-0.000781	-0.001238	6600.701841	46326.875206	3967.744939	24387.684161
27.535000	0.000940	0.000170	-0.001304	-0.002599	6610.410157	46353.195707	3970.080589	24455.521662
28.035000	0.001627	0.000206	0.004017	-0.001919	6610.473252	46288.660582	3983.104665	24421.628707
28.535000	-0.002276	-0.000412	-0.000982	0.004066	6524.295080	45632.611899	3952.509031	24125.377449
29.035500	0.001038	0.000994	0.000565	0.000610	6583.084714	46114.738525	3966.348523	24295.935297
29.536000	0.002612	0.000668	-0.001557	-0.001381	6614.410463	46281.065239	3965.984280	24394.827013
30.036500	0.001334	0.000832	-0.003447	-0.001226	6601.786999	46281.900517	3960.307489	24387.086279
30.539500	0.000518	0.000526	0.000180	0.001592	6569.967165	45970.401508	3962.550942	24247.332553
31.036500	-0.000769	0.000558	0.000699	0.001741	6557.454821	45958.735574	3963.577485	24239.960092
31.537500	0.001783	0.000742	-0.000427	-0.001103	6604.662670	46260.608750	3968.354943	24380.987249
32.035000	0.002876	0.000608	0.003280	-0.001008	6613.454854	46237.761089	3978.465158	24376.279664
32.535000	-0.002242	0.000989	0.000345	0.005657	6510.914777	45613.986881	3951.785881	24047.359879
33.035500	0.000277	0.000689	-0.000309	0.002898	6556.498767	45857.025376	3957.584305	24182.892088
33.535500	0.003999	0.001696	0.006147	-0.000736	6620.962222	46319.401592	3985.777137	24362.732942
34.036000	-0.001449	0.001014	-0.000721	0.002024	6549.101334	45975.981523	3958.860293	24226.001899
34.536500	0.001100	0.001121	-0.000035	0.002420	6567.816909	45947.217882	3959.662782	24206.446965
35.039000	0.000268	-0.000322	-0.000675	0.001429	6569.207214	45902.328778	3960.633035	24255.401955
35.536500	0.000196	0.000443	0.002672	0.001721	6566.039045	45949.354445	3969.121059	24240.976516
36.037000	0.001453	0.000006	-0.003557	0.000898	6584.195515	45987.667306	3954.139778	24281.659424
36.537000	0.000150	0.001036	0.000011	0.002109	6562.253814	45969.690413	3960.650250	24221.820425
37.035000	-0.000204	0.000938	0.001645	0.002302	6557.502500	45940.781239	3964.648423	24212.290219
37.534500	0.000116	0.000598	0.000782	0.001937	6563.451228	45943.235841	3963.263661	24230.285052
38.035500	-0.001477	-0.000404	-0.001743	0.001170	6556.277665	45919.935704	3958.394987	24268.230351
38.535500	0.000387	0.000286	-0.000180	0.003086	6555.827060	45798.526988	3957.421273	24173.644008
39.036000	-0.000563	0.000186	0.002907	0.002172	6555.500865	45879.024100	3968.518956	24218.673867
39.539000	0.000608	0.000700	-0.000758	0.002279	6564.759762	45919.422840	3958.050729	24213.398057
40.036500	-0.000998	0.000377	-0.000326	0.001822	6554.772535	45932.792418	3960.510645	24235.987676
40.537000	0.000835	-0.000597	0.002077	0.002208	6567.360376	45797.886884	3966.106825	24216.908076
41.037000	0.000905	0.001147	0.001037	0.001473	6574.377463	46043.982200	3965.261061	24253.226674
41.537500	-0.001051	0.000628	-0.000736	0.000968	6561.732654	46042.664161	3961.740948	24278.224606
42.037000	0.003212	0.001219	-0.000481	0.001241	6596.612897	46074.268465	3961.690976	24264.693952
42.535000	-0.002042	0.000408	-0.000711	0.002280	6541.749109	45890.348321	3958.181313	24213.368668
43.035500	-0.000819	-0.000130	0.002439	0.000211	6570.348895	46042.566840	3972.688217	24315.742341
43.535000	-0.000290	0.001080	-0.002429	0.000581	6571.742115	46126.214322	3958.129327	24297.403356
44.039000	0.003169	0.000131	-0.000976	-0.004662	6648.427392	46556.518304	3976.773096	24558.734582
44.536500	-0.000039	0.000930	0.003154	0.003961	6544.533522	45775.527458	3964.230094	24130.538411
45.036500	0.001021	0.000964	0.004189	-0.001229	6599.068151	46295.475981	3981.642063	24387.251329
45.536500	0.001096	0.000562	-0.001760	-0.002004	6606.537572	46332.760111	3967.151993	24425.823211
46.037000	0.001952	0.000427	-0.000980	-0.001667	6611.109682	46285.501202	3968.385067	24409.052598
46.534500	-0.001510	0.000070	0.001908	0.002993	6540.181774	45786.248544	3963.458245	24178.212174
47.035000	-0.000492	0.000516	0.000448	-0.001474	6587.941219	46275.206921	3971.832383	24399.457960
47.535500	0.000224	0.000500	0.003451	0.001473	6568.440938	45979.573840	3971.988426	24253.213468
48.035500	-0.000273	0.000256	-0.002036	-0.001550	6590.523849	46256.725568	3965.120183	24403.226101
48.539000	-0.000752	0.000690	0.000775	0.003756	6540.135775	45772.153460	3958.208734	24140.654073
49.039000	0.002906	-0.000056	0.001797	-0.001602	6618.960537	46230.715085	3975.966924	24405.832106
49.536500	0.003879	0.000914	0.002209	-0.002260	6633.391906	46393.726980	3978.970727	24438.605399
50.036000	0.002730	0.001304	0.001696	0.001017	6594.347618	46105.049576	3968.364858	24275.796106
50.537000	-0.000305	0.001288	0.008713	0.031782	6308.935742	43143.042183	3903.964290	22805.655029
51.037500	0.025424	-0.001817	0.042906	0.412211	4340.764878	19490.326425	3274.413630	11119.070949
51.535000	-0.005617	-0.003238	-0.030475	0.098214	5771.962265	37064.127498	3656.596671	19965.010612
52.038000	-0.027933	-0.051956	-0.052178	-0.195933	8372.618529	63081.703939	4440.589410	36610.841516
52.535500	-0.019487	-0.042308	-0.032883	-0.180837	8287.683473	62330.533296	4456.937207	35455.089859
53.038500	-0.007725	-0.064050	-0.011327	-0.220462	8979.162665	64832.211699	4713.930147	38576.685441
53.536500	0.000536	-0.038328	-0.002028	-0.179285	8526.859167	62664.064190	4575.511143	35338.481946
54.036000	0.008091	-0.018556	0.006595	-0.126107	7954.036300	58233.150425	4398.311479	31586.100378
54.537000	0.008297	-0.008357	0.006481	-0.093789	7585.443912	55481.282749	4280.284889	29520.170046
55.039500	0.026314	-0.002618	0.019989	-0.090314	7748.987617	55756.557230	4315.860914	29307.058093
55.537000	0.034535	0.005303	0.026969	-0.071437	7628.622748	54437.695754	4273.770975	28178.707334
56.035000	0.048415	0.012846	0.039032	-0.034597	7379.067970	51070.142576	4189.720458	26112.925003
56.534500	0.056822	0.018594	0.052184	0.004563	7064.837379	47496.908037	4106.505790	24100.977545
57.035000	0.070402	0.029508	0.066213	0.032299	6927.505005	45799.293931	4064.615548	22781.822898
57.535000	0.084275	0.034327	0.082271	0.091485	6516.828622	40741.563676	3941.106837	20233.374661
58.038500	0.100139	0.042559	0.098348	0.125842	6361.159488	38527.415293	3892.348645	18905.754929
58.536500	0.118081	0.053695	0.120704	0.142879	6368.618781	38045.332996	3906.323299	18285.331483
59.037000	0.129944	0.061908	0.130582	0.163507	6296.971881	37052.512760	3878.252427	17566.035539
59.536500	0.146173	0.069934	0.148511	0.202787	6115.295273	34675.180673	3824.516856	16287.268255
60.036500	0.160076	0.079483	0.168697	0.229714	6016.837865	33425.474380	3808.092269	15475.145331
60.537000	0.175413	0.087689	0.181847	0.252877	5959.077211	32389.220153	3784.161789	14815.728666
61.037500	0.186435	0.095027	0.198142	0.272951	5893.557255	31534.611791	3775.272633	14272.034704
61.535000	0.202125	0.103640	0.210638	0.292444	5866.435968	30824.055808	3759.017619	13767.568950
62.041000	0.215188	0.112250	0.223318	0.314738	5801.572700	29955.239093	3737.102803	13217.684482
62.535000	0.226809	0.119158	0.238773	0.336159	5734.213812	29063.265650	3723.747242	12715.293902
63.036000	0.240381	0.127691	0.256062	0.348367	5743.495288	28842.041160	3735.110137	12439.855848
63.536500	0.251409	0.133189	0.265228	0.374458	5642.561875	27636.763697	3697.769925	11876.548264
64.036500	0.264443	0.140697	0.281071	0.425546	5402.623166	25266.904490	3624.525955	10866.876500
64.537000	0.273922	0.147871	0.294483	0.427745	5446.907468	25525.525409	3647.184887	10826.016720
65.037000	0.282937	0.152869	0.297278	0.424359	5524.094093	25968.259431	3659.930151	10889.019515
65.537500	0.292108	0.156285	0.308365	0.442125	5470.364575	25215.686300	3646.167072	10563.925504
66.035000	0.295561	0.159902	0.305409	0.439933	5505.525606	25517.360147	3644.605886	10603.322342
66.571000	0.298188	0.161883	0.312854	0.447287	5476.052822	25238.220373	3644.792517	10471.948778
67.035500	0.303931	0.164735	0.315577	0.451278	5486.943285	25179.516100	3642.208782	10401.573467
67.535000	0.306485	0.166538	0.322717	0.453225	5490.720116	25172.097876	3652.842898	10367.470547
68.036500	0.308670	0.169332	0.328107	0.457453	5478.009644	25098.369490	3655.238952	10293.949884
68.536500	0.308782	0.170647	0.323180	0.469009	5407.910118	24579.033863	3621.828092	10096.613323
69.037500	0.312916	0.173174	0.325324	0.467971	5439.359141	24758.443702	3628.179353	10114.120311
69.537000	0.314045	0.175334	0.332807	0.473544	5412.314338	24586.662421	3632.014495	10020.590794
70.038000	0.315923	0.176361	0.334173	0.477092	5402.223205	24460.668474	3627.635088	9961.678637
70.537500	0.317676	0.177878	0.336055	0.487638	5349.714768	24015.268088	3610.460084	9789.345575
71.038500	0.321194	0.179852	0.340394	0.486265	5378.792926	24179.323398	3621.744244	9811.547728
71.534500	0.319886	0.178304	0.339708	0.488358	5358.539364	24000.964170	3616.235975	9777.738666
72.035500	0.326831	0.182688	0.345607	0.494071	5365.861598	23936.242679	3616.604797	9686.279298
72.536000	0.322680	0.180464	0.341576	0.500624	5302.963996	23513.658185	3595.936431	9582.826396
73.036000	0.331560	0.184952	0.354637	0.501602	5349.246277	23681.600999	3619.572314	9567.519024
73.536000	0.326917	0.183555	0.351717	0.502442	5317.043429	23574.421549	3612.146741	9554.410219
74.036500	0.331074	0.185184	0.354834	0.506533	5317.424862	23457.023770	3610.233035	9490.870727
74.537000	0.331076	0.186667	0.354019	0.513781	5275.486029	23184.859888	3594.560448	9379.787480
75.034500	0.334292	0.187167	0.358264	0.512212	5303.102834	23282.109458	3605.832748	9403.674296
75.538000	0.334556	0.188430	0.356288	0.514937	5288.857488	23213.336490	3596.704441	9362.231856
76.035000	0.333906	0.189112	0.357394	0.517273	5271.688298	23135.812337	3594.335653	9326.925802
76.535500	0.336668	0.190462	0.361656	0.526564	5234.544308	22767.612481	3584.706512	9188.318721
77.036000	0.339720	0.192169	0.362839	0.524103	5265.872874	22960.059744	3591.671754	9224.744345
77.536000	0.339592	0.191534	0.357770	0.524889	5260.651487	22894.233588	3580.508710	9213.086118
78.036500	0.339981	0.192579	0.364631	0.527162	5249.924122	22837.526827	3589.244595	9179.503832
78.536500	0.342225	0.194583	0.361935	0.534691	5220.082850	22584.462978	3569.905923	9069.495398
79.036500	0.344282	0.195041	0.364531	0.533024	5241.071560	22681.431772	3577.912426	9093.689637
79.537000	0.347868	0.195138	0.367589	0.533860	5256.687596	22647.608598	3582.117527	9081.542357
80.037500	0.345237	0.195528	0.369433	0.535280	5233.718594	22600.679098	3582.923165	9060.972052
80.535000	0.345423	0.196299	0.360344	0.542420	5194.784586	22312.604281	3552.669535	8958.528594
81.035500	0.347158	0.196753	0.370698	0.538387	5227.031852	22515.116026	3579.432592	9016.184825
81.535500	0.349728	0.197998	0.367405	0.540611	5228.980769	22470.756357	3569.064067	8984.323573
82.036000	0.352984	0.199110	0.368684	0.542539	5236.476376	22433.826099	3567.853147	8956.836438
82.536500	0.349566	0.199923	0.373733	0.549264	5179.827412	22168.605206	3564.734993	8861.908203
83.036500	0.353165	0.199803	0.373000	0.544309	5227.511361	22385.236389	3572.613924	8931.709186
83.537000	0.350106	0.201074	0.376774	0.545779	5202.147137	22376.250478	3576.946664	8910.910150
84.037000	0.352100	0.200708	0.374135	0.546691	5208.184257	22318.826652	3570.279858	8898.054618
84.534500	0.351958	0.201473	0.375789	0.553692	5168.612089	22040.720663	3560.340421	8800.189102
85.034500	0.354667	0.202625	0.376420	0.550238	5202.717063	22245.722660	3567.921899	8848.276023
85.535000	0.354380	0.202104	0.380384	0.550595	5199.131047	22206.495145	3574.675945	8843.295545
86.036000	0.356049	0.204602	0.380096	0.552533	5197.630019	22231.503631	3570.501726	8816.285213
86.535500	0.354272	0.203408	0.378736	0.558815	5153.229212	21900.126531	3556.331196	8729.579729
87.037000	0.356686	0.203588	0.383893	0.553355	5196.602817	22149.584805	3576.084978	8804.871153
87.536000	0.357105	0.204497	0.381277	0.554438	5192.916749	22141.875753	3569.148810	8789.866361
88.037000	0.358991	0.204446	0.386509	0.554925	5200.696011	22117.929726	3578.058485	8783.130107
88.537000	0.355589	0.204735	0.382345	0.561474	5145.919380	21841.695124	3558.080511	8693.264622
89.040000	0.356800	0.204389	0.385456	0.555901	5183.123500	22072.040584	3574.235892	8769.641682
89.537500	0.358540	0.205965	0.378685	0.558430	5178.762166	22029.854044	3556.944953	8734.855782
90.034500	0.355534	0.205502	0.387853	0.557619	5166.687432	22045.293480	3575.514186	8745.997857
90.535000	0.356884	0.206709	0.387003	0.566056	5128.094441	21727.766083	3558.218376	8631.178746
91.035500	0.360632	0.207143	0.386784	0.560183	5180.634746	22004.396836	3568.702973	8710.859954
91.536000	0.362046	0.208429	0.389884	0.561752	5179.782648	21991.947186	3571.566501	8689.476356
92.036000	0.362209	0.206632	0.382644	0.560409	5188.107379	21971.921658	3560.595650	8707.781744
92.536500	0.358359	0.207212	0.385305	0.567065	5130.613086	21705.731067	3553.247900	8617.601045
93.036500	0.362901	0.208582	0.387784	0.563302	5175.947416	21930.345578	3564.757388	8668.409148
93.539500	0.360026	0.207274	0.382238	0.562482	5164.651310	21908.866493	3556.028561	8679.545632
94.034500	0.361243	0.208720	0.388425	0.563275	5166.978596	21937.601239	3565.999706	8668.781367
94.537500	0.358446	0.207978	0.385435	0.569186	5119.639518	21646.886297	3549.611113	8589.153012
95.035000	0.365203	0.209330	0.383160	0.564632	5181.307541	21904.725570	3553.774503	8650.403338
95.535500	0.361330	0.208047	0.388391	0.563664	5165.316743	21890.889765	3565.213295	8663.507873
96.035500	0.367490	0.208762	0.383672	0.565106	5191.346943	21859.016184	3553.847008	8644.007684
96.536000	0.360587	0.208773	0.388389	0.571076	5120.995434	21599.516059	3551.554409	8563.930916
97.036000	0.364745	0.208835	0.384398	0.565136	5176.003346	21860.885136	3555.122015	8643.595069
97.536000	0.365082	0.210011	0.393624	0.566113	5172.477164	21869.606000	3570.404348	8630.412867
98.036500	0.367327	0.210969	0.386076	0.568064	5174.097218	21826.097191	3552.829485	8604.181833
98.537000	0.362280	0.210444	0.387556	0.570875	5131.219180	21680.663840	3550.399934	8566.610411
99.037000	0.365081	0.208552	0.390645	0.566386	5170.969663	21793.747056	3564.343483	8626.735417
99.535000	0.364565	0.209712	0.386385	0.566963	5164.971279	21819.297557	3555.416233	8618.979157
100.035000	0.366397	0.209436	0.389027	0.567085	5174.365506	21801.865040	3560.054018	8617.335042
100.535500	0.363025	0.210642	0.390456	0.574920	5113.433372	21514.237626	3548.312144	8512.943109
101.036000	0.367788	0.210178	0.392483	0.569060	5171.154104	21748.021703	3562.794020	8590.844358
101.536000	0.363601	0.209432	0.389602	0.567884	5154.650199	21766.832428	3559.641766	8606.609584
102.036500	0.366483	0.210516	0.391406	0.569408	5162.079155	21747.584957	3560.158075	8586.184295
102.539500	0.364730	0.211858	0.390835	0.573034	5132.789183	21648.320133	3552.446616	8537.908527
103.036500	0.368512	0.211905	0.392357	0.570447	5167.510429	21762.850551	3559.995336	8572.310628
103.537500	0.367569	0.211055	0.392129	0.570316	5163.050229	21731.520267	3559.815762	8574.054162
104.034500	0.364615	0.211870	0.391523	0.571024	5143.063868	21736.195038	3557.394852	8564.616875
104.535000	0.365011	0.211387	0.394473	0.576369	5116.322679	21483.983826	3552.999591	8493.852229
105.035500	0.366059	0.212667	0.392500	0.571464	5148.530617	21751.773580	3558.385091	8558.764418
105.535500	0.367385	0.211398	0.390036	0.571181	5157.312870	21708.803160	3554.374972	8562.527234
106.035500	0.367422	0.212546	0.385281	0.571591	5155.271560	21740.907510	3544.960933	8557.065915
106.536500	0.364246	0.211269	0.392033	0.577127	5108.146223	21446.330992	3547.167050	8483.874663
107.036500	0.367423	0.212055	0.387365	0.571785	5154.216541	21711.090219	3548.393514	8554.487465
107.556000	0.368519	0.212095	0.391287	0.572558	5155.984672	21679.241668	3554.143412	8544.217608
108.037000	0.367292	0.212600	0.394627	0.572534	5149.421056	21702.258283	3560.334034	8544.539801
108.537500	0.363290	0.210766	0.388233	0.577016	5103.626338	21429.523072	3540.493323	8485.334207
109.035000	0.369688	0.212548	0.397601	0.572779	5161.167470	21689.317815	3565.389185	8541.279571
109.535000	0.368198	0.213480	0.391985	0.573196	5150.743868	21711.684693	3554.253856	8535.750544
110.035500	0.366604	0.212242	0.394406	0.572165	5147.682372	21702.716123	3560.606614	8549.440388
