sample name	sample
index	1268
start time	 04-29-2021  01:36:43 PM
880	0.531937
Peak Time (s)	100.535
Peak Height 	0.5319
calc peak height	100,103
Baseline Time (s)	8.535
Baseline Value 	-0.004654
subtract baseline	10,4
Abs	0.352353
Peak Time (s)	100.535
Peak Height 	0.3524
calc peak height	100,103
Baseline Time (s)	11.037
Baseline Value 	0.003658
subtract baseline	10,3
PK_550	0.186693
Peak Time (s)	100.535
Peak Height 	0.1867
calc peak height	100,103
Baseline Time (s)	11.539
Baseline Value 	6.286E-4
subtract baseline	10,2
PK_880	0.334782
Peak Time (s)	100.535
Peak Height 	0.3348
calc peak height	100,103
Baseline Time (s)	8.535
Baseline Value 	0.002077
subtract baseline	10,1


Time (s)	A880-A510	A880-A775	A880-A975	A880	I510	I775	I975	I880	
0.035000	-0.001416	-0.000523	-0.001313	0.001539	6179.263556	43613.298253	3907.984343	22596.092766
0.536000	-0.001739	-0.001208	0.002597	0.003598	6161.575429	43357.384531	3912.217914	22503.125431
1.036000	-0.004223	-0.000141	-0.004311	0.004011	6140.181273	43418.179865	3895.580324	22484.524742
1.537500	-0.000274	-0.000321	0.000569	0.001064	6191.335227	43676.683889	3913.376986	22617.597442
2.037000	-0.000983	-0.000313	-0.000748	0.000295	6191.779261	43749.492896	3912.118591	22652.464225
2.537000	-0.002165	0.000547	0.004083	0.001907	6170.960910	43679.088044	3919.525452	22579.456467
3.040500	0.002146	-0.000030	-0.003906	-0.001720	6230.485101	43965.961095	3909.506229	22744.191131
3.537000	-0.002122	-0.000581	0.008543	0.000294	6183.280661	43724.480820	3933.641965	22652.517108
4.035000	0.001687	0.000365	0.001508	0.000221	6212.371715	43820.251400	3917.475085	22655.853952
4.535500	-0.001329	-0.000241	-0.004795	0.000615	6186.805658	43726.278215	3902.164195	22637.960339
5.035000	-0.001281	0.000341	0.003951	0.000432	6188.535447	43798.183718	3922.631504	22646.280882
5.536000	0.000731	-0.000285	0.001528	0.000442	6203.528245	43738.469007	3917.012569	22645.822632
6.035000	-0.003480	0.000118	0.001532	0.000636	6170.625180	43757.958307	3916.574168	22636.994270
6.536500	-0.002672	-0.000333	0.001985	0.000398	6178.405826	43738.003568	3918.164652	22647.797006
7.036500	-0.000575	0.000010	0.002875	0.001095	6188.851019	43704.806674	3918.610041	22616.196135
7.534000	0.000517	0.000060	0.000984	0.000645	6200.392735	43751.698875	3915.292930	22636.589835
8.037000	-0.001861	0.000615	-0.000785	0.000896	6180.742154	43780.230849	3910.659586	22625.207418
8.535000	0.000000	-0.000195	0.000200	0.000000	6201.355706	43788.350115	3914.972720	22665.877840
9.035500	-0.002971	-0.000022	-0.000195	-0.000318	6181.521473	43834.565846	3914.796605	22680.347341
9.535500	0.000814	0.000818	-0.002428	0.000626	6202.768837	43824.789683	3907.523857	22637.466956
10.036000	-0.000996	0.000189	0.001737	0.000697	6188.679226	43759.003645	3916.905206	22634.243188
10.536000	0.000400	0.000359	-0.000141	0.000371	6201.580119	43805.628822	3913.339271	22649.051968
11.036500	-0.002037	-0.000311	0.000000	-0.000283	6188.223828	43804.015944	3915.162725	22678.719563
11.539000	0.000757	0.000000	0.004061	-0.000187	6208.444781	43824.284876	3924.318230	22674.373422
12.040000	-0.002838	0.000021	0.003427	-0.000277	6182.196689	43834.671956	3923.057890	22678.444624
12.537500	-0.002476	-0.000519	-0.000394	0.002272	6165.936516	43545.106595	3908.408318	22562.925477
13.037500	0.001676	0.000190	0.000465	-0.001860	6227.981525	43999.858061	3919.866629	22750.537179
13.537500	-0.001755	0.000296	0.003440	-0.000708	6193.516165	43901.206480	3924.088478	22698.083694
14.035500	0.000137	-0.000207	0.004832	-0.000458	6205.819364	43830.314930	3926.737505	22686.681031
14.535500	-0.003445	-0.000126	-0.001785	0.002122	6159.870047	43595.927956	3905.580629	22569.723909
15.035000	-0.000845	-0.000405	0.003105	-0.000481	6198.626827	43813.889757	3922.786583	22687.762489
15.558500	-0.002781	-0.000799	-0.000436	-0.000972	6187.812651	43822.924942	3915.743500	22710.063725
16.036500	-0.001046	0.000706	0.000150	-0.000605	6198.050774	43930.132499	3916.247950	22693.375323
16.540000	-0.004549	-0.000488	0.001616	0.001660	6155.112804	43605.207277	3914.412085	22590.595686
17.037500	-0.001478	0.000415	-0.000102	-0.000737	6195.802986	43915.213801	3915.974613	22699.402790
17.537500	-0.001752	-0.000423	0.000407	-0.000948	6195.334890	43856.137436	3917.631972	22709.012076
18.035000	-0.001002	0.000163	0.003985	-0.000274	6195.900815	43847.839055	3924.346409	22678.343944
18.538000	-0.000469	0.000695	-0.000049	0.003806	6169.444812	43515.229518	3905.696993	22493.716059
19.035500	-0.001649	-0.000437	0.001986	0.000226	6187.327954	43744.438324	3918.565939	22655.627382
19.538500	-0.000767	0.000373	-0.001682	0.001049	6187.762650	43743.110983	3908.257817	22618.263123
20.036000	-0.003573	0.000323	0.004161	0.001501	6163.519701	43696.087953	3920.640801	22597.795422
20.536500	-0.001516	0.000387	0.002304	0.001254	6180.642546	43725.249924	3916.927136	22608.989357
21.039500	-0.001774	0.000749	-0.003685	0.001510	6176.817047	43735.272731	3902.652481	22597.418842
21.537000	-0.000956	0.000036	-0.001274	0.001001	6186.713363	43716.082133	3909.303141	22620.477028
22.037000	-0.001429	0.000574	-0.001496	0.001850	6176.852671	43686.920071	3906.857426	22582.015334
22.537000	-0.001297	-0.000942	0.001360	0.001074	6183.620147	43617.657568	3915.170472	22617.167436
23.035000	-0.003340	0.000246	0.000543	0.001150	6167.856133	43721.781112	3913.119950	22613.718121
23.535500	-0.003999	-0.000063	-0.000321	0.000683	6166.429563	43736.624920	3912.210994	22634.878791
24.035500	-0.000882	0.000262	-0.002087	0.000920	6187.870014	43744.890031	3907.629188	22624.133269
24.535000	0.001261	0.000425	-0.000154	0.001372	6200.526434	43717.733903	3911.013759	22603.652631
25.036000	0.001571	0.000553	0.003882	0.001211	6204.053209	43744.839383	3920.666639	22610.936534
25.539500	-0.000703	0.000417	-0.000408	0.001320	6186.218586	43721.882901	3910.551466	22606.008939
26.036500	-0.000175	0.000473	0.003408	0.001220	6190.908536	43736.599615	3919.552650	22610.549397
26.537000	0.000121	0.000472	0.001829	0.001133	6193.772842	43744.617128	3916.114285	22614.470137
27.037000	0.001861	0.000164	-0.002376	0.001035	6207.556615	43724.894495	3906.710248	22618.928658
27.537500	-0.001135	0.000400	-0.000906	0.001354	6182.740182	43717.079022	3909.336725	22604.471217
28.035000	0.001315	0.000077	0.000382	-0.003032	6234.126158	44100.086778	3922.386501	22804.115174
28.538000	-0.005540	-0.001432	-0.004587	0.003957	6130.896190	43303.195525	3895.080539	22486.951317
29.038500	0.000133	-0.000316	0.002326	-0.000900	6209.114265	43861.622858	3921.951337	22706.804732
29.536000	0.001555	0.000508	-0.000784	-0.000250	6214.926033	43878.054037	3913.287491	22677.240375
30.039000	-0.000566	-0.000213	0.003261	-0.000653	6202.006514	43848.112250	3923.544970	22695.575932
30.539500	-0.004177	-0.000957	-0.004673	0.005329	6130.831563	43219.937859	3891.801161	22425.275773
31.037000	-0.001654	0.000148	0.000909	-0.000561	6193.165958	43873.420282	3917.896048	22691.386874
31.567000	0.000880	-0.000107	0.005527	-0.000988	6215.392301	43889.628198	3929.591497	22710.801635
32.034500	-0.001793	0.000073	0.004763	0.001799	6174.529486	43644.738475	3921.346290	22584.335303
32.541500	-0.001830	0.000333	-0.003950	0.004312	6155.614299	43434.266620	3895.716020	22470.975102
33.068000	0.000831	0.000654	-0.001562	-0.000327	6210.049913	43899.079676	3911.681241	22680.741611
33.535500	-0.000205	0.000459	0.004619	-0.000621	6204.476047	43908.332593	3926.622707	22694.092657
34.036000	-0.000263	0.000783	0.005096	-0.000170	6200.661863	43896.480255	3926.683488	22673.624713
34.539000	-0.003192	-0.000746	0.002597	0.003862	6148.876271	43375.728059	3911.613470	22491.234287
35.036000	-0.000596	0.000222	0.003676	-0.002558	6216.110502	44069.005426	3928.936925	22782.442829
35.540500	-0.001065	0.000573	0.006208	0.001522	6182.008047	43717.574014	3925.335306	22596.840299
36.036500	-0.002596	0.000578	0.000035	0.001436	6171.252322	43726.149180	3911.301746	22600.757671
36.538000	-0.002619	-0.000251	0.001678	0.002600	6162.444129	43539.515246	3912.395973	22548.104179
37.037500	-0.001696	0.000034	0.000625	0.001120	6180.303159	43704.669875	3913.376005	22615.062153
37.535000	-0.002033	-0.000935	0.000839	0.000948	6179.069579	43629.954488	3914.261808	22622.839500
38.035500	-0.002251	0.000625	-0.003113	0.002106	6168.838175	43667.675804	3902.596880	22570.453127
38.535500	-0.000236	-0.000099	0.000182	0.001751	6186.485392	43633.190425	3910.917138	22586.510256
39.039000	-0.003643	-0.000371	-0.000876	0.001539	6162.717407	43627.509390	3908.982173	22596.099356
39.540000	-0.003193	-0.000128	0.001150	0.001554	6165.942247	43648.876670	3913.585772	22595.406058
40.037000	0.000034	0.000584	0.005151	0.002228	6184.939748	43652.407317	3921.250719	22564.918319
40.536500	-0.000140	0.000307	0.009649	0.002214	6183.747670	43627.795220	3931.739000	22565.559819
41.037500	-0.001515	0.000586	0.002480	0.002027	6174.898764	43671.427992	3915.556129	22574.029319
41.534500	-0.002092	-0.000607	0.004364	0.001342	6175.698588	43623.865437	3921.478974	22605.013871
42.034500	-0.000469	-0.000419	0.002341	0.001378	6187.530628	43638.050097	3916.727285	22603.369512
42.535000	-0.004093	0.000827	0.005615	0.001279	6161.312725	43764.214205	3924.523573	22607.860370
43.035500	-0.001847	0.000406	0.002339	0.001493	6176.394803	43704.591249	3916.458165	22598.161746
43.539000	0.000428	0.000565	0.005247	0.001428	6193.857578	43725.559521	3923.324376	22601.098278
44.036000	-0.000578	0.000186	-0.000962	0.001092	6188.847561	43721.523115	3909.805783	22616.311342
44.536000	-0.000238	0.000596	0.005828	0.002109	6183.797226	43664.703176	3923.091542	22570.294990
45.040000	0.000228	-0.000544	0.003899	0.000186	6201.671574	43738.196379	3923.079527	22657.448528
45.537000	0.002865	0.001337	-0.001061	-0.000064	6223.395581	43938.582749	3912.224748	22668.777612
46.037500	0.002289	0.000145	0.004179	-0.000470	6222.119756	43864.570456	3925.250631	22687.258458
46.551000	-0.001952	0.000428	-0.000209	0.005757	6144.038789	43308.673530	3900.902494	22406.066824
47.035000	-0.000363	-0.000170	0.001060	-0.001095	6206.851852	43893.769945	3919.474517	22715.679898
47.535500	-0.000329	0.000700	0.003498	-0.000115	6199.751166	43883.424284	3922.847813	22671.121165
48.038500	0.000727	-0.000138	-0.003203	-0.000835	6213.092041	43872.265573	3909.088640	22703.856499
48.536000	-0.003432	0.000103	-0.001839	0.004042	6145.776237	43438.011154	3901.095134	22483.100064
49.035500	-0.000290	0.000113	0.001091	0.002235	6182.472536	43607.631079	3911.887702	22564.602083
49.536500	-0.000652	0.000954	0.005753	0.002669	6176.539520	43645.732324	3921.621572	22545.001934
50.037000	0.000508	-0.000345	0.005357	-0.000757	6210.862929	43845.512720	3928.656840	22700.315617
50.537500	-0.003373	-0.000131	0.000857	0.004491	6142.900566	43374.425803	3906.200462	22462.927062
51.037500	0.000791	0.000653	0.002550	-0.001048	6215.181870	43966.984717	3922.811905	22713.551000
51.535000	0.001708	0.000019	0.003621	-0.003543	6240.982075	44142.977510	3931.104966	22827.488689
52.035000	-0.000333	0.000351	0.003381	0.007586	6142.497047	43132.111733	3904.900978	22324.263340
52.535000	0.001667	-0.000148	-0.000555	0.030346	5993.187126	41037.761257	3845.997334	21334.365076
53.035500	0.020544	-0.032683	0.014943	0.482339	4068.687948	15445.425181	3256.981521	9434.578172
53.536000	0.011736	-0.036437	-0.000643	-0.009003	6360.684425	41306.971333	3933.904251	23079.144364
54.036000	0.013754	-0.083557	-0.003706	-0.259574	9056.275968	64214.048012	4715.054275	38802.720901
54.536500	0.018425	-0.080178	0.006733	-0.256200	9074.546077	64214.631207	4744.540877	38525.092625
55.037000	0.020792	-0.062496	0.016541	-0.233244	8790.686466	63475.367742	4690.040533	36692.801358
55.534500	0.022314	-0.038221	0.015545	-0.191814	8277.367433	61132.120323	4525.019645	33621.478748
56.034500	0.024504	-0.021928	0.022999	-0.150301	7815.665558	57850.859586	4403.724779	30824.216822
56.535000	0.029537	-0.012375	0.028499	-0.126028	7604.544676	56021.919464	4340.826199	29308.339619
57.038000	0.047813	-0.000122	0.047869	-0.101917	7542.337458	54592.989606	4325.363000	27884.113336
57.535500	0.071267	0.011634	0.070288	-0.063980	7391.516528	51572.934066	4275.926070	25797.352293
58.036000	0.095123	0.025660	0.095132	0.017397	6839.777236	44591.087839	4110.050174	21891.168713
58.536000	0.117894	0.041173	0.124744	0.108328	6273.910486	37956.298714	3952.944351	18310.514864
59.036500	0.137419	0.054535	0.138250	0.172736	5946.933750	34076.641125	3838.360945	16191.488981
59.536500	0.156022	0.064466	0.157151	0.247878	5580.361377	29739.797756	3726.438632	14085.595273
60.037000	0.173721	0.079528	0.178886	0.267423	5569.172092	29464.864659	3730.530655	13594.959597
60.536500	0.191490	0.088639	0.203859	0.299672	5483.086906	28090.294445	3717.013026	12832.197178
61.035000	0.212682	0.102771	0.221262	0.356059	5285.424539	25761.457658	3648.322321	11627.320096
61.537500	0.237215	0.119024	0.244266	0.380130	5287.919518	25354.879389	3646.528079	11158.752052
62.035500	0.248304	0.128030	0.262498	0.390533	5291.623126	25282.975608	3659.800549	10964.140705
62.535500	0.262754	0.137061	0.270742	0.423004	5196.197470	24110.670714	3619.492752	10385.835852
63.036000	0.272908	0.146081	0.283986	0.447541	5122.822559	23368.676065	3601.459280	9976.640078
63.536000	0.284294	0.150238	0.298505	0.463073	5102.120269	22841.368846	3599.864665	9729.317186
64.036500	0.293394	0.155715	0.307236	0.478341	5071.684169	22398.436263	3589.662252	9494.665760
64.534000	0.298902	0.160343	0.309604	0.485133	5065.405689	22301.876897	3582.844361	9392.906396
65.037000	0.301239	0.160996	0.316519	0.500454	5002.913878	21659.865162	3570.078646	9169.111848
65.534500	0.306130	0.163347	0.320484	0.516779	4949.409614	21068.132334	3551.751869	8939.190209
66.038000	0.304566	0.175464	0.318759	0.521914	4918.714070	21361.421172	3541.802585	8868.640157
66.535500	0.301275	0.180275	0.315750	0.513428	4942.477559	21933.200872	3549.732900	8985.683247
67.036000	0.305326	0.184383	0.315568	0.509499	4979.540963	22287.375425	3555.216002	9040.654813
67.550000	0.304504	0.184223	0.312693	0.506560	4989.487922	22411.334617	3555.309318	9082.097017
68.036000	0.305946	0.186718	0.323428	0.509447	4982.691987	22393.804449	3566.950129	9041.378372
68.536500	0.303594	0.187413	0.320107	0.513442	4953.114112	22246.772228	3556.093250	8985.484745
69.036500	0.308278	0.187969	0.314773	0.513291	4975.606074	22278.200915	3548.509741	8987.588676
69.537000	0.312221	0.190450	0.325146	0.516626	4978.456596	22240.277596	3558.829052	8941.307765
70.037500	0.309869	0.190997	0.326992	0.517415	4963.793748	22229.544682	3560.392940	8930.405672
70.540500	0.309709	0.193630	0.322438	0.520455	4948.964839	22211.486233	3549.239433	8888.596067
71.035000	0.309407	0.193941	0.324550	0.517938	4959.216055	22337.205868	3556.014359	8923.190653
71.535500	0.308854	0.193604	0.328335	0.517233	4959.919236	22353.587388	3562.656534	8932.911479
72.036000	0.316003	0.194446	0.330039	0.516832	4995.276616	22409.199445	3565.794139	8938.462167
72.536000	0.310298	0.193496	0.319120	0.515943	4972.651300	22406.414812	3550.978902	8950.746824
73.036500	0.314501	0.195586	0.326425	0.515276	4995.529588	22530.207706	3562.726404	8959.996951
73.536500	0.314676	0.196940	0.326492	0.515778	4993.985030	22568.589103	3562.079666	8953.037014
74.037000	0.318024	0.196540	0.329089	0.515607	5010.669770	22558.293814	3566.206168	8955.413624
74.533500	0.313557	0.195013	0.332146	0.519440	4971.540747	22318.004649	3565.046201	8902.520089
75.040000	0.317013	0.195029	0.322975	0.516234	5002.887198	22462.136294	3556.205725	8946.731904
75.535000	0.316982	0.197030	0.331405	0.518539	4991.839023	22448.459792	3565.284215	8914.906449
76.035000	0.316571	0.195966	0.330973	0.517962	4992.623037	22426.639048	3565.500679	8922.859134
76.535500	0.315464	0.195770	0.328255	0.520515	4975.432749	22303.897315	3557.676969	8887.776099
77.036000	0.317901	0.195767	0.324785	0.516829	5004.276366	22468.547540	3557.996284	8938.503288
77.536000	0.323854	0.196334	0.319673	0.516373	5034.907333	22514.491230	3551.159973	8944.799736
78.035500	0.322383	0.197758	0.327595	0.516523	5027.114682	22571.924320	3562.611606	8942.726188
78.537000	0.317885	0.194821	0.331222	0.518205	4997.683253	22364.577658	3565.510973	8919.517990
79.037000	0.320027	0.196538	0.329119	0.516173	5017.517386	22532.695450	3565.404884	8947.572326
79.540000	0.317428	0.196927	0.336101	0.516300	5004.539071	22544.458339	3575.720132	8945.805299
80.034500	0.320514	0.196819	0.333311	0.517665	5012.722296	22478.221291	3569.448364	8926.954852
80.534500	0.319710	0.196746	0.333632	0.521716	4989.722909	22293.834609	3563.867746	8871.338509
81.035000	0.321303	0.198333	0.333391	0.519568	5007.426945	22460.765905	3566.715196	8900.769185
81.535500	0.320172	0.197920	0.334836	0.519314	5003.264777	22453.617800	3569.262490	8904.259712
82.035500	0.320237	0.197049	0.332833	0.519794	5001.290910	22393.069184	3565.541768	8897.654818
82.538000	0.321419	0.196242	0.328356	0.523287	4990.376731	22201.759088	3553.748063	8849.912981
83.037000	0.323535	0.197002	0.333936	0.523886	4997.535620	22208.863924	3561.094298	8841.754363
83.537000	0.320480	0.195089	0.335766	0.524744	4979.115211	22086.542293	3562.538499	8830.108708
84.039500	0.320998	0.195239	0.336550	0.526800	4971.918375	22002.780681	3560.648169	8802.265056
84.534500	0.323255	0.194829	0.332940	0.529732	4968.771699	21856.941694	3551.025034	8762.809408
85.035000	0.320953	0.194256	0.342882	0.529280	4960.159411	21851.634636	3566.383934	8768.866264
85.535000	0.319645	0.193232	0.340793	0.529460	4953.263276	21799.383632	3563.000189	8766.449015
86.035000	0.324867	0.192690	0.340457	0.530392	4973.216978	21735.610634	3561.117433	8753.961853
86.538000	0.324280	0.191682	0.334008	0.531371	4965.911197	21649.970822	3550.192714	8740.864689
87.036000	0.324006	0.191161	0.341479	0.530495	4968.714336	21665.199850	3562.479817	8752.572942
87.536000	0.324235	0.190406	0.343544	0.530197	4971.171419	21645.538264	3566.002408	8756.565392
88.036500	0.327992	0.191866	0.348338	0.531734	4981.562955	21642.231338	3570.889552	8736.009286
88.539500	0.322760	0.189913	0.331226	0.532630	4953.010897	21520.178343	3544.327260	8724.061410
89.034000	0.323185	0.189033	0.341256	0.530668	4964.085604	21566.462940	3561.892965	8750.267263
89.534500	0.327373	0.188767	0.338887	0.530961	4982.284219	21542.489117	3557.951804	8746.339183
90.035000	0.323288	0.186595	0.337811	0.529411	4970.424412	21515.956816	3558.652043	8767.116895
90.537500	0.327653	0.188743	0.345012	0.532175	4977.905296	21489.659843	3565.241319	8730.122566
91.035500	0.327553	0.187392	0.340439	0.530803	4983.875171	21490.556646	3560.480920	8748.458993
91.536000	0.324898	0.187205	0.342966	0.530602	4972.379307	21491.139530	3564.536725	8751.149677
92.036000	0.326928	0.187137	0.339087	0.530234	4983.608563	21503.951676	3559.321314	8756.078569
92.536500	0.325599	0.186712	0.345790	0.534218	4958.805520	21316.755696	3563.356015	8702.934551
93.039500	0.326815	0.186841	0.345092	0.530935	4979.788203	21461.433036	3567.213776	8746.684297
93.537000	0.325688	0.186676	0.335472	0.530569	4976.224964	21470.024241	3553.504557	8751.589727
94.037500	0.328617	0.187008	0.345621	0.530949	4988.191592	21467.972639	3567.987346	8746.507272
94.535000	0.329588	0.186652	0.348186	0.531621	4989.594397	21424.227696	3570.829975	8737.517016
95.035500	0.329198	0.185986	0.336967	0.530861	4991.337478	21428.203879	3555.270553	8747.676418
95.538000	0.331604	0.187779	0.346919	0.532305	4995.880931	21443.051898	3567.899279	8728.392298
96.036000	0.330531	0.186941	0.349976	0.531306	4995.531564	21449.931824	3574.007638	8741.730621
96.538500	0.331292	0.186956	0.346412	0.535053	4981.470660	21291.760412	3563.037681	8691.854172
97.035500	0.330525	0.185192	0.337929	0.530603	4998.830616	21405.483165	3557.067343	8751.138877
97.539000	0.331560	0.186586	0.354689	0.531241	5000.706012	21437.597238	3581.277012	8742.598148
98.036000	0.331289	0.186644	0.340483	0.531425	4998.554917	21432.239460	3559.624930	8740.142062
98.537000	0.330884	0.185431	0.349042	0.530209	5002.392965	21432.322554	3574.254672	8756.405605
99.038000	0.331433	0.186259	0.352797	0.531143	5000.569151	21427.847699	3578.537235	8743.903794
99.538000	0.333647	0.187283	0.352207	0.532498	5004.641890	21413.766824	3575.581217	8725.817515
100.035000	0.330474	0.186115	0.345211	0.530620	4998.503878	21443.944214	3567.865024	8750.901332
100.535500	0.334782	0.186693	0.352353	0.531937	5012.705744	21412.543799	3576.655236	8733.301516
101.036000	0.329806	0.185049	0.344012	0.531112	4993.025617	21377.797675	3565.335013	8744.323329
101.536000	0.334448	0.185840	0.349818	0.531335	5013.982162	21401.870376	3573.725142	8741.338459
102.036000	0.331716	0.184204	0.346809	0.530962	5002.763924	21348.353171	3569.749415	8746.322518
102.536500	0.331271	0.184918	0.344708	0.531287	4999.119408	21364.810790	3566.113609	8741.976919
103.037000	0.335466	0.185394	0.340245	0.531407	5018.496464	21379.905692	3559.298781	8740.378676
103.537500	0.333511	0.183696	0.344930	0.530935	5011.422953	21328.046628	3566.972146	8746.690766
104.037000	0.335123	0.186170	0.344923	0.533398	5007.373238	21328.481159	3563.284939	8713.830687
104.535000	0.333968	0.184052	0.355633	0.532560	5005.871814	21274.461527	3580.702692	8724.989007
105.035500	0.334519	0.185466	0.352970	0.534608	4998.772956	21247.754486	3573.542263	8697.757374
105.536000	0.333884	0.183814	0.354270	0.533003	5003.370413	21245.786967	3577.948936	8719.090526
106.036000	0.333136	0.183525	0.348567	0.533275	4998.540983	21222.223889	3568.917784	8715.475405
106.539500	0.331904	0.183999	0.342364	0.537124	4974.640040	21080.894163	3553.999006	8664.480319
107.036500	0.334698	0.184746	0.345577	0.535459	4995.593423	21181.760403	3561.195205	8686.476867
107.536500	0.333127	0.182097	0.345947	0.533279	4998.474776	21162.136336	3564.989171	8715.415305
108.042500	0.332661	0.183271	0.351174	0.534821	4989.000755	21146.708106	3570.512020	8694.934399
108.543000	0.334088	0.181777	0.346245	0.537023	4985.349915	20992.654601	3559.867008	8665.808411
109.035000	0.335870	0.183942	0.345653	0.536545	4996.002031	21102.695333	3559.698193	8672.120349
109.534500	0.334181	0.183256	0.351689	0.536028	4990.474362	21095.656488	3569.471362	8678.952409
110.035500	0.332358	0.182247	0.356680	0.536096	4981.583410	21050.736183	3576.910757	8678.056309
110.544000	0.334693	0.183454	0.346364	0.540726	4970.839097	20908.777796	3554.582484	8617.165960
111.039000	0.337374	0.183893	0.350498	0.538409	4994.304456	21022.991696	3564.125298	8647.557862
