sample name	sample
index	972
start time	 04-14-2021  02:35:34 PM


Wavelength (nm)	Absorbance
494.344910	-0.083284
494.563924	-0.083284
494.782919	-0.083284
495.001897	0.009368
495.220856	-0.057546
495.439797	-0.045276
495.658719	-0.030482
495.877624	-0.032642
496.096510	-0.040446
496.315378	-0.025557
496.534227	-0.017897
496.753059	0.002671
496.971872	0.030414
497.190667	0.069386
497.409444	0.075856
497.628203	0.077198
497.846943	0.080707
498.065665	0.083664
498.284369	0.086297
498.503055	0.087211
498.721723	0.087317
498.940372	0.085552
499.159003	0.085107
499.377616	0.086572
499.596210	0.087450
499.814787	0.088024
500.033345	0.088731
500.251885	0.088133
500.470406	0.088472
500.688910	0.088515
500.907395	0.090343
501.125862	0.091309
501.344311	0.090102
501.562742	0.090049
501.781154	0.090856
501.999548	0.089754
502.217924	0.090307
502.436282	0.090245
502.654621	0.090305
502.872942	0.089732
503.091245	0.089422
503.309530	0.090764
503.527797	0.090239
503.746045	0.090341
503.964275	0.091071
504.182487	0.089262
504.400681	0.089238
504.618856	0.089908
504.837013	0.089958
505.055152	0.090313
505.273273	0.089864
505.491376	0.090331
505.709460	0.089434
505.927526	0.090570
506.145574	0.092684
506.363604	0.091453
506.581615	0.091679
506.799608	0.091718
507.017583	0.090964
507.235540	0.090732
507.453478	0.091559
507.671399	0.091896
507.889301	0.090413
508.107185	0.089909
508.325050	0.091221
508.542898	0.090666
508.760727	0.091616
508.978538	0.092303
509.196330	0.092548
509.414105	0.092549
509.631861	0.092574
509.849599	0.093356
510.067319	0.092749
510.285021	0.092939
510.502704	0.092160
510.720369	0.091716
510.938016	0.091575
511.155645	0.092082
511.373255	0.091680
511.590848	0.091347
511.808422	0.090531
512.025977	0.091536
512.243515	0.090859
512.461034	0.092250
512.678536	0.091790
512.896018	0.091774
513.113483	0.090468
513.330930	0.090773
513.548358	0.089955
513.765768	0.091078
513.983160	0.090735
514.200533	0.090848
514.417889	0.090160
514.635226	0.090630
514.852545	0.090624
515.069845	0.091205
515.287128	0.090685
515.504392	0.091880
515.721638	0.090811
515.938866	0.089656
516.156075	0.089982
516.373267	0.090245
516.590440	0.090097
516.807594	0.089833
517.024731	0.089795
517.241850	0.090337
517.458950	0.090807
517.676032	0.090993
517.893095	0.092600
518.110141	0.092646
518.327168	0.092743
518.544177	0.092928
518.761168	0.093426
518.978141	0.093964
519.195095	0.093833
519.412031	0.093246
519.628949	0.093354
519.845849	0.092302
520.062731	0.092830
520.279594	0.093157
520.496439	0.093218
520.713266	0.093496
520.930074	0.093043
521.146865	0.093606
521.363637	0.094162
521.580391	0.095279
521.797127	0.095920
522.013844	0.095942
522.230543	0.095835
522.447224	0.096121
522.663887	0.096074
522.880532	0.096595
523.097158	0.095884
523.313766	0.095745
523.530356	0.095256
523.746928	0.095675
523.963481	0.095032
524.180017	0.094981
524.396534	0.095242
524.613032	0.095528
524.829513	0.095026
525.045975	0.095235
525.262420	0.094818
525.478845	0.094597
525.695253	0.094573
525.911643	0.095603
526.128014	0.095990
526.344367	0.095704
526.560702	0.095868
526.777018	0.096393
526.993316	0.096858
527.209597	0.097492
527.425858	0.098445
527.642102	0.098368
527.858328	0.098131
528.074535	0.098349
528.290724	0.098286
528.506894	0.098642
528.723047	0.098818
528.939181	0.098795
529.155297	0.099199
529.371395	0.099013
529.587475	0.099658
529.803536	0.099282
530.019579	0.099537
530.235604	0.099681
530.451611	0.099711
530.667600	0.099791
530.883570	0.099893
531.099522	0.099835
531.315456	0.099678
531.531372	0.099245
531.747269	0.099885
531.963148	0.099449
532.179009	0.099804
532.394852	0.099432
532.610676	0.099755
532.826482	0.100325
533.042271	0.100592
533.258040	0.100773
533.473792	0.101124
533.689525	0.101310
533.905240	0.101740
534.120937	0.102215
534.336616	0.103073
534.552277	0.103099
534.767919	0.102983
534.983543	0.103349
535.199149	0.103992
535.414736	0.104525
535.630306	0.104808
535.845857	0.105221
536.061390	0.104915
536.276904	0.104725
536.492401	0.104970
536.707879	0.105447
536.923339	0.105530
537.138781	0.104878
537.354204	0.104554
537.569610	0.104475
537.784997	0.104253
538.000366	0.104834
538.215716	0.105089
538.431049	0.105447
538.646363	0.105830
538.861659	0.105844
539.076937	0.106207
539.292196	0.106541
539.507438	0.106565
539.722661	0.106881
539.937866	0.106872
540.153052	0.106716
540.368221	0.106902
540.583371	0.106733
540.798503	0.106961
541.013617	0.107223
541.228712	0.106989
541.443789	0.107426
541.658848	0.107675
541.873889	0.108095
542.088912	0.108158
542.303916	0.108392
542.518902	0.107969
542.733870	0.108121
542.948820	0.107951
543.163752	0.108499
543.378665	0.108805
543.593560	0.108988
543.808437	0.108651
544.023295	0.109245
544.238136	0.109366
544.452958	0.109664
544.667762	0.109306
544.882548	0.109617
545.097315	0.109534
545.312064	0.109180
545.526795	0.109240
545.741508	0.109349
545.956203	0.109033
546.170879	0.108756
546.385537	0.108692
546.600177	0.109102
546.814799	0.109545
547.029402	0.110041
547.243988	0.110012
547.458555	0.110096
547.673103	0.110242
547.887634	0.109954
548.102146	0.110785
548.316640	0.111373
548.531116	0.111474
548.745574	0.111042
548.960013	0.110833
549.174435	0.111528
549.388838	0.111377
549.603222	0.111745
549.817589	0.112149
550.031937	0.111357
550.246267	0.111705
550.460579	0.111843
550.674873	0.112137
550.889148	0.112169
551.103405	0.111651
551.317644	0.111794
551.531865	0.111890
551.746068	0.111974
551.960252	0.112052
552.174418	0.111511
552.388566	0.111352
552.602696	0.111623
552.816807	0.112046
553.030900	0.112440
553.244975	0.112389
553.459032	0.112051
553.673070	0.112549
553.887091	0.112692
554.101093	0.113142
554.315077	0.113546
554.529042	0.113931
554.742990	0.113948
554.956919	0.114237
555.170830	0.114425
555.384722	0.115183
555.598597	0.115224
555.812453	0.115731
556.026291	0.115559
556.240111	0.115437
556.453913	0.115334
556.667696	0.115267
556.881461	0.115109
557.095208	0.115196
557.308937	0.114907
557.522647	0.115053
557.736339	0.115167
557.950013	0.115556
558.163669	0.115957
558.377307	0.116029
558.590926	0.116560
558.804527	0.116761
559.018110	0.116800
559.231675	0.116978
559.445221	0.116943
559.658749	0.117092
559.872259	0.117015
560.085751	0.117047
560.299225	0.117339
560.512680	0.117380
560.726117	0.117418
560.939536	0.117874
561.152937	0.117908
561.366319	0.117727
561.579683	0.117912
561.793029	0.117925
562.006357	0.118062
562.219667	0.118223
562.432958	0.118115
562.646231	0.118132
562.859486	0.118081
563.072723	0.117670
563.285941	0.117568
563.499141	0.117252
563.712323	0.117493
563.925487	0.116927
564.138632	0.116195
564.351760	0.116415
564.564869	0.116779
564.777960	0.117053
564.991032	0.117542
565.204087	0.117687
565.417123	0.117819
565.630141	0.117849
565.843140	0.118337
566.056122	0.118661
566.269085	0.118590
566.482030	0.118587
566.694957	0.118756
566.907866	0.118808
567.120756	0.119353
567.333628	0.119563
567.546482	0.119562
567.759318	0.119905
567.972135	0.120310
568.184935	0.120495
568.397716	0.120540
568.610478	0.120524
568.823223	0.120543
569.035949	0.120206
569.248657	0.120313
569.461347	0.120823
569.674019	0.120540
569.886672	0.120336
570.099308	0.120503
570.311925	0.120686
570.524523	0.120446
570.737104	0.120802
570.949666	0.121205
571.162210	0.120875
571.374736	0.120760
571.587244	0.120555
571.799733	0.120531
572.012205	0.120272
572.224658	0.119751
572.437092	0.119789
572.649509	0.119808
572.861907	0.120103
573.074287	0.120703
573.286649	0.120623
573.498993	0.121380
573.711318	0.121809
573.923625	0.121818
574.135914	0.122156
574.348185	0.122664
574.560438	0.122738
574.772672	0.122524
574.984888	0.122750
575.197086	0.123124
575.409266	0.122983
575.621427	0.122909
575.833570	0.123120
576.045695	0.123287
576.257802	0.123258
576.469890	0.123442
576.681961	0.123455
576.894013	0.123045
577.106046	0.122790
577.318062	0.122864
577.530059	0.123000
577.742039	0.123262
577.954000	0.123719
578.165942	0.123545
578.377867	0.123655
578.589773	0.123709
578.801661	0.123941
579.013531	0.124067
579.225382	0.124306
579.437216	0.124470
579.649031	0.124001
579.860828	0.123814
580.072606	0.124011
580.284367	0.124043
580.496109	0.124403
580.707833	0.124606
580.919539	0.124989
581.131227	0.124899
581.342896	0.125035
581.554547	0.125745
581.766180	0.125513
581.977795	0.125960
582.189391	0.126158
582.400969	0.126104
582.612529	0.126201
582.824071	0.126008
583.035595	0.126314
583.247100	0.126268
583.458587	0.126529
583.670056	0.126811
583.881506	0.126465
584.092939	0.126454
584.304353	0.126627
584.515749	0.126814
584.727127	0.127162
584.938486	0.127190
585.149828	0.127469
585.361151	0.127126
585.572456	0.127626
585.783742	0.128066
585.995011	0.128208
586.206261	0.128411
586.417493	0.128248
586.628706	0.127975
586.839902	0.128273
587.051079	0.128101
587.262238	0.128386
587.473379	0.128373
587.684502	0.128489
587.895606	0.128560
588.106692	0.128501
588.317760	0.128727
588.528810	0.129117
588.739841	0.129101
588.950855	0.129220
589.161850	0.129366
589.372827	0.129473
589.583785	0.129486
589.794726	0.129756
590.005648	0.130044
590.216552	0.130105
590.427437	0.129921
590.638305	0.129743
590.849154	0.129920
591.059985	0.129432
591.270798	0.129395
591.481592	0.129545
591.692369	0.129490
591.903127	0.129572
592.113867	0.129716
592.324588	0.129912
592.535292	0.129982
592.745977	0.129751
592.956644	0.130293
593.167293	0.130650
593.377923	0.130654
593.588536	0.130818
593.799130	0.130807
594.009706	0.131053
594.220263	0.130961
594.430803	0.131205
594.641324	0.131774
594.851827	0.131846
595.062312	0.131807
595.272778	0.131833
595.483227	0.131901
595.693657	0.131446
595.904069	0.131458
596.114462	0.131918
596.324838	0.131892
596.535195	0.131584
596.745534	0.131766
596.955855	0.131518
597.166157	0.131591
597.376441	0.131487
597.586707	0.132046
597.796955	0.131914
598.007185	0.131542
598.217396	0.131985
598.427589	0.132157
598.637764	0.131981
598.847921	0.132211
599.058060	0.131971
599.268180	0.132399
599.478282	0.132127
599.688366	0.132172
599.898431	0.132052
600.108479	0.131457
600.318508	0.131594
600.528519	0.131467
600.738511	0.131638
600.948486	0.131626
601.158442	0.131156
601.368380	0.131475
601.578300	0.131686
601.788202	0.132039
601.998085	0.132377
602.207950	0.132564
602.417797	0.132836
602.627626	0.132675
602.837436	0.132921
603.047228	0.132766
603.257002	0.132710
603.466758	0.132412
603.676496	0.132904
603.886215	0.132775
604.095916	0.132410
604.305599	0.132370
604.515264	0.132438
604.724910	0.132588
604.934538	0.133060
605.144148	0.133232
605.353740	0.133445
605.563314	0.133306
605.772869	0.133346
605.982406	0.133633
606.191925	0.133949
606.401425	0.134297
606.610908	0.134414
606.820372	0.134414
607.029818	0.134545
607.239246	0.134514
607.448655	0.134421
607.658047	0.134971
607.867420	0.135634
608.076775	0.135764
608.286111	0.135645
608.495430	0.135953
608.704730	0.136048
608.914012	0.135726
609.123275	0.136025
609.332521	0.136091
609.541748	0.136018
609.750957	0.135820
609.960148	0.135425
610.169321	0.135610
610.378475	0.135566
610.587611	0.135654
610.796729	0.136035
611.005829	0.136061
611.214910	0.136423
611.423974	0.136586
611.633019	0.136424
611.842045	0.137044
612.051054	0.137217
612.260044	0.136943
612.469017	0.137060
612.677970	0.137213
612.886906	0.137391
613.095824	0.137236
613.304723	0.137388
613.513604	0.137568
613.722467	0.137417
613.931311	0.137318
614.140138	0.137483
614.348946	0.137161
614.557736	0.137142
614.766507	0.136910
614.975261	0.137020
615.183996	0.136582
615.392713	0.136439
615.601412	0.136416
615.810092	0.136395
616.018754	0.136379
616.227399	0.136806
616.436024	0.136917
616.644632	0.136893
616.853222	0.136809
617.061793	0.137108
617.270346	0.137401
617.478880	0.137466
617.687397	0.137579
617.895895	0.138004
618.104375	0.138081
618.312837	0.138317
618.521281	0.138496
618.729706	0.138663
618.938113	0.138825
619.146502	0.138882
619.354873	0.138864
619.563226	0.138975
619.771560	0.138944
619.979876	0.138659
620.188174	0.138517
620.396453	0.139153
620.604715	0.139109
620.812958	0.139050
621.021183	0.138779
621.229390	0.138961
621.437578	0.139023
621.645748	0.139188
621.853900	0.139403
622.062034	0.139238
622.270150	0.138892
622.478247	0.139139
622.686326	0.139227
622.894387	0.139581
623.102430	0.139770
623.310454	0.139905
623.518461	0.139918
623.726449	0.140074
623.934418	0.140488
624.142370	0.140558
624.350303	0.140701
624.558218	0.140935
624.766115	0.141004
624.973994	0.140762
625.181855	0.140799
625.389697	0.140715
625.597521	0.140678
625.805327	0.140670
626.013114	0.140660
626.220883	0.140656
626.428634	0.140524
626.636367	0.140801
626.844082	0.140864
627.051778	0.141124
627.259457	0.141301
627.467117	0.141598
627.674758	0.141762
627.882382	0.142082
628.089987	0.142045
628.297574	0.142243
628.505143	0.142055
628.712694	0.142447
628.920226	0.142209
629.127740	0.142119
629.335236	0.142163
629.542714	0.142107
629.750174	0.142106
629.957615	0.142102
630.165038	0.142348
630.372443	0.142485
630.579829	0.142443
630.787198	0.142506
630.994548	0.142825
631.201880	0.142950
631.409194	0.143004
631.616489	0.143123
631.823766	0.143509
632.031025	0.143336
632.238266	0.143467
632.445489	0.143655
632.652693	0.143695
632.859879	0.143818
633.067047	0.143790
633.274197	0.143721
633.481329	0.143517
633.688442	0.143237
633.895537	0.143119
634.102614	0.142898
634.309672	0.142914
634.516713	0.143316
634.723735	0.143190
634.930739	0.143270
635.137724	0.143557
635.344692	0.144016
635.551641	0.144417
635.758572	0.144836
635.965485	0.145125
636.172379	0.145343
636.379256	0.145123
636.586114	0.145062
636.792954	0.145052
636.999775	0.145206
637.206579	0.144832
637.413364	0.144649
637.620131	0.144528
637.826880	0.144800
638.033610	0.144508
638.240323	0.144750
638.447017	0.145013
638.653692	0.145236
638.860350	0.145312
639.066990	0.145513
639.273611	0.145720
639.480214	0.145906
639.686798	0.145760
639.893365	0.146099
640.099913	0.146223
640.306443	0.146390
640.512955	0.146415
640.719449	0.146714
640.925924	0.146859
641.132381	0.147067
641.338820	0.147273
641.545241	0.147385
641.751644	0.147338
641.958028	0.147150
642.164394	0.147119
642.370742	0.147196
642.577071	0.146991
642.783383	0.147110
642.989676	0.147052
643.195951	0.147169
643.402207	0.147205
643.608446	0.147375
643.814666	0.147583
644.020868	0.147648
644.227052	0.147770
644.433218	0.147827
644.639365	0.147879
644.845494	0.147939
645.051605	0.147670
645.257698	0.147589
645.463772	0.147717
645.669828	0.147779
645.875866	0.147941
646.081886	0.148063
646.287888	0.147966
646.493871	0.147859
646.699836	0.147879
646.905783	0.148054
647.111712	0.148207
647.317622	0.148272
647.523514	0.148324
647.729388	0.148290
647.935244	0.148320
648.141082	0.148728
648.346901	0.148871
648.552702	0.149049
648.758485	0.149079
648.964250	0.149241
649.169996	0.149292
649.375724	0.149398
649.581434	0.149479
649.787126	0.149415
649.992800	0.149377
650.198455	0.149625
650.404092	0.149722
650.609711	0.149847
650.815311	0.149758
651.020894	0.149591
651.226458	0.149625
651.432004	0.149854
651.637532	0.150090
651.843041	0.150200
652.048532	0.150376
652.254006	0.150697
652.459460	0.151082
652.664897	0.151498
652.870315	0.151869
653.075716	0.152247
653.281097	0.152261
653.486461	0.152381
653.691807	0.152561
653.897134	0.152649
654.102443	0.152664
654.307734	0.152579
654.513006	0.152712
654.718261	0.153031
654.923497	0.153105
655.128715	0.153096
655.333915	0.153180
655.539096	0.153251
655.744259	0.153373
655.949404	0.153507
656.154531	0.153851
656.359640	0.154032
656.564730	0.153911
656.769802	0.153906
656.974856	0.154182
657.179892	0.154260
657.384909	0.154556
657.589908	0.154710
657.794889	0.154746
657.999852	0.154621
658.204797	0.154565
658.409723	0.154765
658.614631	0.154895
658.819521	0.154976
659.024393	0.155054
659.229246	0.154881
659.434081	0.154863
659.638898	0.154968
659.843697	0.155275
660.048478	0.155403
660.253240	0.155452
660.457984	0.155563
660.662710	0.155647
660.867417	0.155658
661.072107	0.155717
661.276778	0.155780
661.481431	0.156103
661.686066	0.156098
661.890682	0.156226
662.095281	0.156414
662.299861	0.156556
662.504422	0.157022
662.708966	0.157453
662.913491	0.157845
663.117999	0.157911
663.322488	0.157865
663.526958	0.157877
663.731411	0.157911
663.935845	0.157677
664.140261	0.157780
664.344659	0.157581
664.549038	0.157328
664.753400	0.157567
664.957743	0.157837
665.162068	0.157752
665.366375	0.157797
665.570663	0.157724
665.774933	0.158114
665.979185	0.158435
666.183419	0.158707
666.387635	0.159083
666.591832	0.159005
666.796011	0.159209
667.000172	0.159419
667.204315	0.159758
667.408439	0.159996
667.612545	0.160009
667.816634	0.159663
668.020703	0.159646
668.224755	0.159827
668.428788	0.159862
668.632803	0.159924
668.836800	0.160033
669.040779	0.160055
669.244739	0.160350
669.448681	0.160472
669.652605	0.160711
669.856511	0.160754
670.060399	0.160742
670.264268	0.160855
670.468119	0.160841
670.671952	0.160906
670.875767	0.161082
671.079563	0.161266
671.283341	0.161313
671.487101	0.161513
671.690843	0.161616
671.894567	0.161594
672.098272	0.161706
672.301959	0.161798
672.505628	0.161869
672.709278	0.161917
672.912911	0.162065
673.116525	0.162368
673.320121	0.162494
673.523699	0.162614
673.727258	0.162942
673.930799	0.163069
674.134322	0.163376
674.337827	0.163675
674.541314	0.163804
674.744782	0.163802
674.948232	0.163997
675.151664	0.164024
675.355078	0.164176
675.558474	0.164235
675.761851	0.164312
675.965210	0.164174
676.168551	0.163984
676.371873	0.164022
676.575178	0.164163
676.778464	0.163934
676.981732	0.164137
677.184981	0.164322
677.388213	0.164190
677.591426	0.164462
677.794621	0.165023
677.997798	0.165230
678.200956	0.165613
678.404097	0.165560
678.607219	0.165953
678.810323	0.166029
679.013408	0.165920
679.216476	0.166482
679.419525	0.166651
679.622556	0.166596
679.825569	0.166744
680.028563	0.166669
680.231540	0.166854
680.434498	0.166989
680.637438	0.166995
680.840359	0.167031
681.043263	0.166955
681.246148	0.166697
681.449015	0.166642
681.651864	0.166889
681.854694	0.166976
682.057506	0.166999
682.260301	0.166970
682.463076	0.167298
682.665834	0.167557
682.868573	0.167784
683.071295	0.168115
683.273998	0.168218
683.476682	0.168456
683.679349	0.168588
683.881997	0.168788
684.084627	0.168823
684.287239	0.168727
684.489833	0.168822
684.692408	0.168774
684.894965	0.168776
685.097504	0.168689
685.300025	0.168615
685.502527	0.168612
685.705012	0.168727
685.907478	0.168874
686.109925	0.169004
686.312355	0.169125
686.514766	0.169364
686.717159	0.169318
686.919534	0.169730
687.121891	0.169715
687.324230	0.169826
687.526550	0.169886
687.728852	0.170039
687.931136	0.170260
688.133401	0.170264
688.335649	0.170177
688.537878	0.170389
688.740089	0.170056
688.942281	0.170253
689.144456	0.170079
689.346612	0.170161
689.548750	0.170034
689.750870	0.170047
689.952971	0.170223
690.155055	0.170343
690.357120	0.170562
690.559167	0.170880
690.761195	0.170915
690.963206	0.171402
691.165198	0.171595
691.367172	0.172090
691.569128	0.172202
691.771065	0.172501
691.972984	0.172791
692.174885	0.173019
692.376768	0.173021
692.578633	0.173144
692.780479	0.172934
692.982308	0.173060
693.184118	0.172907
693.385909	0.172985
693.587683	0.172682
693.789438	0.172539
693.991175	0.172400
694.192894	0.172677
694.394595	0.172862
694.596277	0.173110
694.797941	0.173049
694.999587	0.173235
695.201215	0.173356
695.402824	0.173662
695.604416	0.173783
695.805989	0.173839
696.007543	0.173893
696.209080	0.173719
696.410598	0.173798
696.612099	0.173813
696.813580	0.173801
697.015044	0.173799
697.216490	0.173746
697.417917	0.173828
697.619326	0.173874
697.820717	0.173849
698.022089	0.173931
698.223444	0.173856
698.424780	0.173948
698.626098	0.174059
698.827397	0.174174
699.028679	0.174289
699.229942	0.174254
699.431187	0.174091
699.632414	0.174163
699.833622	0.174222
700.034813	0.174468
700.235985	0.174658
700.437139	0.174598
700.638274	0.174618
700.839392	0.174699
701.040491	0.174937
701.241572	0.175239
701.442635	0.175431
701.643679	0.175471
701.844706	0.175313
702.045714	0.175123
702.246704	0.175287
702.447675	0.175335
702.648629	0.175456
702.849564	0.175261
703.050481	0.175272
703.251380	0.175205
703.452260	0.175313
703.653122	0.175580
703.853966	0.175596
704.054792	0.175446
704.255600	0.175448
704.456389	0.175410
704.657160	0.175580
704.857913	0.175446
705.058648	0.175539
705.259365	0.175536
705.460063	0.175395
705.660743	0.175524
705.861405	0.175687
706.062048	0.175700
706.262674	0.175649
706.463281	0.175661
706.663870	0.175980
706.864441	0.175843
707.064993	0.175985
707.265527	0.176119
707.466043	0.176189
707.666541	0.176318
707.867021	0.176552
708.067482	0.176782
708.267925	0.176830
708.468350	0.176900
708.668757	0.176972
708.869145	0.177202
709.069516	0.177406
709.269868	0.177622
709.470201	0.177680
709.670517	0.177449
709.870814	0.177508
710.071093	0.177503
710.271354	0.177550
710.471597	0.177948
710.671821	0.177753
710.872028	0.177372
711.072216	0.177074
711.272385	0.177152
711.472537	0.177174
711.672670	0.176844
711.872785	0.176647
712.072882	0.176559
712.272961	0.176285
712.473021	0.176246
712.673063	0.176367
712.873087	0.176033
713.073093	0.175714
713.273081	0.175573
713.473050	0.175443
713.673001	0.175640
713.872934	0.175628
714.072849	0.175457
714.272745	0.175372
714.472623	0.175350
714.672483	0.175764
714.872325	0.175847
715.072148	0.175888
715.271954	0.176058
715.471741	0.175980
715.671509	0.175889
715.871260	0.176064
716.070992	0.175948
716.270707	0.175990
716.470403	0.175786
716.670080	0.175626
716.869740	0.175825
717.069381	0.175928
717.269004	0.175823
717.468609	0.175745
717.668195	0.175556
717.867764	0.175571
718.067314	0.175310
718.266846	0.175255
718.466360	0.175159
718.665855	0.174956
718.865332	0.174839
719.064791	0.174954
719.264232	0.174856
719.463655	0.174921
719.663059	0.174765
719.862445	0.174804
720.061813	0.174963
720.261163	0.174851
720.460494	0.174782
720.659807	0.174951
720.859102	0.174796
721.058379	0.174649
721.257638	0.174227
721.456878	0.174262
721.656100	0.174344
721.855304	0.174228
722.054490	0.174292
722.253657	0.174209
722.452806	0.173956
722.651937	0.173791
722.851050	0.173712
723.050145	0.173848
723.249221	0.173886
723.448279	0.173730
723.647319	0.173669
723.846340	0.173766
724.045344	0.173675
724.244329	0.173506
724.443296	0.173459
724.642245	0.173506
724.841175	0.173728
725.040088	0.173664
725.238982	0.173774
725.437857	0.173630
725.636715	0.173463
725.835554	0.173590
726.034376	0.173509
726.233179	0.173477
726.431963	0.173277
726.630730	0.173072
726.829478	0.172734
727.028208	0.172555
727.226920	0.172542
727.425614	0.172514
727.624289	0.172416
727.822946	0.172485
728.021585	0.172334
728.220206	0.172380
728.418808	0.172397
728.617392	0.172591
728.815958	0.172537
729.014506	0.172538
729.213036	0.172409
729.411547	0.172336
729.610040	0.172199
729.808515	0.172211
730.006972	0.172044
730.205410	0.171665
730.403831	0.171369
730.602233	0.171125
730.800616	0.170957
730.998982	0.170856
731.197329	0.170448
731.395658	0.170196
731.593969	0.170064
731.792262	0.170035
731.990536	0.170257
732.188793	0.170456
732.387031	0.170441
732.585250	0.170348
732.783452	0.170142
732.981635	0.170161
733.179800	0.170251
733.377947	0.170227
733.576076	0.170316
733.774186	0.170190
733.972278	0.170010
734.170352	0.169930
734.368408	0.169848
734.566446	0.170022
734.764465	0.170216
734.962466	0.170174
735.160449	0.170165
735.358413	0.170063
735.556360	0.169993
735.754288	0.169756
735.952198	0.169746
736.150090	0.169591
736.347963	0.169398
736.545818	0.169053
736.743655	0.168806
736.941474	0.168585
737.139275	0.168309
737.337057	0.168048
737.534821	0.168110
737.732567	0.167824
737.930295	0.167691
738.128005	0.167366
738.325696	0.167255
738.523369	0.167320
738.721024	0.167204
738.918660	0.167265
739.116279	0.166965
739.313879	0.167016
739.511461	0.167175
739.709024	0.167055
739.906570	0.167217
740.104097	0.167354
740.301606	0.167270
740.499097	0.167323
740.696569	0.166997
740.894024	0.167067
741.091460	0.166828
741.288878	0.166796
741.486277	0.166765
741.683659	0.166628
741.881022	0.166210
742.078367	0.166000
742.275694	0.165745
742.473002	0.165773
742.670293	0.165514
742.867565	0.165463
743.064819	0.165015
743.262054	0.164965
743.459272	0.164916
743.656471	0.164943
743.853652	0.164752
744.050815	0.164793
744.247959	0.164422
744.445085	0.164472
744.642194	0.164336
744.839283	0.164116
745.036355	0.163924
745.233408	0.163879
745.430444	0.163789
745.627461	0.163791
745.824459	0.163453
746.021440	0.163642
746.218402	0.163465
746.415346	0.163240
746.612272	0.163147
746.809180	0.162892
747.006069	0.162477
747.202940	0.162551
747.399793	0.162272
747.596628	0.162301
747.793444	0.162182
747.990243	0.161934
748.187023	0.161849
748.383784	0.161901
748.580528	0.162013
748.777253	0.162197
748.973960	0.161898
749.170649	0.161768
749.367320	0.161693
749.563973	0.161327
749.760607	0.161376
749.957223	0.161217
750.153821	0.161154
750.350400	0.160965
750.546962	0.160743
750.743505	0.160455
750.940030	0.160395
751.136536	0.160089
751.333025	0.160126
751.529495	0.160022
751.725947	0.159878
751.922381	0.159938
752.118796	0.159933
752.315194	0.159874
752.511573	0.159928
752.707934	0.159941
752.904276	0.160119
753.100601	0.160147
753.296907	0.160216
753.493195	0.160298
753.689465	0.160167
753.885716	0.160126
754.081949	0.160188
754.278164	0.160376
754.474361	0.160331
754.670540	0.160012
754.866700	0.159848
755.062843	0.159557
755.258967	0.159500
755.455072	0.159487
755.651160	0.159429
755.847229	0.159361
756.043280	0.159155
756.239313	0.159064
756.435328	0.159120
756.631324	0.159165
756.827302	0.159304
757.023262	0.159405
757.219204	0.159292
757.415127	0.159119
757.611033	0.158931
757.806920	0.158803
758.002788	0.158519
758.198639	0.158567
758.394471	0.158457
758.590286	0.158289
758.786081	0.157885
758.981859	0.157669
759.177619	0.157539
759.373360	0.157384
759.569083	0.157200
759.764788	0.157385
759.960474	0.157109
760.156143	0.156748
760.351793	0.156830
760.547425	0.156760
760.743038	0.156675
760.938634	0.156721
761.134211	0.156661
761.329770	0.156584
761.525311	0.156338
761.720833	0.156238
761.916338	0.156258
762.111824	0.156196
762.307292	0.156030
762.502741	0.156026
762.698173	0.155922
762.893586	0.155818
763.088981	0.155701
763.284358	0.155620
763.479716	0.155449
763.675057	0.155546
763.870379	0.155175
764.065683	0.155243
764.260968	0.155097
764.456236	0.154937
764.651485	0.154611
764.846716	0.154592
765.041929	0.154464
765.237123	0.154560
765.432299	0.154172
765.627457	0.154097
765.822597	0.154010
766.017719	0.153923
766.212822	0.153927
766.407907	0.154209
766.602974	0.154119
766.798023	0.154096
766.993054	0.153908
767.188066	0.154138
767.383060	0.154083
767.578036	0.154243
767.772993	0.154234
767.967933	0.154155
768.162854	0.153887
768.357757	0.154051
768.552642	0.154330
768.747508	0.154296
768.942356	0.154231
769.137186	0.154296
769.331998	0.154145
769.526792	0.154092
769.721567	0.153831
769.916324	0.154056
770.111063	0.154078
770.305784	0.153861
770.500486	0.153934
770.695171	0.153908
770.889837	0.153922
771.084484	0.153830
771.279114	0.153816
771.473725	0.154156
771.668318	0.153823
771.862893	0.153361
772.057450	0.153446
772.251988	0.153301
772.446509	0.153066
772.641011	0.152959
772.835494	0.152972
773.029960	0.152780
773.224407	0.152597
773.418836	0.152697
773.613247	0.152782
773.807640	0.152715
774.002014	0.152746
774.196370	0.152957
774.390708	0.152898
774.585028	0.152745
774.779330	0.152819
774.973613	0.152815
775.167878	0.152856
775.362125	0.152851
775.556354	0.152757
775.750564	0.152631
775.944756	0.152447
776.138930	0.152443
776.333086	0.152530
776.527223	0.152554
776.721343	0.152505
776.915444	0.152256
777.109526	0.152342
777.303591	0.152063
777.497637	0.152247
777.691666	0.152253
777.885676	0.152238
778.079667	0.152157
778.273641	0.152210
778.467596	0.152332
778.661533	0.152481
778.855452	0.152495
779.049352	0.152880
779.243235	0.153105
779.437099	0.153408
779.630945	0.153452
779.824773	0.153727
780.018582	0.153712
780.212373	0.153682
780.406146	0.153807
780.599901	0.153818
780.793638	0.153867
780.987356	0.153616
781.181056	0.153600
781.374738	0.153557
781.568402	0.153236
781.762047	0.153251
781.955674	0.153187
782.149283	0.153048
782.342874	0.153011
782.536447	0.152893
782.730001	0.153116
782.923537	0.153051
783.117055	0.152948
783.310555	0.152913
783.504036	0.152647
783.697499	0.152604
783.890944	0.152644
784.084371	0.152580
784.277780	0.152439
784.471170	0.152260
784.664542	0.152506
784.857896	0.152787
785.051231	0.152946
785.244549	0.153073
785.437848	0.153179
785.631129	0.153485
785.824392	0.153480
786.017636	0.153569
786.210863	0.153892
786.404071	0.153871
786.597260	0.153966
786.790432	0.154183
786.983585	0.154436
787.176721	0.154361
787.369838	0.154231
787.562936	0.154582
787.756017	0.154729
787.949079	0.154605
788.142123	0.154482
788.335149	0.154568
788.528156	0.154469
788.721146	0.154719
788.914117	0.155188
789.107070	0.155414
789.300005	0.155335
789.492921	0.155654
789.685819	0.155658
789.878699	0.155590
790.071561	0.155615
790.264405	0.155767
790.457230	0.155894
790.650037	0.155750
790.842826	0.155735
791.035597	0.156023
791.228349	0.156072
791.421084	0.156507
791.613800	0.156984
791.806497	0.157041
791.999177	0.157271
792.191838	0.157214
792.384481	0.157505
792.577106	0.157565
792.769713	0.157521
792.962301	0.157268
793.154871	0.157117
793.347423	0.157234
793.539957	0.157555
793.732473	0.157621
793.924970	0.157967
794.117449	0.158118
794.309910	0.158498
794.502353	0.158537
794.694777	0.158817
794.887183	0.158985
795.079571	0.159024
795.271941	0.159002
795.464293	0.159194
795.656626	0.159045
795.848941	0.158888
796.041238	0.159027
796.233516	0.159251
796.425777	0.159637
796.618019	0.159762
796.810243	0.159896
797.002449	0.159979
797.194636	0.159967
797.386805	0.160112
797.578956	0.160205
797.771089	0.159782
797.963204	0.160023
798.155300	0.159982
798.347378	0.160181
798.539438	0.160397
798.731480	0.160489
798.923503	0.160730
799.115509	0.160898
799.307496	0.161323
799.499465	0.161804
799.691415	0.161730
799.883348	0.161938
800.075262	0.162030
800.267158	0.161880
800.459035	0.162014
800.650895	0.162109
800.842736	0.162263
801.034559	0.162286
801.226364	0.162371
801.418150	0.162521
801.609919	0.162649
801.801669	0.162672
801.993401	0.162945
802.185114	0.163088
802.376810	0.163222
802.568487	0.163236
802.760146	0.163405
802.951787	0.163288
803.143409	0.163330
803.335014	0.163327
803.526600	0.163552
803.718168	0.163421
803.909717	0.163815
804.101249	0.163660
804.292762	0.163753
804.484257	0.164051
804.675734	0.164349
804.867192	0.164639
805.058632	0.164730
805.250054	0.164970
805.441458	0.165379
805.632844	0.165282
805.824211	0.165681
806.015561	0.165983
806.206891	0.165998
806.398204	0.166261
806.589499	0.166444
806.780775	0.166633
806.972033	0.166667
807.163273	0.166767
807.354495	0.166819
807.545698	0.167046
807.736883	0.167516
807.928050	0.167704
808.119199	0.167941
808.310329	0.168315
808.501441	0.168940
808.692535	0.169322
808.883611	0.169803
809.074669	0.170447
809.265708	0.170482
809.456729	0.170362
809.647732	0.170700
809.838717	0.171075
810.029683	0.171246
810.220632	0.171012
810.411562	0.171035
810.602474	0.171211
810.793367	0.171272
810.984242	0.171516
811.175100	0.171754
811.365938	0.171695
811.556759	0.171844
811.747562	0.171898
811.938346	0.172427
812.129112	0.172842
812.319860	0.173016
812.510589	0.173208
812.701300	0.173523
812.891994	0.173807
813.082668	0.174080
813.273325	0.174159
813.463964	0.174703
813.654584	0.174654
813.845186	0.174725
814.035769	0.174851
814.226335	0.174973
814.416882	0.175014
814.607411	0.174888
814.797922	0.175352
814.988415	0.175496
815.178889	0.175182
815.369345	0.175495
815.559783	0.175852
815.750203	0.175820
815.940605	0.176033
816.130988	0.176351
816.321353	0.176653
816.511700	0.176507
816.702028	0.176720
816.892339	0.177180
817.082631	0.177251
817.272905	0.177193
817.463161	0.177582
817.653398	0.177666
817.843617	0.177963
818.033819	0.178594
818.224001	0.178943
818.414166	0.179202
818.604312	0.179464
818.794440	0.179672
818.984550	0.179819
819.174642	0.180027
819.364716	0.180158
819.554771	0.180374
819.744808	0.180158
819.934827	0.180316
820.124827	0.180537
820.314810	0.180811
820.504774	0.180791
820.694720	0.181180
820.884647	0.181290
821.074557	0.181861
821.264448	0.182251
821.454321	0.182549
821.644176	0.182804
821.834012	0.182941
822.023831	0.183065
822.213631	0.183610
822.403413	0.183789
822.593176	0.184138
822.782922	0.183968
822.972649	0.183988
823.162358	0.184089
823.352049	0.184372
823.541721	0.184847
823.731376	0.185350
823.921012	0.185710
824.110629	0.185974
824.300229	0.186211
824.489811	0.186575
824.679374	0.186722
824.868919	0.187172
825.058445	0.187232
825.247954	0.187278
825.437444	0.187045
825.626916	0.187068
825.816370	0.187376
826.005806	0.187473
826.195223	0.188074
826.384622	0.188563
826.574003	0.188985
826.763366	0.189330
826.952711	0.189682
827.142037	0.190027
827.331345	0.190522
827.520635	0.190756
827.709906	0.191075
827.899160	0.191075
828.088395	0.191134
828.277612	0.191225
828.466810	0.191545
828.655991	0.191590
828.845153	0.192118
829.034297	0.192377
829.223423	0.192459
829.412531	0.192740
829.601620	0.192684
829.790691	0.193060
829.979744	0.193327
830.168779	0.193443
830.357795	0.193763
830.546793	0.193801
830.735773	0.193893
830.924735	0.194151
831.113679	0.194387
831.302604	0.195201
831.491511	0.195341
831.680400	0.195759
831.869271	0.196450
832.058123	0.196800
832.246957	0.197115
832.435773	0.197410
832.624571	0.198040
832.813351	0.198608
833.002112	0.199029
833.190855	0.199471
833.379580	0.199937
833.568287	0.200082
833.756975	0.200635
833.945645	0.201208
834.134297	0.201549
834.322931	0.201619
834.511547	0.201853
834.700144	0.202053
834.888723	0.202309
835.077284	0.201993
835.265826	0.202048
835.454351	0.202311
835.642857	0.202522
835.831345	0.202933
836.019815	0.203720
836.208266	0.203857
836.396699	0.204028
836.585114	0.204471
836.773511	0.205079
836.961890	0.205652
837.150250	0.205723
837.338592	0.205885
837.526916	0.206340
837.715222	0.206000
837.903510	0.206394
838.091779	0.206685
838.280030	0.207045
838.468263	0.207322
838.656477	0.207294
838.844674	0.207889
839.032852	0.208018
839.221012	0.208365
839.409153	0.208874
839.597277	0.209428
839.785382	0.209846
839.973469	0.209986
840.161538	0.210679
840.349589	0.211289
840.537621	0.211642
840.725635	0.212225
840.913631	0.212317
841.101609	0.212804
841.289568	0.212551
841.477509	0.212910
841.665432	0.213255
841.853337	0.213448
842.041224	0.213509
842.229092	0.213606
842.416942	0.214029
842.604774	0.214645
842.792588	0.214602
842.980383	0.215144
843.168160	0.215436
843.355919	0.215836
843.543660	0.215878
843.731382	0.216381
843.919087	0.216961
844.106773	0.217069
844.294441	0.217005
844.482090	0.217476
844.669722	0.217849
844.857335	0.218223
845.044930	0.218269
845.232507	0.218329
845.420065	0.218731
845.607605	0.218863
845.795127	0.219202
845.982631	0.219411
846.170117	0.219533
846.357584	0.219738
846.545033	0.219727
846.732464	0.219929
846.919877	0.220631
847.107272	0.220652
847.294648	0.220869
847.482006	0.221228
847.669346	0.221619
847.856667	0.222125
848.043971	0.222476
848.231256	0.222840
848.418523	0.223503
848.605771	0.223446
848.793002	0.223840
848.980214	0.223869
849.167408	0.224067
849.354584	0.224182
849.541742	0.224442
849.728881	0.224727
849.916002	0.225029
850.103105	0.224848
850.290190	0.225363
850.477256	0.225510
850.664304	0.225790
850.851334	0.225796
851.038346	0.226309
851.225340	0.226801
851.412315	0.227024
851.599272	0.227361
851.786211	0.227704
851.973132	0.227766
852.160034	0.228112
852.346918	0.228584
852.533784	0.229151
852.720632	0.229322
852.907462	0.229067
853.094273	0.229665
853.281066	0.229579
853.467841	0.230436
853.654598	0.231392
853.841336	0.231685
854.028056	0.231862
854.214758	0.232416
854.401442	0.232609
854.588107	0.233256
854.774755	0.233221
854.961384	0.233760
855.147995	0.234049
855.334587	0.234144
855.521162	0.234838
855.707718	0.235248
855.894256	0.235254
856.080775	0.235766
856.267277	0.235977
856.453760	0.236295
856.640225	0.236505
856.826672	0.236305
857.013101	0.236464
857.199511	0.236355
857.385903	0.236326
857.572277	0.236609
857.758633	0.236583
857.944970	0.236866
858.131290	0.237118
858.317591	0.237287
858.503873	0.237318
858.690138	0.237474
858.876384	0.237680
859.062612	0.238409
859.248822	0.238589
859.435014	0.239044
859.621188	0.239321
859.807343	0.239686
859.993480	0.240157
860.179599	0.240752
860.365699	0.240938
860.551781	0.241097
860.737846	0.241202
860.923891	0.241391
861.109919	0.241557
861.295929	0.241664
861.481920	0.242078
861.667893	0.242452
861.853848	0.242490
862.039784	0.242726
862.225702	0.243448
862.411603	0.243123
862.597484	0.243408
862.783348	0.243731
862.969193	0.244164
863.155021	0.244121
863.340830	0.244256
863.526620	0.244733
863.712393	0.244856
863.898147	0.244724
864.083883	0.245462
864.269601	0.245896
864.455301	0.246154
864.640982	0.246304
864.826645	0.246665
865.012290	0.246926
865.197917	0.246882
865.383526	0.247675
865.569116	0.248223
865.754688	0.248660
865.940242	0.248768
866.125777	0.249055
866.311295	0.249526
866.496794	0.249683
866.682275	0.249681
866.867737	0.250082
867.053182	0.249883
867.238608	0.250201
867.424016	0.250395
867.609406	0.250758
867.794778	0.250808
867.980131	0.251057
868.165466	0.251428
868.350783	0.252222
868.536082	0.252392
868.721362	0.252755
868.906625	0.252792
869.091869	0.252983
869.277094	0.253063
869.462302	0.253648
869.647491	0.253820
869.832662	0.254085
870.017815	0.254136
870.202950	0.254559
870.388066	0.254824
870.573165	0.255011
870.758245	0.255256
870.943306	0.255598
871.128350	0.255661
871.313375	0.255825
871.498382	0.255936
871.683371	0.256011
871.868342	0.256422
872.053294	0.256593
872.238229	0.257126
872.423144	0.257237
872.608042	0.257638
872.792922	0.257591
872.977783	0.257973
873.162626	0.258624
873.347451	0.258636
873.532258	0.258754
873.717046	0.259068
873.901816	0.258976
874.086568	0.259441
874.271302	0.259259
874.456017	0.259494
874.640715	0.259283
874.825394	0.258895
875.010055	0.259031
875.194697	0.259352
875.379322	0.259254
875.563928	0.259366
875.748516	0.259390
875.933085	0.259708
876.117637	0.260231
876.302170	0.260496
876.486685	0.260740
876.671182	0.260880
876.855661	0.260974
877.040121	0.261250
877.224563	0.261462
877.408987	0.261712
877.593393	0.261816
877.777780	0.261791
877.962150	0.262073
878.146501	0.262154
878.330833	0.262530
878.515148	0.262505
878.699444	0.262965
878.883722	0.263280
879.067982	0.263329
879.252224	0.263794
879.436447	0.264082
879.620653	0.264287
879.804840	0.264514
879.989008	0.264623
880.173159	0.265107
880.357291	0.264675
880.541405	0.264731
880.725501	0.264767
880.909579	0.264758
881.093638	0.264631
881.277680	0.264774
881.461703	0.264969
881.645707	0.265162
881.829694	0.264825
882.013662	0.265213
882.197612	0.265187
882.381544	0.265258
882.565458	0.265094
882.749353	0.265430
882.933230	0.265687
883.117089	0.265888
883.300930	0.266000
883.484753	0.266625
883.668557	0.266453
883.852343	0.266210
884.036111	0.266106
884.219861	0.266543
884.403592	0.266143
884.587305	0.265894
884.771000	0.266290
884.954677	0.266073
885.138335	0.265597
885.321976	0.266205
885.505598	0.266667
885.689201	0.267029
885.872787	0.267089
886.056354	0.267753
886.239904	0.267643
886.423434	0.267306
886.606947	0.267941
886.790442	0.268270
886.973918	0.268102
887.157376	0.268181
887.340816	0.268221
887.524237	0.267759
887.707641	0.267530
887.891026	0.267555
888.074393	0.267810
888.257741	0.267516
888.441072	0.267269
888.624384	0.267128
888.807678	0.266830
888.990954	0.267095
889.174211	0.267447
889.357451	0.267491
889.540672	0.267539
889.723875	0.267386
889.907059	0.267126
890.090226	0.267191
890.273374	0.267107
890.456504	0.266868
890.639616	0.266846
890.822709	0.266960
891.005785	0.267098
891.188842	0.267093
891.371881	0.266911
891.554901	0.267236
891.737904	0.267245
891.920888	0.267142
892.103854	0.267634
892.286802	0.267258
892.469731	0.266853
892.652643	0.266680
892.835536	0.266501
893.018410	0.266680
893.201267	0.266137
893.384106	0.266058
893.566926	0.266210
893.749728	0.266511
893.932511	0.266313
894.115277	0.266335
894.298024	0.266300
894.480753	0.266454
894.663464	0.266334
894.846157	0.266467
895.028831	0.266546
895.211487	0.266343
895.394125	0.266061
895.576745	0.266084
895.759346	0.266142
895.941930	0.266372
896.124495	0.267022
896.307041	0.267232
896.489570	0.267156
896.672080	0.266973
896.854573	0.267037
897.037046	0.266827
897.219502	0.267041
897.401940	0.267002
897.584359	0.267001
897.766760	0.266421
897.949143	0.265716
898.131507	0.265803
898.313854	0.265631
898.496182	0.265370
898.678492	0.265029
898.860783	0.265154
899.043057	0.265417
899.225312	0.265035
899.407549	0.264831
899.589768	0.265048
899.771968	0.264770
899.954151	0.264743
900.136315	0.264785
900.318461	0.264265
900.500588	0.263369
900.682698	0.262464
900.864789	0.261697
901.046862	0.261613
901.228917	0.261085
901.410953	0.261197
901.592971	0.261278
901.774972	0.260928
901.956953	0.261493
902.138917	0.261175
902.320862	0.261709
902.502790	0.261946
902.684699	0.261001
902.866589	0.260924
903.048462	0.260893
903.230316	0.259931
903.412152	0.259928
903.593970	0.259641
903.775770	0.260141
903.957551	0.259837
904.139314	0.259662
904.321059	0.260109
904.502786	0.259934
904.684494	0.259457
904.866185	0.259891
905.047857	0.259585
905.229510	0.259395
905.411146	0.258699
905.592763	0.258483
905.774363	0.258517
905.955943	0.258020
906.137506	0.257809
906.319051	0.257606
906.500577	0.257248
906.682085	0.257412
906.863575	0.257015
907.045046	0.257038
907.226500	0.256259
907.407935	0.255744
907.589352	0.255711
907.770750	0.255577
907.952131	0.255173
908.133493	0.254890
908.314837	0.254538
908.496163	0.254268
908.677470	0.254022
908.858760	0.253537
909.040031	0.253769
909.221284	0.253688
909.402518	0.253524
909.583735	0.253121
909.764933	0.252610
909.946113	0.252482
910.127275	0.251392
910.308418	0.251111
910.489544	0.251310
910.670651	0.249908
910.851740	0.249250
911.032810	0.248657
911.213863	0.247905
911.394897	0.247590
911.575913	0.246931
911.756911	0.247216
911.937890	0.246617
912.118851	0.246051
912.299794	0.246072
912.480719	0.246136
912.661626	0.245452
912.842514	0.245767
913.023384	0.245714
913.204236	0.245244
913.385070	0.245321
913.565886	0.244596
913.746683	0.244558
913.927462	0.244250
914.108223	0.243676
914.288965	0.243549
914.469690	0.242810
914.650396	0.241890
914.831084	0.241641
915.011754	0.240700
915.192405	0.241008
915.373038	0.240547
915.553653	0.239454
915.734250	0.239385
915.914829	0.239004
916.095389	0.238183
916.275931	0.238087
916.456455	0.237613
916.636961	0.237171
916.817448	0.236017
916.997917	0.235500
917.178368	0.235650
917.358801	0.234444
917.539216	0.233698
917.719612	0.233894
917.899990	0.233447
918.080350	0.232853
918.260692	0.232952
918.441015	0.233034
918.621320	0.232364
918.801607	0.231945
918.981876	0.232046
919.162127	0.231815
919.342359	0.231488
919.522573	0.231207
919.702769	0.230492
919.882947	0.229888
920.063106	0.229452
920.243247	0.228607
920.423370	0.228563
920.603475	0.228429
920.783562	0.228281
920.963630	0.227503
921.143680	0.226898
921.323712	0.226764
921.503725	0.226038
921.683721	0.225416
921.863698	0.225233
922.043657	0.224532
922.223598	0.223674
922.403520	0.222531
922.583424	0.221943
922.763311	0.221263
922.943178	0.220870
923.123028	0.220609
923.302859	0.220250
923.482673	0.219771
923.662467	0.218962
923.842244	0.218334
924.022003	0.217899
924.201743	0.217858
924.381465	0.217120
924.561169	0.216313
924.740854	0.215014
924.920522	0.214481
925.100171	0.214029
925.279802	0.213560
925.459414	0.213003
925.639009	0.212977
925.818585	0.211996
925.998143	0.211609
926.177683	0.211466
926.357205	0.211345
926.536708	0.210533
926.716193	0.210080
926.895660	0.209553
927.075109	0.208229
927.254539	0.207340
927.433951	0.206821
927.613345	0.206259
927.792721	0.205078
927.972079	0.204708
928.151418	0.203737
928.330739	0.203102
928.510042	0.202591
928.689327	0.202248
928.868593	0.202024
929.047841	0.201409
929.227071	0.200901
929.406283	0.200489
929.585476	0.199157
929.764652	0.199113
929.943809	0.198490
930.122948	0.197437
930.302068	0.196936
930.481171	0.196048
930.660255	0.195443
930.839321	0.194399
931.018369	0.194129
931.197398	0.194133
931.376409	0.194208
931.555402	0.193912
931.734377	0.193420
931.913334	0.193375
932.092272	0.192721
932.271192	0.192275
932.450094	0.191949
932.628978	0.191184
932.807844	0.190297
932.986691	0.188403
933.165520	0.187368
933.344331	0.186769
933.523123	0.185588
933.701898	0.185444
933.880654	0.184950
934.059392	0.183871
934.238111	0.182864
934.416813	0.182681
934.595496	0.182785
934.774161	0.181831
934.952808	0.180977
935.131437	0.180377
935.310047	0.178914
935.488639	0.177755
935.667213	0.178245
935.845769	0.177039
936.024306	0.176239
936.202825	0.175112
936.381326	0.174509
936.559809	0.174470
936.738274	0.173651
936.916720	0.173555
937.095148	0.173382
937.273558	0.172137
937.451950	0.171959
937.630323	0.171453
937.808678	0.171055
937.987015	0.170395
938.165334	0.168932
938.343635	0.167636
938.521917	0.166482
938.700181	0.165684
938.878427	0.164678
939.056655	0.164540
939.234864	0.162767
939.413055	0.161724
939.591228	0.161340
939.769383	0.161372
939.947519	0.161027
940.125638	0.160044
940.303738	0.158422
940.481820	0.158494
940.659883	0.156533
940.837929	0.155881
941.015956	0.155520
941.193965	0.153680
941.371955	0.153618
941.549928	0.153298
941.727882	0.152193
941.905818	0.152514
942.083736	0.151008
942.261636	0.150673
942.439517	0.150471
942.617380	0.149773
942.795225	0.150045
942.973052	0.148442
943.150860	0.147280
943.328651	0.147471
943.506423	0.146727
943.684176	0.145773
943.861912	0.144972
944.039629	0.144252
944.217328	0.142509
944.395009	0.142103
944.572672	0.140844
944.750317	0.140590
944.927943	0.138874
945.105551	0.136774
945.283141	0.135878
945.460712	0.134921
945.638265	0.133542
945.815801	0.133386
945.993317	0.132124
946.170816	0.131603
946.348297	0.131228
946.525759	0.131531
946.703203	0.131804
946.880629	0.131748
947.058036	0.131463
947.235425	0.130925
947.412797	0.131545
947.590149	0.129713
947.767484	0.128743
947.944800	0.127363
948.122099	0.125406
948.299379	0.124584
948.476640	0.121974
948.653884	0.120634
948.831109	0.121661
949.008316	0.118626
949.185505	0.119276
949.362676	0.118126
949.539828	0.116613
949.716962	0.116392
949.894078	0.115522
950.071176	0.115717
950.248256	0.116020
950.425317	0.113335
950.602360	0.113640
950.779385	0.113382
950.956391	0.112880
951.133380	0.112946
951.310350	0.113467
951.487302	0.113139
951.664235	0.114248
951.841151	0.114008
952.018048	0.113689
952.194927	0.112722
952.371788	0.112379
952.548631	0.112257
952.725455	0.111790
952.902261	0.109031
953.079049	0.108662
953.255819	0.106589
953.432570	0.105830
953.609303	0.106068
953.786018	0.106372
953.962715	0.104858
954.139394	0.104347
954.316054	0.103627
954.492696	0.104223
954.669320	0.102593
954.845926	0.103615
955.022513	0.103530
955.199083	0.102426
955.375634	0.101983
955.552166	0.100594
955.728681	0.099015
955.905177	0.098549
956.081655	0.099100
956.258115	0.098396
956.434557	0.097292
956.610980	0.094462
956.787385	0.092167
956.963772	0.091464
957.140141	0.091389
957.316492	0.091506
957.492824	0.092911
957.669138	0.092138
957.845434	0.092578
958.021712	0.091847
958.197971	0.094028
958.374212	0.094204
958.550435	0.093613
958.726640	0.092997
958.902826	0.092009
959.078995	0.089524
959.255145	0.087395
959.431277	0.088255
959.607390	0.090251
959.783486	0.090332
959.959563	0.091899
960.135622	0.090011
960.311662	0.090476
960.487685	0.090984
960.663689	0.091557
960.839675	0.093822
961.015643	0.094529
961.191593	0.092845
961.367524	0.091208
961.543437	0.090522
961.719332	0.092465
961.895209	0.092693
962.071067	0.094077
962.246907	0.093153
962.422730	0.090946
962.598533	0.088051
962.774319	0.087265
962.950086	0.086670
963.125835	0.087511
963.301566	0.087048
963.477279	0.085904
963.652973	0.087219
963.828650	0.088461
964.004308	0.088527
964.179947	0.088669
964.355569	0.087498
964.531172	0.088948
964.706757	0.087365
964.882324	0.088277
965.057873	0.089841
965.233403	0.088015
965.408916	0.085776
965.584410	0.084121
965.759885	0.084363
965.935343	0.086199
966.110782	0.085592
966.286203	0.083853
966.461606	0.083043
966.636991	0.082195
966.812357	0.080573
966.987705	0.081767
967.163035	0.082846
967.338347	0.082661
967.513641	0.081436
967.688916	0.080429
967.864173	0.081532
968.039412	0.080337
968.214632	0.079911
968.389835	0.082273
968.565019	0.083198
968.740185	0.082912
968.915333	0.083668
969.090462	0.083582
969.265573	0.083491
969.440667	0.081945
969.615741	0.082284
969.790798	0.083449
969.965836	0.080746
970.140856	0.080934
970.315858	0.081473
970.490842	0.079531
970.665808	0.078765
970.840755	0.080727
971.015684	0.084091
971.190595	0.083512
971.365487	0.082944
971.540362	0.084664
971.715218	0.082141
971.890056	0.082931
972.064875	0.084127
972.239677	0.087041
972.414460	0.085172
972.589225	0.083330
972.763972	0.084704
972.938700	0.084172
973.113411	0.082164
973.288103	0.082261
973.462777	0.081513
973.637432	0.079902
973.812070	0.078711
973.986689	0.079295
974.161290	0.080491
974.335873	0.079559
974.510437	0.078717
974.684984	0.079873
974.859512	0.081564
975.034022	0.081397
975.208513	0.082636
975.382987	0.082003
975.557442	0.082277
975.731879	0.081901
975.906298	0.082253
976.080698	0.083370
976.255080	0.083464
976.429445	0.084115
976.603790	0.085527
976.778118	0.085410
976.952427	0.084716
977.126719	0.085057
977.300992	0.085129
977.475246	0.083249
977.649483	0.081262
977.823701	0.081660
977.997901	0.082638
978.172083	0.082308
978.346247	0.081583
978.520392	0.080126
978.694519	0.077527
978.868628	0.079646
979.042719	0.080349
979.216791	0.083203
979.390845	0.082731
979.564882	0.080421
979.738899	0.079785
979.912899	0.080694
980.086880	0.083123
980.260843	0.084339
980.434788	0.083898
980.608715	0.083915
980.782623	0.082142
980.956514	0.083657
981.130386	0.084647
981.304240	0.083931
981.478075	0.083946
981.651892	0.086055
981.825692	0.085271
981.999472	0.083979
982.173235	0.085971
982.346980	0.086771
982.520706	0.085774
982.694414	0.084576
982.868104	0.087641
983.041775	0.088531
983.215428	0.084842
983.389064	0.085568
983.562680	0.085014
983.736279	0.083664
983.909860	0.082893
984.083422	0.082251
984.256966	0.081314
984.430491	0.078384
984.603999	0.077610
984.777488	0.079149
984.950959	0.079553
985.124412	0.080110
985.297847	0.082635
985.471263	0.082157
985.644661	0.083903
985.818041	0.085615
985.991403	0.087035
986.164747	0.087148
986.338072	0.086308
986.511379	0.086562
986.684668	0.087027
986.857938	0.085697
987.031191	0.086309
987.204425	0.085583
987.377641	0.083977
987.550839	0.081049
987.724018	0.081500
987.897179	0.082041
988.070322	0.081852
988.243447	0.080656
988.416554	0.081263
988.589642	0.081708
988.762712	0.080296
988.935764	0.080723
989.108798	0.082442
989.281813	0.080365
989.454811	0.080130
989.627790	0.081157
989.800751	0.081616
989.973693	0.080430
990.146617	0.079430
990.319524	0.079110
990.492412	0.079250
990.665281	0.079558
990.838133	0.081753
991.010966	0.081234
991.183781	0.082410
991.356578	0.084147
991.529356	0.084946
991.702117	0.086061
991.874859	0.086491
992.047583	0.085585
992.220288	0.084843
992.392976	0.085067
992.565645	0.086456
992.738296	0.083065
992.910929	0.082009
993.083543	0.082726
993.256139	0.082202
993.428718	0.082930
993.601277	0.086160
993.773819	0.088026
993.946342	0.086905
994.118848	0.087919
994.291335	0.088283
994.463803	0.087191
994.636254	0.085874
994.808686	0.085614
994.981100	0.086407
995.153496	0.084351
995.325874	0.084497
995.498233	0.082829
995.670574	0.079532
995.842897	0.079858
996.015202	0.078862
996.187488	0.077493
996.359757	0.077644
996.532007	0.077787
996.704239	0.077904
996.876452	0.077315
997.048648	0.078636
997.220825	0.079316
997.392984	0.079170
997.565124	0.080404
997.737247	0.081016
997.909351	0.083131
998.081437	0.082364
998.253505	0.080736
998.425554	0.080013
998.597586	0.081046
998.769599	0.082835
998.941594	0.083409
999.113571	0.082249
999.285529	0.081589
999.457469	0.078103
999.629391	0.078283
999.801295	0.081512
999.973181	0.080711
1000.145048	0.079502
1000.316897	0.079982
1000.488728	0.078322
1000.660541	0.079270
1000.832335	0.079953
1001.004111	0.081676
1001.175869	0.081809
1001.347609	0.079582
1001.519331	0.081003
1001.691034	0.082922
1001.862719	0.081938
1002.034386	0.082676
1002.206035	0.083199
1002.377665	0.082954
1002.549277	0.082753
1002.720871	0.083587
1002.892447	0.084062
1003.064004	0.083989
1003.235544	0.082870
1003.407065	0.082202
1003.578568	0.082432
1003.750052	0.081830
1003.921519	0.081906
1004.092967	0.082758
1004.264397	0.082337
1004.435809	0.083154
1004.607202	0.083549
1004.778577	0.083589
1004.949934	0.082288
1005.121273	0.082509
1005.292594	0.083271
1005.463896	0.083531
1005.635180	0.080570
1005.806446	0.078968
1005.977694	0.077593
1006.148923	0.076676
1006.320135	0.076143
1006.491328	0.077236
1006.662503	0.076888
1006.833659	0.076615
1007.004798	0.075916
1007.175918	0.077069
1007.347020	0.077764
1007.518103	0.078916
1007.689169	0.080205
1007.860216	0.080446
1008.031245	0.080711
1008.202256	0.081686
1008.373248	0.082290
1008.544223	0.081101
1008.715179	0.080799
1008.886117	0.080979
1009.057036	0.079535
1009.227938	0.078670
1009.398821	0.078614
1009.569686	0.079202
1009.740533	0.079043
1009.911361	0.077630
1010.082172	0.078762
1010.252964	0.079579
1010.423738	0.078517
1010.594493	0.079691
1010.765231	0.080065
1010.935950	0.079059
1011.106651	0.077522
1011.277334	0.077788
1011.447998	0.079556
1011.618645	0.079134
1011.789273	0.079534
1011.959882	0.078874
1012.130474	0.078694
1012.301048	0.079973
1012.471603	0.082406
1012.642140	0.083075
1012.812658	0.081350
1012.983159	0.080784
1013.153641	0.081024
1013.324105	0.080404
1013.494551	0.082546
1013.664979	0.080622
1013.835388	0.078515
1014.005779	0.075218
1014.176152	0.075516
1014.346507	0.075768
1014.516843	0.076546
1014.687162	0.076405
1014.857462	0.075955
1015.027744	0.076617
1015.198007	0.078905
1015.368252	0.080272
1015.538480	0.081636
1015.708689	0.081576
1015.878879	0.080676
1016.049052	0.077987
1016.219206	0.076736
1016.389342	0.077180
1016.559460	0.076046
1016.729559	0.073438
1016.899641	0.071828
1017.069704	0.070989
1017.239749	0.070673
1017.409775	0.072739
1017.579784	0.073106
1017.749774	0.075393
1017.919746	0.075260
1018.089700	0.074377
1018.259635	0.076548
1018.429553	0.077365
1018.599452	0.078232
1018.769333	0.078083
1018.939195	0.076990
1019.109040	0.078179
1019.278866	0.078126
1019.448674	0.078763
1019.618464	0.079417
1019.788235	0.080259
1019.957989	0.079657
1020.127724	0.081368
1020.297441	0.082278
1020.467139	0.081745
1020.636820	0.080952
1020.806482	0.079761
1020.976126	0.077875
1021.145752	0.076332
1021.315359	0.074624
1021.484948	0.074173
1021.654519	0.073911
1021.824072	0.071988
1021.993607	0.073547
1022.163123	0.074663
1022.332621	0.075603
1022.502101	0.077547
1022.671563	0.079370
1022.841007	0.078892
1023.010432	0.079547
1023.179839	0.077771
1023.349228	0.080145
1023.518598	0.080175
1023.687951	0.078630
1023.857285	0.078870
1024.026601	0.078372
1024.195899	0.078398
1024.365178	0.080217
1024.534439	0.079386
1024.703682	0.079345
1024.872907	0.076720
1025.042114	0.074964
1025.211302	0.075655
1025.380472	0.074884
1025.549624	0.075480
1025.718758	0.074201
1025.887873	0.074648
1026.056970	0.075180
1026.226049	0.076707
1026.395110	0.079282
1026.564153	0.081120
1026.733177	0.081605
1026.902183	0.081868
1027.071171	0.081671
1027.240141	0.081308
1027.409092	0.080522
1027.578026	0.080697
1027.746940	0.079117
1027.915837	0.077909
1028.084716	0.078123
1028.253576	0.076639
1028.422418	0.076632
1028.591242	0.077210
1028.760048	0.078051
1028.928835	0.077967
1029.097604	0.077368
1029.266355	0.077009
1029.435088	0.077638
1029.603803	0.076537
1029.772499	0.077069
1029.941177	0.077703
1030.109837	0.077317
1030.278478	0.076746
1030.447102	0.075635
1030.615707	0.076172
1030.784294	0.076423
1030.952863	0.077038
1031.121413	0.077289
1031.289945	0.077745
1031.458460	0.077492
1031.626955	0.076083
1031.795433	0.076455
1031.963892	0.078493
1032.132334	0.077614
1032.300756	0.079144
1032.469161	0.077443
1032.637548	0.078120
1032.805916	0.078837
1032.974266	0.078708
1033.142598	0.079191
1033.310911	0.079061
1033.479207	0.079652
1033.647484	0.080335
1033.815743	0.079547
1033.983983	0.080287
1034.152206	0.079745
1034.320410	0.080150
1034.488596	0.080650
1034.656764	0.080075
1034.824914	0.081097
1034.993045	0.079939
1035.161158	0.079357
1035.329253	0.078124
1035.497330	0.078921
1035.665388	0.079680
1035.833428	0.078258
1036.001450	0.078407
1036.169454	0.080155
1036.337440	0.079721
1036.505407	0.077477
1036.673356	0.077296
1036.841287	0.077477
1037.009200	0.077505
1037.177094	0.075543
1037.344970	0.076026
1037.512828	0.075595
1037.680668	0.074691
1037.848489	0.074066
1038.016293	0.074550
1038.184078	0.073603
1038.351845	0.074380
1038.519593	0.074326
1038.687324	0.075457
1038.855036	0.077338
1039.022730	0.076271
1039.190406	0.076341
1039.358063	0.076271
1039.525702	0.077308
1039.693323	0.079068
1039.860926	0.078953
1040.028511	0.077696
1040.196077	0.076195
1040.363625	0.075134
1040.531155	0.074108
1040.698667	0.074309
1040.866161	0.073780
1041.033636	0.073125
1041.201093	0.073373
1041.368532	0.073706
1041.535952	0.073341
1041.703355	0.073591
1041.870739	0.071992
1042.038105	0.072296
1042.205452	0.072919
1042.372782	0.072416
1042.540093	0.074513
1042.707386	0.073669
1042.874661	0.072751
1043.041918	0.072741
1043.209156	0.075366
1043.376376	0.076969
1043.543578	0.078944
1043.710762	0.078632
1043.877927	0.080638
1044.045074	0.078154
1044.212203	0.078467
1044.379314	0.079381
1044.546407	0.078897
1044.713481	0.077752
1044.880537	0.076667
1045.047575	0.076795
1045.214595	0.075495
1045.381596	0.074135
1045.548579	0.073909
1045.715544	0.074140
1045.882491	0.075091
1046.049420	0.075773
1046.216330	0.075462
1046.383222	0.075794
1046.550096	0.073816
1046.716951	0.073530
1046.883789	0.073226
1047.050608	0.073188
1047.217409	0.072800
1047.384192	0.073187
1047.550956	0.073287
1047.717703	0.072332
1047.884431	0.072433
1048.051140	0.073849
1048.217832	0.074919
1048.384505	0.076244
1048.551161	0.075869
1048.717798	0.075899
1048.884416	0.074412
1049.051017	0.075084
1049.217599	0.075997
1049.384163	0.074053
1049.550709	0.075383
1049.717237	0.075138
1049.883746	0.075322
1050.050237	0.075277
1050.216710	0.075351
1050.383165	0.075194
1050.549601	0.075490
1050.716019	0.077402
1050.882420	0.078366
1051.048801	0.076984
1051.215165	0.078233
1051.381510	0.077739
1051.547837	0.079616
1051.714146	0.079632
1051.880437	0.080303
1052.046709	0.080753
1052.212964	0.075438
1052.379200	0.075368
1052.545417	0.076604
1052.711617	0.075750
1052.877798	0.074927
1053.043961	0.075254
1053.210106	0.076741
1053.376233	0.075939
1053.542341	0.074170
1053.708432	0.078059
1053.874504	0.078796
1054.040557	0.077708
1054.206593	0.077985
1054.372610	0.076851
1054.538609	0.076742
1054.704590	0.073876
1054.870553	0.075233
1055.036497	0.075470
1055.202424	0.072467
1055.368331	0.072313
1055.534221	0.072990
1055.700093	0.071886
1055.865946	0.072721
1056.031781	0.072709
1056.197598	0.073061
1056.363397	0.071776
1056.529177	0.071072
1056.694939	0.073355
1056.860683	0.072409
1057.026409	0.070925
1057.192116	0.073406
1057.357806	0.073955
1057.523477	0.074997
1057.689130	0.077823
1057.854764	0.077583
1058.020381	0.078964
1058.185979	0.079417
1058.351559	0.079662
1058.517120	0.080482
1058.682664	0.078755
1058.848189	0.080520
1059.013696	0.078679
1059.179185	0.078582
1059.344656	0.079247
1059.510108	0.079076
1059.675542	0.079189
1059.840958	0.080718
1060.006356	0.080600
1060.171735	0.080370
1060.337096	0.081120
1060.502439	0.080946
1060.667764	0.079840
1060.833071	0.081075
1060.998359	0.082345
1061.163629	0.081880
1061.328881	0.082295
1061.494115	0.081230
1061.659330	0.080375
1061.824527	0.079189
1061.989706	0.080479
1062.154867	0.079126
1062.320010	0.078121
1062.485134	0.076737
1062.650240	0.076838
1062.815328	0.074937
1062.980398	0.076439
1063.145449	0.077344
1063.310482	0.075741
1063.475497	0.074928
1063.640494	0.074453
1063.805473	0.072540
1063.970433	0.071822
1064.135375	0.072251
1064.300299	0.072534
1064.465204	0.071775
1064.630092	0.074033
1064.794961	0.074650
1064.959812	0.075794
1065.124645	0.076982
1065.289459	0.078483
1065.454256	0.080201
1065.619034	0.079597
1065.783793	0.079222
1065.948535	0.080008
1066.113258	0.076730
1066.277964	0.076309
1066.442651	0.075394
1066.607319	0.074306
1066.771970	0.074142
1066.936602	0.074437
1067.101216	0.073882
1067.265812	0.073491
1067.430389	0.071292
1067.594949	0.074113
1067.759490	0.074439
1067.924013	0.075566
1068.088518	0.075143
1068.253004	0.073956
1068.417472	0.072104
1068.581922	0.072556
1068.746354	0.074453
1068.910768	0.076215
1069.075163	0.073698
1069.239540	0.072635
1069.403899	0.071569
1069.568240	0.074316
1069.732562	0.075538
1069.896866	0.075846
1070.061152	0.075810
1070.225420	0.074312
1070.389670	0.073506
1070.553901	0.075599
1070.718114	0.076544
1070.882309	0.078284
1071.046486	0.077056
1071.210644	0.077849
1071.374784	0.077205
1071.538906	0.077008
1071.703010	0.077504
1071.867096	0.076552
1072.031163	0.075204
1072.195212	0.077851
1072.359243	0.075662
1072.523256	0.077817
1072.687250	0.076533
1072.851226	0.078969
1073.015184	0.077677
1073.179124	0.078221
1073.343045	0.080561
1073.506949	0.082870
1073.670834	0.080627
1073.834701	0.079477
1073.998549	0.077907
1074.162380	0.078263
1074.326192	0.076930
1074.489986	0.078794
1074.653761	0.080205
1074.817519	0.080059
1074.981258	0.079173
1075.144979	0.081712
1075.308682	0.083260
1075.472367	0.082258
1075.636033	0.081154
1075.799681	0.079629
1075.963311	0.080022
1076.126923	0.078795
1076.290516	0.080031
1076.454092	0.076998
1076.617649	0.073830
1076.781187	0.073022
1076.944708	0.073697
1077.108210	0.076097
1077.271695	0.078346
1077.435160	0.076504
1077.598608	0.074723
1077.762038	0.074089
1077.925449	0.077713
1078.088842	0.078424
1078.252217	0.078417
1078.415573	0.078754
1078.578912	0.078204
1078.742232	0.077286
1078.905534	0.079491
1079.068817	0.081708
1079.232083	0.080859
1079.395330	0.079679
1079.558559	0.078664
1079.721770	0.079349
1079.884962	0.078695
1080.048136	0.078698
1080.211293	0.079153
1080.374430	0.078825
1080.537550	0.077357
1080.700651	0.077443
1080.863735	0.077130
1081.026800	0.077939
1081.189846	0.078111
1081.352875	0.080678
1081.515885	0.078715
1081.678877	0.079480
1081.841851	0.077527
1082.004807	0.077787
1082.167744	0.078750
1082.330663	0.076744
1082.493564	0.079520
1082.656447	0.078117
1082.819312	0.075933
1082.982158	0.075877
1083.144986	0.075479
1083.307796	0.076439
1083.470587	0.079750
1083.633361	0.076337
1083.796116	0.080662
1083.958853	0.079896
1084.121571	0.079413
1084.284272	0.080184
1084.446954	0.080052
1084.609618	0.077993
1084.772264	0.078416
1084.934892	0.077268
1085.097501	0.078867
1085.260092	0.075698
1085.422665	0.071425
1085.585220	0.073265
1085.747756	0.071929
1085.910274	0.072426
1086.072774	0.071194
1086.235256	0.070864
1086.397720	0.067752
1086.560165	0.068096
1086.722592	0.069503
1086.885001	0.071637
1087.047392	0.069054
1087.209764	0.071056
1087.372119	0.071139
1087.534455	0.072694
1087.696772	0.073870
1087.859072	0.076827
1088.021353	0.077545
1088.183616	0.076297
1088.345861	0.076925
1088.508088	0.078204
1088.670296	0.078749
1088.832486	0.077888
1088.994658	0.074524
1089.156812	0.069615
1089.318948	0.068363
1089.481065	0.067660
1089.643164	0.069259
1089.805245	0.068316
1089.967308	0.074202
1090.129352	0.071652
1090.291378	0.073623
1090.453386	0.078323
1090.615376	0.080636
1090.777347	0.081308
1090.939301	0.082580
1091.101236	0.083538
1091.263153	0.083769
1091.425051	0.080039
1091.586932	0.081933
1091.748794	0.082839
1091.910638	0.082984
1092.072463	0.085301
1092.234271	0.081826
1092.396060	0.081212
1092.557831	0.081330
1092.719584	0.083347
1092.881319	0.081925
1093.043035	0.081874
1093.204733	0.078722
1093.366413	0.079011
1093.528075	0.077448
1093.689718	0.080950
1093.851343	0.079782
1094.012950	0.076834
1094.174539	0.075768
1094.336110	0.076762
1094.497662	0.076115
1094.659196	0.079492
1094.820712	0.080549
1094.982210	0.081177
1095.143689	0.081652
1095.305151	0.082848
1095.466594	0.083841
1095.628018	0.081141
1095.789425	0.078162
1095.950813	0.076186
1096.112183	0.073840
1096.273535	0.070003
1096.434869	0.071286
1096.596184	0.068326
1096.757482	0.067530
1096.918761	0.067925
1097.080021	0.069634
1097.241264	0.072192
1097.402488	0.072551
1097.563694	0.072991
1097.724882	0.076292
1097.886052	0.074560
1098.047203	0.073566
1098.208336	0.076203
1098.369451	0.074932
1098.530548	0.074730
1098.691627	0.071971
1098.852687	0.073161
1099.013729	0.076702
1099.174753	0.075036
1099.335758	0.077164
1099.496746	0.082735
1099.657715	0.077321
1099.818666	0.078569
1099.979599	0.079021
1100.140513	0.085883
1100.301409	0.086049
1100.462287	0.085250
1100.623147	0.084808
1100.783989	0.082618
1100.944812	0.075262
1101.105617	0.078642
1101.266404	0.078738
1101.427173	0.080357
1101.587923	0.077023
1101.748656	0.078628
1101.909370	0.077788
1102.070066	0.077630
1102.230743	0.080746
1102.391403	0.087569
1102.552044	0.087216
1102.712667	0.084272
1102.873271	0.081971
1103.033858	0.079211
1103.194426	0.077948
1103.354976	0.078534
1103.515508	0.079793
1103.676021	0.076283
1103.836517	0.072684
1103.996994	0.070235
1104.157453	0.071834
1104.317893	0.073474
1104.478316	0.073468
1104.638720	0.073734
1104.799106	0.074411
1104.959474	0.074929
1105.119823	0.077482
1105.280155	0.080699
1105.440468	0.083687
1105.600763	0.080398
1105.761039	0.083882
1105.921298	0.083261
1106.081538	0.085760
1106.241760	0.084248
1106.401964	0.083595
1106.562149	0.082782
1106.722316	0.081611
1106.882465	0.080234
1107.042596	0.083312
1107.202709	0.077178
1107.362803	0.079176
1107.522879	0.077071
1107.682937	0.076635
1107.842977	0.075165
1108.002999	0.072940
1108.163002	0.070183
1108.322987	0.068894
1108.482954	0.071398
1108.642902	0.074118
1108.802833	0.071524
1108.962745	0.071536
1109.122639	0.069730
1109.282515	0.067852
1109.442372	0.071044
1109.602211	0.075578
1109.762032	0.075091
1109.921835	0.075152
1110.081620	0.074698
1110.241386	0.076531
1110.401134	0.077360
1110.560864	0.079034
1110.720576	0.079036
1110.880269	0.078800
1111.039945	0.076806
1111.199602	0.085016
1111.359240	0.080102
1111.518861	0.079813
1111.678463	0.080716
1111.838047	0.075968
1111.997613	0.074696
1112.157161	0.074358
1112.316690	0.073249
1112.476202	0.074338
1112.635695	0.071199
1112.795169	0.072392
1112.954626	0.074313
1113.114064	0.074077
1113.273484	0.079857
1113.432886	0.082427
1113.592270	0.085581
1113.751635	0.083619
1113.910983	0.082132
1114.070312	0.076575
1114.229622	0.079392
1114.388915	0.077885
1114.548189	0.077173
1114.707445	0.073322
1114.866683	0.072229
1115.025903	0.069189
1115.185104	0.070292
1115.344287	0.069629
1115.503452	0.073448
1115.662599	0.071913
1115.821727	0.070700
1115.980838	0.074761
1116.139930	0.073018
1116.299004	0.072145
1116.458059	0.073539
1116.617097	0.073655
1116.776116	0.072092
1116.935117	0.074145
1117.094099	0.073103
1117.253064	0.073402
1117.412010	0.071547
1117.570938	0.070960
1117.729848	0.070744
1117.888740	0.069995
1118.047613	0.074640
1118.206468	0.080923
1118.365305	0.077726
1118.524124	0.079794
1118.682924	0.079552
1118.841707	0.075485
1119.000471	0.073084
1119.159216	0.077078
1119.317944	0.080518
1119.476653	0.075587
1119.635344	0.071777
1119.794017	0.071221
1119.952672	0.068293
1120.111308	0.067644
1120.269927	0.070568
1120.428527	0.076824
1120.587108	0.072331
1120.745672	0.070599
1120.904217	0.071027
1121.062744	0.066460
1121.221253	0.068947
1121.379744	0.069298
1121.538216	0.071040
1121.696671	0.069331
1121.855107	0.068197
1122.013524	0.070377
1122.171924	0.071165
1122.330305	0.071149
1122.488668	0.079462
1122.647013	0.077169
1122.805340	0.078159
1122.963648	0.072438
1123.121938	0.076184
1123.280210	0.074843
1123.438464	0.074033
1123.596700	0.072683
1123.754917	0.075762
1123.913116	0.071720
1124.071297	0.076820
1124.229459	0.079736
1124.387604	0.087802
1124.545730	0.081987
1124.703838	0.083406
1124.861928	0.083255
1125.019999	0.082555
1125.178052	0.077940
1125.336088	0.076445
1125.494104	0.070722
1125.652103	0.066566
1125.810083	0.063146
1125.968045	0.071146
1126.125989	0.070248
1126.283915	0.073323
1126.441823	0.073251
1126.599712	0.075096
1126.757583	0.078837
1126.915436	0.087217
1127.073270	0.091046
1127.231087	0.093221
1127.388885	0.088017
1127.546665	0.086511
1127.704426	0.083223
1127.862170	0.085687
1128.019895	0.086102
1128.177602	0.082060
1128.335291	0.070744
1128.492961	0.071121
1128.650614	0.070906
1128.808248	0.070812
1128.965864	0.074883
1129.123461	0.076310
1129.281041	0.081092
1129.438602	0.080385
1129.596145	0.082421
1129.753670	0.082333
1129.911176	0.078652
1130.068665	0.079093
1130.226135	0.079723
1130.383587	0.075757
1130.541020	0.075317
1130.698436	0.068517
1130.855833	0.071339
1131.013212	0.072241
1131.170573	0.076661
1131.327915	0.078979
1131.485239	0.080916
1131.642545	0.079493
1131.799833	0.079109
1131.957103	0.078714
1132.114354	0.078592
1132.271588	0.081306
1132.428803	0.085478
1132.585999	0.090097
1132.743178	0.092683
1132.900338	0.089619
1133.057480	0.093270
1133.214604	0.095903
1133.371710	0.093873
1133.528797	0.095710
1133.685866	0.087414
1133.842917	0.083602
1133.999950	0.078104
1134.156964	0.075899
1134.313960	0.079468
1134.470938	0.083336
1134.627898	0.086652
1134.784840	0.090330
1134.941763	0.092478
1135.098668	0.095357
1135.255555	0.094926
1135.412424	0.091993
1135.569274	0.090494
1135.726107	0.085558
1135.882921	0.078944
1136.039716	0.081819
1136.196494	0.076632
1136.353253	0.078669
1136.509995	0.077754
1136.666717	0.077818
1136.823422	0.079608
1136.980109	0.077604
1137.136777	0.082200
1137.293427	0.083601
1137.450059	0.079028
1137.606672	0.086669
1137.763267	0.079270
1137.919844	0.077327
1138.076403	0.079151
1138.232944	0.080414
1138.389466	0.086429
1138.545971	0.086559
1138.702457	0.088963
1138.858924	0.084407
1139.015374	0.078727
1139.171805	0.086964
1139.328218	0.090115
1139.484613	0.079350
1139.640990	0.077606
1139.797348	0.072931
1139.953688	0.069023
1140.110010	0.067044
1140.266314	0.071240
1140.422600	0.070916
1140.578867	0.066694
1140.735116	0.066334
1140.891347	0.073937
1141.047559	0.076827
1141.203754	0.079046
1141.359930	0.079611
1141.516088	0.074666
1141.672228	0.074399
1141.828349	0.076444
1141.984452	0.077629
1142.140537	0.081361
1142.296604	0.085815
1142.452653	0.082534
1142.608683	0.082671
1142.764695	0.077752
1142.920689	0.078793
1143.076665	0.080748
1143.232622	0.079057
1143.388562	0.077437
1143.544483	0.072740
1143.700385	0.067987
1143.856270	0.072009
1144.012136	0.070421
1144.167985	0.073153
1144.323814	0.078231
1144.479626	0.075196
1144.635420	0.077822
1144.791195	0.075975
1144.946952	0.077838
1145.102691	0.079807
1145.258411	0.080217
1145.414113	0.075708
1145.569798	0.077931
1145.725463	0.070622
1145.881111	0.071224
1146.036741	0.072740
1146.192352	0.078389
1146.347945	0.081153
1146.503519	0.075977
1146.659076	0.071571
1146.814614	0.075005
1146.970134	0.081383
1147.125636	0.086806
1147.281120	0.085278
1147.436585	0.081818
1147.592032	0.082647
1147.747461	0.081273
1147.902872	0.086037
1148.058265	0.087207
1148.213639	0.090363
1148.368995	0.073393
1148.524333	0.068430
1148.679653	0.077824
1148.834954	0.083379
1148.990237	0.077316
1149.145502	0.074693
1149.300749	0.072727
1149.455977	0.076243
1149.611188	0.070883
1149.766380	0.078285
1149.921553	0.083651
1150.076709	0.068404
1150.231846	0.059432
1150.386966	0.072107
1150.542066	0.071608
1150.697149	0.074656
1150.852214	0.075758
1151.007260	0.089206
1151.162288	0.089800
1151.317298	0.087462
1151.472289	0.099314
1151.627263	0.112987
1151.782218	0.100147
1151.937155	0.104681
1152.092073	0.101514
1152.246974	0.102101
1152.401856	0.091180
1152.556720	0.089333
1152.711566	0.094447
1152.866393	0.091390
1153.021203	0.084375
1153.175994	0.085268
1153.330767	0.083031
1153.485521	0.084378
1153.640258	0.081943
1153.794976	0.081352
1153.949676	0.081865
1154.104358	0.076891
1154.259021	0.076926
1154.413667	0.068634
1154.568294	0.067112
1154.722903	0.072120
1154.877493	0.074643
1155.032066	0.077759
1155.186620	0.074887
1155.341156	0.083464
1155.495674	0.077981
1155.650173	0.079028
1155.804654	0.080324
1155.959118	0.081507
1156.113562	0.074091
1156.267989	0.068460
1156.422397	0.061783
1156.576788	0.068256
1156.731160	0.059680
1156.885513	0.063809
1157.039849	0.066673
1157.194166	0.073013
1157.348465	0.077807
1157.502746	0.078761
1157.657009	0.077756
1157.811253	0.080131
1157.965479	0.077378
1158.119687	0.077238
1158.273877	0.077979
1158.428048	0.076110
1158.582201	0.076182
1158.736337	0.068857
1158.890453	0.062553
1159.044552	0.067789
1159.198632	0.071297
1159.352694	0.068762
1159.506738	0.067850
1159.660764	0.068619
1159.814771	0.058529
1159.968761	0.057771
1160.122732	0.054700
1160.276685	0.062700
1160.430619	0.063707
1160.584535	0.057496
1160.738434	0.057654
1160.892313	0.067665
1161.046175	0.068862
1161.200019	0.070147
1161.353844	0.065129
1161.507651	0.072218
1161.661440	0.071060
1161.815210	0.066547
1161.968962	0.066574
1162.122697	0.071893
1162.276412	0.069744
1162.430110	0.068457
1162.583789	0.068009
1162.737451	0.077116
1162.891094	0.084387
1163.044718	0.086172
1163.198325	0.089205
1163.351913	0.085446
1163.505483	0.082816
1163.659035	0.076614
1163.812569	0.075669
1163.966084	0.081282
1164.119581	0.081491
1164.273060	0.077155
1164.426521	0.075287
1164.579964	0.068741
1164.733388	0.072689
1164.886794	0.075127
1165.040182	0.080043
1165.193551	0.076519
1165.346903	0.073652
1165.500236	0.065547
1165.653551	0.058793
1165.806848	0.065421
1165.960126	0.073443
1166.113386	0.075280
1166.266628	0.076991
1166.419852	0.078133
1166.573058	0.086566
1166.726245	0.091464
1166.879414	0.093605
1167.032565	0.088044
1167.185698	0.076839
1167.338812	0.074262
1167.491909	0.080602
1167.644987	0.066312
1167.798046	0.059952
1167.951088	0.060304
1168.104111	0.058532
1168.257117	0.055193
1168.410103	0.065395
1168.563072	0.068051
1168.716023	0.073189
1168.868955	0.064632
1169.021869	0.067680
1169.174765	0.056075
1169.327642	0.048830
1169.480501	0.047312
1169.633343	0.048148
1169.786165	0.051707
1169.938970	0.057754
1170.091757	0.037078
1170.244525	0.043146
1170.397275	0.051643
1170.550007	0.071661
1170.702720	0.071414
1170.855415	0.070876
1171.008092	0.062493
1171.160751	0.044894
1171.313392	0.029484
1171.466014	0.068353
1171.618619	-0.023893
1171.771205	-0.023893
1171.923772	-0.023893
