sample name	sample
index	492
start time	 03-11-2021  02:17:08 PM


Wavelength (nm)	Absorbance
494.344910	-0.017239
494.563924	-0.017239
494.782919	-0.017239
495.001897	-0.543030
495.220856	0.188552
495.439797	0.161401
495.658719	0.236755
495.877624	0.155174
496.096510	NaN
496.315378	NaN
496.534227	0.575470
496.753059	0.326127
496.971872	0.261653
497.190667	0.174432
497.409444	0.180415
497.628203	0.183202
497.846943	0.183235
498.065665	0.183861
498.284369	0.183168
498.503055	0.184115
498.721723	0.184904
498.940372	0.184875
499.159003	0.185425
499.377616	0.184860
499.596210	0.184426
499.814787	0.183849
500.033345	0.183153
500.251885	0.183772
500.470406	0.183527
500.688910	0.183146
500.907395	0.183025
501.125862	0.182426
501.344311	0.183389
501.562742	0.182945
501.781154	0.184278
501.999548	0.184624
502.217924	0.184975
502.436282	0.185262
502.654621	0.186638
502.872942	0.186356
503.091245	0.187313
503.309530	0.187980
503.527797	0.188828
503.746045	0.189759
503.964275	0.189941
504.182487	0.189912
504.400681	0.189295
504.618856	0.188781
504.837013	0.189240
505.055152	0.188867
505.273273	0.189157
505.491376	0.188889
505.709460	0.187974
505.927526	0.187536
506.145574	0.187297
506.363604	0.187338
506.581615	0.188603
506.799608	0.188677
507.017583	0.189001
507.235540	0.188885
507.453478	0.188572
507.671399	0.188919
507.889301	0.188895
508.107185	0.189568
508.325050	0.190694
508.542898	0.189618
508.760727	0.189596
508.978538	0.189684
509.196330	0.189338
509.414105	0.189575
509.631861	0.190123
509.849599	0.191120
510.067319	0.190975
510.285021	0.191083
510.502704	0.191642
510.720369	0.191474
510.938016	0.190827
511.155645	0.190690
511.373255	0.192124
511.590848	0.192203
511.808422	0.192556
512.025977	0.192080
512.243515	0.192519
512.461034	0.192609
512.678536	0.193141
512.896018	0.194728
513.113483	0.196559
513.330930	0.195415
513.548358	0.195397
513.765768	0.195608
513.983160	0.196822
514.200533	0.197345
514.417889	0.196671
514.635226	0.197371
514.852545	0.196598
515.069845	0.195968
515.287128	0.196841
515.504392	0.197013
515.721638	0.196749
515.938866	0.195818
516.156075	0.195682
516.373267	0.196640
516.590440	0.197165
516.807594	0.197213
517.024731	0.197171
517.241850	0.197874
517.458950	0.198117
517.676032	0.198271
517.893095	0.199693
518.110141	0.199184
518.327168	0.199618
518.544177	0.199555
518.761168	0.200225
518.978141	0.200120
519.195095	0.200239
519.412031	0.200705
519.628949	0.200705
519.845849	0.200960
520.062731	0.201712
520.279594	0.200857
520.496439	0.200689
520.713266	0.200532
520.930074	0.201362
521.146865	0.201804
521.363637	0.202565
521.580391	0.203692
521.797127	0.203570
522.013844	0.203773
522.230543	0.205158
522.447224	0.205514
522.663887	0.206778
522.880532	0.206356
523.097158	0.205862
523.313766	0.205944
523.530356	0.206229
523.746928	0.206033
523.963481	0.206089
524.180017	0.205817
524.396534	0.206624
524.613032	0.205340
524.829513	0.205660
525.045975	0.205721
525.262420	0.205227
525.478845	0.205488
525.695253	0.205513
525.911643	0.205630
526.128014	0.205785
526.344367	0.205731
526.560702	0.206643
526.777018	0.206801
526.993316	0.207155
527.209597	0.207303
527.425858	0.207082
527.642102	0.208050
527.858328	0.208531
528.074535	0.208993
528.290724	0.208896
528.506894	0.209898
528.723047	0.210836
528.939181	0.210833
529.155297	0.211592
529.371395	0.212828
529.587475	0.212605
529.803536	0.212595
530.019579	0.213270
530.235604	0.213497
530.451611	0.213306
530.667600	0.213052
530.883570	0.214271
531.099522	0.214404
531.315456	0.214050
531.531372	0.215033
531.747269	0.216029
531.963148	0.216501
532.179009	0.217413
532.394852	0.217808
532.610676	0.219095
532.826482	0.219657
533.042271	0.220255
533.258040	0.220996
533.473792	0.221000
533.689525	0.220840
533.905240	0.220832
534.120937	0.221083
534.336616	0.221032
534.552277	0.220953
534.767919	0.220643
534.983543	0.220360
535.199149	0.221287
535.414736	0.221689
535.630306	0.222309
535.845857	0.222295
536.061390	0.222441
536.276904	0.223309
536.492401	0.223442
536.707879	0.224065
536.923339	0.224747
537.138781	0.223943
537.354204	0.224244
537.569610	0.224405
537.784997	0.225093
538.000366	0.225415
538.215716	0.225955
538.431049	0.226173
538.646363	0.226525
538.861659	0.227326
539.076937	0.227768
539.292196	0.227991
539.507438	0.228004
539.722661	0.228150
539.937866	0.228191
540.153052	0.228548
540.368221	0.228957
540.583371	0.229693
540.798503	0.229673
541.013617	0.230284
541.228712	0.230638
541.443789	0.231247
541.658848	0.231189
541.873889	0.231623
542.088912	0.232023
542.303916	0.232188
542.518902	0.231208
542.733870	0.230838
542.948820	0.230574
543.163752	0.231143
543.378665	0.231508
543.593560	0.232051
543.808437	0.232469
544.023295	0.232325
544.238136	0.232507
544.452958	0.233306
544.667762	0.234124
544.882548	0.234588
545.097315	0.234528
545.312064	0.235137
545.526795	0.235423
545.741508	0.236076
545.956203	0.236517
546.170879	0.236767
546.385537	0.237254
546.600177	0.237280
546.814799	0.237921
547.029402	0.238103
547.243988	0.237908
547.458555	0.238361
547.673103	0.238640
547.887634	0.238466
548.102146	0.238783
548.316640	0.239229
548.531116	0.239753
548.745574	0.240257
548.960013	0.240373
549.174435	0.240536
549.388838	0.240751
549.603222	0.240986
549.817589	0.241188
550.031937	0.241720
550.246267	0.241690
550.460579	0.241963
550.674873	0.241502
550.889148	0.241732
551.103405	0.242226
551.317644	0.242102
551.531865	0.241879
551.746068	0.242090
551.960252	0.242416
552.174418	0.242567
552.388566	0.242990
552.602696	0.243607
552.816807	0.243999
553.030900	0.244266
553.244975	0.244773
553.459032	0.245001
553.673070	0.245369
553.887091	0.245585
554.101093	0.245992
554.315077	0.246414
554.529042	0.246693
554.742990	0.246985
554.956919	0.246786
555.170830	0.246871
555.384722	0.247172
555.598597	0.247874
555.812453	0.248099
556.026291	0.248923
556.240111	0.248775
556.453913	0.248420
556.667696	0.248820
556.881461	0.249374
557.095208	0.250204
557.308937	0.250747
557.522647	0.250961
557.736339	0.251112
557.950013	0.250574
558.163669	0.250496
558.377307	0.251198
558.590926	0.251373
558.804527	0.252029
559.018110	0.251933
559.231675	0.251759
559.445221	0.251759
559.658749	0.251627
559.872259	0.252241
560.085751	0.252781
560.299225	0.252890
560.512680	0.253279
560.726117	0.253076
560.939536	0.253173
561.152937	0.253400
561.366319	0.253261
561.579683	0.253610
561.793029	0.253372
562.006357	0.253455
562.219667	0.253665
562.432958	0.253265
562.646231	0.253527
562.859486	0.253611
563.072723	0.254324
563.285941	0.254880
563.499141	0.255150
563.712323	0.255912
563.925487	0.256284
564.138632	0.256312
564.351760	0.257264
564.564869	0.257816
564.777960	0.258628
564.991032	0.258317
565.204087	0.258762
565.417123	0.259421
565.630141	0.259231
565.843140	0.259596
566.056122	0.259857
566.269085	0.259912
566.482030	0.260006
566.694957	0.259730
566.907866	0.260072
567.120756	0.259717
567.333628	0.260127
567.546482	0.260441
567.759318	0.260287
567.972135	0.260657
568.184935	0.260712
568.397716	0.260799
568.610478	0.261226
568.823223	0.261798
569.035949	0.262568
569.248657	0.262181
569.461347	0.262024
569.674019	0.262321
569.886672	0.262519
570.099308	0.263215
570.311925	0.263305
570.524523	0.263051
570.737104	0.262843
570.949666	0.262946
571.162210	0.263221
571.374736	0.263682
571.587244	0.264090
571.799733	0.264765
572.012205	0.264208
572.224658	0.264321
572.437092	0.264872
572.649509	0.265298
572.861907	0.265150
573.074287	0.265032
573.286649	0.264853
573.498993	0.264947
573.711318	0.264631
573.923625	0.265080
574.135914	0.265497
574.348185	0.266066
574.560438	0.265944
574.772672	0.266465
574.984888	0.266975
575.197086	0.267862
575.409266	0.268302
575.621427	0.268457
575.833570	0.268473
576.045695	0.268404
576.257802	0.268411
576.469890	0.268598
576.681961	0.268447
576.894013	0.268671
577.106046	0.268746
577.318062	0.268375
577.530059	0.268362
577.742039	0.269034
577.954000	0.269121
578.165942	0.269355
578.377867	0.269994
578.589773	0.270848
578.801661	0.271196
579.013531	0.271296
579.225382	0.271676
579.437216	0.272383
579.649031	0.272404
579.860828	0.273097
580.072606	0.272909
580.284367	0.273790
580.496109	0.273718
580.707833	0.273565
580.919539	0.273757
581.131227	0.274180
581.342896	0.274317
581.554547	0.274485
581.766180	0.274413
581.977795	0.274903
582.189391	0.274194
582.400969	0.274432
582.612529	0.274953
582.824071	0.275006
583.035595	0.275610
583.247100	0.275151
583.458587	0.275211
583.670056	0.275367
583.881506	0.275415
584.092939	0.275392
584.304353	0.275924
584.515749	0.276374
584.727127	0.276860
584.938486	0.276642
585.149828	0.277594
585.361151	0.277889
585.572456	0.278121
585.783742	0.278259
585.995011	0.278756
586.206261	0.278107
586.417493	0.277920
586.628706	0.277570
586.839902	0.277992
587.051079	0.277771
587.262238	0.278109
587.473379	0.278404
587.684502	0.278741
587.895606	0.279312
588.106692	0.280242
588.317760	0.280663
588.528810	0.281611
588.739841	0.281524
588.950855	0.281864
589.161850	0.282245
589.372827	0.282514
589.583785	0.282761
589.794726	0.282857
590.005648	0.282715
590.216552	0.282771
590.427437	0.283073
590.638305	0.283155
590.849154	0.283482
591.059985	0.283801
591.270798	0.283769
591.481592	0.284001
591.692369	0.283859
591.903127	0.283901
592.113867	0.283941
592.324588	0.283349
592.535292	0.283694
592.745977	0.283830
592.956644	0.283329
593.167293	0.283817
593.377923	0.283865
593.588536	0.284227
593.799130	0.284853
594.009706	0.285320
594.220263	0.285788
594.430803	0.285787
594.641324	0.286012
594.851827	0.286634
595.062312	0.286914
595.272778	0.287446
595.483227	0.287627
595.693657	0.287446
595.904069	0.287461
596.114462	0.287870
596.324838	0.288401
596.535195	0.288811
596.745534	0.289133
596.955855	0.288964
597.166157	0.288917
597.376441	0.289360
597.586707	0.289603
597.796955	0.289913
598.007185	0.289890
598.217396	0.290014
598.427589	0.289978
598.637764	0.289911
598.847921	0.290306
599.058060	0.290495
599.268180	0.290659
599.478282	0.291104
599.688366	0.291311
599.898431	0.291623
600.108479	0.291984
600.318508	0.292215
600.528519	0.292557
600.738511	0.292932
600.948486	0.292922
601.158442	0.292993
601.368380	0.292684
601.578300	0.292793
601.788202	0.293384
601.998085	0.293670
602.207950	0.293900
602.417797	0.294125
602.627626	0.294085
602.837436	0.294277
603.047228	0.294366
603.257002	0.294908
603.466758	0.295013
603.676496	0.295069
603.886215	0.295058
604.095916	0.295329
604.305599	0.295429
604.515264	0.295592
604.724910	0.295812
604.934538	0.296152
605.144148	0.296481
605.353740	0.296989
605.563314	0.296863
605.772869	0.297023
605.982406	0.297153
606.191925	0.297282
606.401425	0.297657
606.610908	0.297969
606.820372	0.298180
607.029818	0.298159
607.239246	0.298335
607.448655	0.298765
607.658047	0.298980
607.867420	0.299182
608.076775	0.299544
608.286111	0.299445
608.495430	0.299398
608.704730	0.299284
608.914012	0.299200
609.123275	0.299089
609.332521	0.299171
609.541748	0.299318
609.750957	0.299321
609.960148	0.299409
610.169321	0.299737
610.378475	0.299957
610.587611	0.299735
610.796729	0.300080
611.005829	0.300321
611.214910	0.300174
611.423974	0.300158
611.633019	0.300494
611.842045	0.300311
612.051054	0.300191
612.260044	0.300440
612.469017	0.301108
612.677970	0.301174
612.886906	0.301277
613.095824	0.301546
613.304723	0.301451
613.513604	0.301560
613.722467	0.301994
613.931311	0.302610
614.140138	0.302608
614.348946	0.302757
614.557736	0.302831
614.766507	0.302863
614.975261	0.302988
615.183996	0.303501
615.392713	0.303537
615.601412	0.303752
615.810092	0.304151
616.018754	0.304722
616.227399	0.304778
616.436024	0.305218
616.644632	0.305484
616.853222	0.305930
617.061793	0.306146
617.270346	0.306330
617.478880	0.306384
617.687397	0.306097
617.895895	0.306020
618.104375	0.306264
618.312837	0.306395
618.521281	0.306753
618.729706	0.306963
618.938113	0.307344
619.146502	0.307627
619.354873	0.307660
619.563226	0.307864
619.771560	0.308287
619.979876	0.308503
620.188174	0.308796
620.396453	0.308948
620.604715	0.309007
620.812958	0.309011
621.021183	0.309285
621.229390	0.309655
621.437578	0.309716
621.645748	0.309637
621.853900	0.309697
622.062034	0.309697
622.270150	0.309657
622.478247	0.309767
622.686326	0.309873
622.894387	0.309834
623.102430	0.310128
623.310454	0.310089
623.518461	0.310416
623.726449	0.310773
623.934418	0.311063
624.142370	0.311250
624.350303	0.311325
624.558218	0.311499
624.766115	0.311203
624.973994	0.311221
625.181855	0.311993
625.389697	0.312310
625.597521	0.312326
625.805327	0.312804
626.013114	0.313108
626.220883	0.313404
626.428634	0.313491
626.636367	0.313994
626.844082	0.314150
627.051778	0.314158
627.259457	0.314083
627.467117	0.314556
627.674758	0.314563
627.882382	0.314747
628.089987	0.315118
628.297574	0.315606
628.505143	0.316152
628.712694	0.316495
628.920226	0.316558
629.127740	0.317011
629.335236	0.316835
629.542714	0.316944
629.750174	0.317262
629.957615	0.317185
630.165038	0.317287
630.372443	0.317130
630.579829	0.317430
630.787198	0.317693
630.994548	0.317784
631.201880	0.317845
631.409194	0.317788
631.616489	0.318053
631.823766	0.318478
632.031025	0.318616
632.238266	0.319138
632.445489	0.319347
632.652693	0.319338
632.859879	0.319520
633.067047	0.319981
633.274197	0.320383
633.481329	0.320722
633.688442	0.320836
633.895537	0.321052
634.102614	0.320886
634.309672	0.320884
634.516713	0.321306
634.723735	0.321192
634.930739	0.321725
635.137724	0.321900
635.344692	0.321739
635.551641	0.322014
635.758572	0.322175
635.965485	0.322355
636.172379	0.322662
636.379256	0.322697
636.586114	0.323171
636.792954	0.323110
636.999775	0.322871
637.206579	0.323136
637.413364	0.323131
637.620131	0.323345
637.826880	0.323911
638.033610	0.324045
638.240323	0.324334
638.447017	0.324295
638.653692	0.324457
638.860350	0.324991
639.066990	0.325127
639.273611	0.325316
639.480214	0.325412
639.686798	0.325298
639.893365	0.325567
640.099913	0.325630
640.306443	0.325940
640.512955	0.326315
640.719449	0.326450
640.925924	0.326754
641.132381	0.326794
641.338820	0.326802
641.545241	0.327112
641.751644	0.327225
641.958028	0.327616
642.164394	0.327822
642.370742	0.327990
642.577071	0.328319
642.783383	0.328588
642.989676	0.328804
643.195951	0.329106
643.402207	0.329066
643.608446	0.329033
643.814666	0.328908
644.020868	0.329100
644.227052	0.329256
644.433218	0.329299
644.639365	0.329315
644.845494	0.329791
645.051605	0.330015
645.257698	0.330298
645.463772	0.330592
645.669828	0.331138
645.875866	0.331368
646.081886	0.331515
646.287888	0.331832
646.493871	0.332079
646.699836	0.332004
646.905783	0.332066
647.111712	0.332359
647.317622	0.332420
647.523514	0.332563
647.729388	0.332957
647.935244	0.332983
648.141082	0.333551
648.346901	0.333609
648.552702	0.333693
648.758485	0.334074
648.964250	0.334198
649.169996	0.334716
649.375724	0.334743
649.581434	0.334395
649.787126	0.334699
649.992800	0.334574
650.198455	0.334834
650.404092	0.335298
650.609711	0.335328
650.815311	0.335836
651.020894	0.336025
651.226458	0.336158
651.432004	0.336925
651.637532	0.337111
651.843041	0.337509
652.048532	0.337637
652.254006	0.337808
652.459460	0.338221
652.664897	0.338122
652.870315	0.338316
653.075716	0.338565
653.281097	0.338412
653.486461	0.338635
653.691807	0.338577
653.897134	0.339064
654.102443	0.339293
654.307734	0.339318
654.513006	0.339637
654.718261	0.339955
654.923497	0.340485
655.128715	0.340975
655.333915	0.341430
655.539096	0.341675
655.744259	0.341678
655.949404	0.342120
656.154531	0.342437
656.359640	0.342973
656.564730	0.343105
656.769802	0.343212
656.974856	0.343370
657.179892	0.343425
657.384909	0.343817
657.589908	0.344190
657.794889	0.344314
657.999852	0.344754
658.204797	0.344940
658.409723	0.345351
658.614631	0.345621
658.819521	0.345838
659.024393	0.345788
659.229246	0.346041
659.434081	0.346308
659.638898	0.346478
659.843697	0.346559
660.048478	0.346640
660.253240	0.346381
660.457984	0.346548
660.662710	0.346615
660.867417	0.346912
661.072107	0.347108
661.276778	0.346795
661.481431	0.347036
661.686066	0.347006
661.890682	0.347128
662.095281	0.347644
662.299861	0.347954
662.504422	0.348506
662.708966	0.348850
662.913491	0.349016
663.117999	0.349511
663.322488	0.349879
663.526958	0.350348
663.731411	0.350867
663.935845	0.351204
664.140261	0.351494
664.344659	0.351610
664.549038	0.351747
664.753400	0.351649
664.957743	0.351997
665.162068	0.352246
665.366375	0.352685
665.570663	0.352759
665.774933	0.352628
665.979185	0.352440
666.183419	0.352304
666.387635	0.352496
666.591832	0.352919
666.796011	0.352988
667.000172	0.352854
667.204315	0.352810
667.408439	0.352899
667.612545	0.353350
667.816634	0.353771
668.020703	0.354409
668.224755	0.354617
668.428788	0.354965
668.632803	0.355377
668.836800	0.355663
669.040779	0.356192
669.244739	0.356371
669.448681	0.356601
669.652605	0.356757
669.856511	0.356830
670.060399	0.357153
670.264268	0.357315
670.468119	0.357509
670.671952	0.357822
670.875767	0.357893
671.079563	0.358139
671.283341	0.358392
671.487101	0.358763
671.690843	0.358992
671.894567	0.359164
672.098272	0.359347
672.301959	0.359457
672.505628	0.359298
672.709278	0.359743
672.912911	0.360098
673.116525	0.360197
673.320121	0.360330
673.523699	0.360439
673.727258	0.360578
673.930799	0.360904
674.134322	0.361333
674.337827	0.362206
674.541314	0.362113
674.744782	0.362505
674.948232	0.362707
675.151664	0.363034
675.355078	0.363354
675.558474	0.363817
675.761851	0.364223
675.965210	0.364112
676.168551	0.363991
676.371873	0.364318
676.575178	0.364578
676.778464	0.364993
676.981732	0.365031
677.184981	0.365314
677.388213	0.365406
677.591426	0.365382
677.794621	0.365963
677.997798	0.366286
678.200956	0.366719
678.404097	0.366845
678.607219	0.367055
678.810323	0.367327
679.013408	0.367659
679.216476	0.368000
679.419525	0.368445
679.622556	0.368746
679.825569	0.369152
680.028563	0.369283
680.231540	0.369617
680.434498	0.369806
680.637438	0.370419
680.840359	0.370524
681.043263	0.370873
681.246148	0.370908
681.449015	0.371085
681.651864	0.371373
681.854694	0.371385
682.057506	0.371394
682.260301	0.371833
682.463076	0.371789
682.665834	0.372164
682.868573	0.372361
683.071295	0.372643
683.273998	0.372824
683.476682	0.372884
683.679349	0.373064
683.881997	0.373407
684.084627	0.373484
684.287239	0.373701
684.489833	0.373868
684.692408	0.373910
684.894965	0.374251
685.097504	0.374483
685.300025	0.374583
685.502527	0.374930
685.705012	0.374970
685.907478	0.375062
686.109925	0.375406
686.312355	0.375584
686.514766	0.376050
686.717159	0.376148
686.919534	0.376450
687.121891	0.376897
687.324230	0.377273
687.526550	0.377516
687.728852	0.377714
687.931136	0.377755
688.133401	0.378170
688.335649	0.378386
688.537878	0.378633
688.740089	0.378942
688.942281	0.378971
689.144456	0.378824
689.346612	0.378895
689.548750	0.379049
689.750870	0.379375
689.952971	0.379357
690.155055	0.379468
690.357120	0.379635
690.559167	0.379787
690.761195	0.380161
690.963206	0.380770
691.165198	0.381131
691.367172	0.381577
691.569128	0.381629
691.771065	0.381937
691.972984	0.381979
692.174885	0.382258
692.376768	0.382381
692.578633	0.382375
692.780479	0.382343
692.982308	0.382712
693.184118	0.382798
693.385909	0.382966
693.587683	0.383004
693.789438	0.383074
693.991175	0.383188
694.192894	0.383190
694.394595	0.383529
694.596277	0.383685
694.797941	0.383702
694.999587	0.383643
695.201215	0.383985
695.402824	0.384141
695.604416	0.384844
695.805989	0.384886
696.007543	0.384885
696.209080	0.384980
696.410598	0.384921
696.612099	0.385081
696.813580	0.385503
697.015044	0.385718
697.216490	0.386029
697.417917	0.385906
697.619326	0.386252
697.820717	0.386701
698.022089	0.386715
698.223444	0.387316
698.424780	0.387397
698.626098	0.387680
698.827397	0.387835
699.028679	0.387985
699.229942	0.388242
699.431187	0.388176
699.632414	0.388408
699.833622	0.388646
700.034813	0.388635
700.235985	0.388768
700.437139	0.388844
700.638274	0.388769
700.839392	0.389003
701.040491	0.389049
701.241572	0.389497
701.442635	0.389612
701.643679	0.389987
701.844706	0.390414
702.045714	0.390580
702.246704	0.390447
702.447675	0.390598
702.648629	0.390732
702.849564	0.390832
703.050481	0.390694
703.251380	0.390933
703.452260	0.390953
703.653122	0.390674
703.853966	0.390675
704.054792	0.391096
704.255600	0.391300
704.456389	0.391183
704.657160	0.391500
704.857913	0.391474
705.058648	0.391270
705.259365	0.391239
705.460063	0.391245
705.660743	0.391469
705.861405	0.391594
706.062048	0.391878
706.262674	0.391867
706.463281	0.391927
706.663870	0.392098
706.864441	0.392369
707.064993	0.392806
707.265527	0.393019
707.466043	0.393155
707.666541	0.392970
707.867021	0.393009
708.067482	0.393337
708.267925	0.393099
708.468350	0.393094
708.668757	0.392922
708.869145	0.392813
709.069516	0.392908
709.269868	0.392850
709.470201	0.392952
709.670517	0.393007
709.870814	0.393117
710.071093	0.393053
710.271354	0.393111
710.471597	0.393095
710.671821	0.392903
710.872028	0.392850
711.072216	0.393129
711.272385	0.392997
711.472537	0.392642
711.672670	0.392311
711.872785	0.392505
712.072882	0.392753
712.272961	0.393015
712.473021	0.393203
712.673063	0.393159
712.873087	0.392603
713.073093	0.392781
713.273081	0.392785
713.473050	0.392784
713.673001	0.392556
713.872934	0.392458
714.072849	0.392398
714.272745	0.392182
714.472623	0.392202
714.672483	0.392631
714.872325	0.392754
715.072148	0.392949
715.271954	0.393009
715.471741	0.393366
715.671509	0.393368
715.871260	0.393250
716.070992	0.393274
716.270707	0.393528
716.470403	0.393424
716.670080	0.393068
716.869740	0.392990
717.069381	0.393140
717.269004	0.393053
717.468609	0.392913
717.668195	0.392856
717.867764	0.392714
718.067314	0.392184
718.266846	0.391981
718.466360	0.392121
718.665855	0.392170
718.865332	0.391869
719.064791	0.391541
719.264232	0.391443
719.463655	0.391429
719.663059	0.391529
719.862445	0.391900
720.061813	0.391983
720.261163	0.391746
720.460494	0.391713
720.659807	0.391767
720.859102	0.391740
721.058379	0.391914
721.257638	0.391875
721.456878	0.391873
721.656100	0.391678
721.855304	0.391442
722.054490	0.391671
722.253657	0.391555
722.452806	0.391510
722.651937	0.391577
722.851050	0.391632
723.050145	0.391592
723.249221	0.391649
723.448279	0.391590
723.647319	0.391734
723.846340	0.391280
724.045344	0.391145
724.244329	0.391023
724.443296	0.391036
724.642245	0.390738
724.841175	0.390693
725.040088	0.390237
725.238982	0.390090
725.437857	0.389947
725.636715	0.390136
725.835554	0.389992
726.034376	0.390051
726.233179	0.389944
726.431963	0.390026
726.630730	0.389943
726.829478	0.390319
727.028208	0.390239
727.226920	0.390162
727.425614	0.390057
727.624289	0.390013
727.822946	0.389873
728.021585	0.389694
728.220206	0.389235
728.418808	0.389100
728.617392	0.388634
728.815958	0.388459
729.014506	0.388488
729.213036	0.388184
729.411547	0.388285
729.610040	0.387984
729.808515	0.387830
730.006972	0.388070
730.205410	0.387822
730.403831	0.387697
730.602233	0.387554
730.800616	0.387397
730.998982	0.387322
731.197329	0.386819
731.395658	0.386740
731.593969	0.386707
731.792262	0.386036
731.990536	0.385988
732.188793	0.385969
732.387031	0.385838
732.585250	0.385492
732.783452	0.385018
732.981635	0.384946
733.179800	0.384766
733.377947	0.384452
733.576076	0.384506
733.774186	0.384212
733.972278	0.383812
734.170352	0.383663
734.368408	0.383673
734.566446	0.383650
734.764465	0.383448
734.962466	0.383581
735.160449	0.383642
735.358413	0.383630
735.556360	0.383184
735.754288	0.383040
735.952198	0.382809
736.150090	0.382366
736.347963	0.382297
736.545818	0.382381
736.743655	0.381938
736.941474	0.381604
737.139275	0.381191
737.337057	0.381441
737.534821	0.381454
737.732567	0.381478
737.930295	0.381042
738.128005	0.380833
738.325696	0.380350
738.523369	0.380214
738.721024	0.380060
738.918660	0.380079
739.116279	0.379767
739.313879	0.379277
739.511461	0.378842
739.709024	0.378844
739.906570	0.378795
740.104097	0.378720
740.301606	0.378643
740.499097	0.378254
740.696569	0.377841
740.894024	0.377759
741.091460	0.377763
741.288878	0.377603
741.486277	0.377533
741.683659	0.377289
741.881022	0.377024
742.078367	0.376563
742.275694	0.376542
742.473002	0.376630
742.670293	0.376239
742.867565	0.375848
743.064819	0.375946
743.262054	0.375755
743.459272	0.375484
743.656471	0.374951
743.853652	0.374560
744.050815	0.374382
744.247959	0.373811
744.445085	0.373481
744.642194	0.373321
744.839283	0.372587
745.036355	0.372360
745.233408	0.372181
745.430444	0.372226
745.627461	0.372374
745.824459	0.372191
746.021440	0.372198
746.218402	0.372068
746.415346	0.372107
746.612272	0.372448
746.809180	0.372276
747.006069	0.372094
747.202940	0.372052
747.399793	0.371421
747.596628	0.370974
747.793444	0.370595
747.990243	0.370388
748.187023	0.370088
748.383784	0.369698
748.580528	0.369377
748.777253	0.369423
748.973960	0.369113
749.170649	0.369220
749.367320	0.368971
749.563973	0.368944
749.760607	0.369023
749.957223	0.368888
750.153821	0.368339
750.350400	0.368451
750.546962	0.368134
750.743505	0.368042
750.940030	0.367734
751.136536	0.367884
751.333025	0.367841
751.529495	0.367234
751.725947	0.366951
751.922381	0.367038
752.118796	0.366684
752.315194	0.366299
752.511573	0.366067
752.707934	0.365912
752.904276	0.365453
753.100601	0.365062
753.296907	0.365004
753.493195	0.364656
753.689465	0.364398
753.885716	0.364054
754.081949	0.364333
754.278164	0.363980
754.474361	0.363846
754.670540	0.363781
754.866700	0.363509
755.062843	0.363425
755.258967	0.363485
755.455072	0.363373
755.651160	0.363241
755.847229	0.362596
756.043280	0.362717
756.239313	0.362501
756.435328	0.362201
756.631324	0.361950
756.827302	0.361699
757.023262	0.361518
757.219204	0.361077
757.415127	0.361119
757.611033	0.360871
757.806920	0.360519
758.002788	0.360311
758.198639	0.360336
758.394471	0.360239
758.590286	0.360106
758.786081	0.359936
758.981859	0.359822
759.177619	0.359585
759.373360	0.359732
759.569083	0.359223
759.764788	0.359394
759.960474	0.358812
760.156143	0.358355
760.351793	0.358104
760.547425	0.357675
760.743038	0.357553
760.938634	0.357208
761.134211	0.356797
761.329770	0.357096
761.525311	0.356360
761.720833	0.356341
761.916338	0.356397
762.111824	0.356272
762.307292	0.356181
762.502741	0.356132
762.698173	0.356232
762.893586	0.356158
763.088981	0.355719
763.284358	0.355720
763.479716	0.355522
763.675057	0.355324
763.870379	0.355082
764.065683	0.354990
764.260968	0.354847
764.456236	0.354331
764.651485	0.354217
764.846716	0.353947
765.041929	0.353856
765.237123	0.353786
765.432299	0.353658
765.627457	0.353695
765.822597	0.353626
766.017719	0.353217
766.212822	0.353396
766.407907	0.353137
766.602974	0.353046
766.798023	0.352942
766.993054	0.352627
767.188066	0.352723
767.383060	0.352779
767.578036	0.352539
767.772993	0.352677
767.967933	0.352272
768.162854	0.352367
768.357757	0.352450
768.552642	0.352349
768.747508	0.352393
768.942356	0.352212
769.137186	0.351838
769.331998	0.351857
769.526792	0.351695
769.721567	0.351686
769.916324	0.351524
770.111063	0.351591
770.305784	0.351463
770.500486	0.351339
770.695171	0.351215
770.889837	0.351148
771.084484	0.350970
771.279114	0.350751
771.473725	0.350604
771.668318	0.350408
771.862893	0.350039
772.057450	0.349886
772.251988	0.349700
772.446509	0.349470
772.641011	0.349599
772.835494	0.349506
773.029960	0.349458
773.224407	0.349363
773.418836	0.349295
773.613247	0.349473
773.807640	0.349363
774.002014	0.349422
774.196370	0.349641
774.390708	0.349485
774.585028	0.349355
774.779330	0.349490
774.973613	0.349427
775.167878	0.349262
775.362125	0.349006
775.556354	0.348977
775.750564	0.349311
775.944756	0.349145
776.138930	0.348670
776.333086	0.348702
776.527223	0.348512
776.721343	0.348403
776.915444	0.348549
777.109526	0.348386
777.303591	0.348352
777.497637	0.347926
777.691666	0.347798
777.885676	0.347931
778.079667	0.347787
778.273641	0.347751
778.467596	0.347745
778.661533	0.347309
778.855452	0.347332
779.049352	0.347149
779.243235	0.346847
779.437099	0.346838
779.630945	0.346807
779.824773	0.346804
780.018582	0.346715
780.212373	0.346546
780.406146	0.346774
780.599901	0.346798
780.793638	0.347084
780.987356	0.347320
781.181056	0.347201
781.374738	0.347226
781.568402	0.347019
781.762047	0.347093
781.955674	0.347195
782.149283	0.347092
782.342874	0.346929
782.536447	0.346766
782.730001	0.346690
782.923537	0.346458
783.117055	0.346592
783.310555	0.346515
783.504036	0.346349
783.697499	0.346460
783.890944	0.346460
784.084371	0.346404
784.277780	0.346484
784.471170	0.346542
784.664542	0.346571
784.857896	0.346465
785.051231	0.346802
785.244549	0.346991
785.437848	0.347076
785.631129	0.347148
785.824392	0.347403
786.017636	0.347252
786.210863	0.347302
786.404071	0.347546
786.597260	0.347502
786.790432	0.347332
786.983585	0.347169
787.176721	0.347052
787.369838	0.347177
787.562936	0.347165
787.756017	0.347317
787.949079	0.347279
788.142123	0.347342
788.335149	0.347484
788.528156	0.347573
788.721146	0.347930
788.914117	0.347941
789.107070	0.347858
789.300005	0.347959
789.492921	0.348040
789.685819	0.348301
789.878699	0.348036
790.071561	0.348224
790.264405	0.348097
790.457230	0.347900
790.650037	0.347887
790.842826	0.347911
791.035597	0.347918
791.228349	0.347911
791.421084	0.347718
791.613800	0.348356
791.806497	0.348067
791.999177	0.348259
792.191838	0.348291
792.384481	0.348636
792.577106	0.348477
792.769713	0.348661
792.962301	0.348800
793.154871	0.348939
793.347423	0.348870
793.539957	0.349150
793.732473	0.349311
793.924970	0.349731
794.117449	0.349860
794.309910	0.350404
794.502353	0.350545
794.694777	0.350635
794.887183	0.351050
795.079571	0.351068
795.271941	0.351096
795.464293	0.351321
795.656626	0.351173
795.848941	0.351172
796.041238	0.351155
796.233516	0.351572
796.425777	0.351798
796.618019	0.351768
796.810243	0.351941
797.002449	0.352327
797.194636	0.352280
797.386805	0.352341
797.578956	0.352560
797.771089	0.352792
797.963204	0.352271
798.155300	0.352425
798.347378	0.352532
798.539438	0.352779
798.731480	0.352668
798.923503	0.353099
799.115509	0.353579
799.307496	0.353662
799.499465	0.353752
799.691415	0.354257
799.883348	0.354276
800.075262	0.354465
800.267158	0.354593
800.459035	0.354973
800.650895	0.355045
800.842736	0.354991
801.034559	0.355047
801.226364	0.355324
801.418150	0.355485
801.609919	0.355848
801.801669	0.355784
801.993401	0.355664
802.185114	0.355648
802.376810	0.355707
802.568487	0.355593
802.760146	0.355727
802.951787	0.355634
803.143409	0.355769
803.335014	0.355793
803.526600	0.356284
803.718168	0.356375
803.909717	0.356789
804.101249	0.357226
804.292762	0.357733
804.484257	0.358131
804.675734	0.358426
804.867192	0.358667
805.058632	0.358923
805.250054	0.359036
805.441458	0.359444
805.632844	0.359468
805.824211	0.359496
806.015561	0.359588
806.206891	0.359934
806.398204	0.360169
806.589499	0.360352
806.780775	0.360601
806.972033	0.360689
807.163273	0.361093
807.354495	0.361247
807.545698	0.361338
807.736883	0.361768
807.928050	0.361924
808.119199	0.362221
808.310329	0.362542
808.501441	0.362849
808.692535	0.363493
808.883611	0.363731
809.074669	0.364336
809.265708	0.364829
809.456729	0.365095
809.647732	0.365280
809.838717	0.365641
810.029683	0.365862
810.220632	0.365722
810.411562	0.365618
810.602474	0.366070
810.793367	0.366310
810.984242	0.366622
811.175100	0.367239
811.365938	0.367603
811.556759	0.367931
811.747562	0.368068
811.938346	0.368648
812.129112	0.369139
812.319860	0.369316
812.510589	0.369380
812.701300	0.369920
812.891994	0.370087
813.082668	0.370406
813.273325	0.370707
813.463964	0.371160
813.654584	0.371434
813.845186	0.371638
814.035769	0.371805
814.226335	0.372215
814.416882	0.372127
814.607411	0.372314
814.797922	0.372385
814.988415	0.372390
815.178889	0.372851
815.369345	0.372773
815.559783	0.373071
815.750203	0.373378
815.940605	0.373640
816.130988	0.374250
816.321353	0.374241
816.511700	0.374583
816.702028	0.374888
816.892339	0.374834
817.082631	0.375435
817.272905	0.375512
817.463161	0.375982
817.653398	0.376449
817.843617	0.376171
818.033819	0.376805
818.224001	0.376865
818.414166	0.377415
818.604312	0.378028
818.794440	0.378387
818.984550	0.378823
819.174642	0.379138
819.364716	0.379145
819.554771	0.379748
819.744808	0.379934
819.934827	0.380691
820.124827	0.380958
820.314810	0.381138
820.504774	0.381677
820.694720	0.382034
820.884647	0.382084
821.074557	0.382340
821.264448	0.382781
821.454321	0.383278
821.644176	0.383733
821.834012	0.384203
822.023831	0.384299
822.213631	0.384422
822.403413	0.384733
822.593176	0.385376
822.782922	0.385952
822.972649	0.386617
823.162358	0.386950
823.352049	0.387210
823.541721	0.387311
823.731376	0.387768
823.921012	0.388047
824.110629	0.388777
824.300229	0.389010
824.489811	0.389507
824.679374	0.389357
824.868919	0.389766
825.058445	0.389873
825.247954	0.390297
825.437444	0.390777
825.626916	0.391480
825.816370	0.391893
826.005806	0.392414
826.195223	0.392580
826.384622	0.393020
826.574003	0.393229
826.763366	0.393680
826.952711	0.394192
827.142037	0.394483
827.331345	0.394540
827.520635	0.394493
827.709906	0.394638
827.899160	0.395022
828.088395	0.395381
828.277612	0.395650
828.466810	0.396017
828.655991	0.396435
828.845153	0.396963
829.034297	0.397621
829.223423	0.397987
829.412531	0.398271
829.601620	0.398610
829.790691	0.398963
829.979744	0.399194
830.168779	0.399508
830.357795	0.399615
830.546793	0.399979
830.735773	0.400068
830.924735	0.400539
831.113679	0.401147
831.302604	0.401813
831.491511	0.402295
831.680400	0.402825
831.869271	0.403251
832.058123	0.403856
832.246957	0.404033
832.435773	0.404623
832.624571	0.405051
832.813351	0.405589
833.002112	0.405595
833.190855	0.405893
833.379580	0.406138
833.568287	0.406559
833.756975	0.407215
833.945645	0.407742
834.134297	0.408031
834.322931	0.408650
834.511547	0.408820
834.700144	0.408992
834.888723	0.409070
835.077284	0.409851
835.265826	0.410464
835.454351	0.410734
835.642857	0.411211
835.831345	0.411559
836.019815	0.412059
836.208266	0.412552
836.396699	0.413550
836.585114	0.414666
836.773511	0.414853
836.961890	0.415117
837.150250	0.415314
837.338592	0.415568
837.526916	0.415973
837.715222	0.415982
837.903510	0.416666
838.091779	0.416952
838.280030	0.417369
838.468263	0.417980
838.656477	0.418599
838.844674	0.419081
839.032852	0.419421
839.221012	0.420029
839.409153	0.420460
839.597277	0.420736
839.785382	0.421085
839.973469	0.421377
840.161538	0.421841
840.349589	0.422186
840.537621	0.422629
840.725635	0.423683
840.913631	0.424113
841.101609	0.424698
841.289568	0.425184
841.477509	0.425704
841.665432	0.425902
841.853337	0.426193
842.041224	0.426174
842.229092	0.426705
842.416942	0.427275
842.604774	0.427791
842.792588	0.428211
842.980383	0.428540
843.168160	0.429062
843.355919	0.429710
843.543660	0.430091
843.731382	0.430891
843.919087	0.431082
844.106773	0.431430
844.294441	0.431693
844.482090	0.432307
844.669722	0.432752
844.857335	0.433399
845.044930	0.433911
845.232507	0.434603
845.420065	0.435215
845.607605	0.435972
845.795127	0.436306
845.982631	0.436932
846.170117	0.437263
846.357584	0.437701
846.545033	0.437978
846.732464	0.438019
846.919877	0.438306
847.107272	0.438758
847.294648	0.439142
847.482006	0.439256
847.669346	0.439776
847.856667	0.440320
848.043971	0.440544
848.231256	0.441144
848.418523	0.442182
848.605771	0.442401
848.793002	0.442835
848.980214	0.443447
849.167408	0.444155
849.354584	0.444374
849.541742	0.445067
849.728881	0.445995
849.916002	0.446526
850.103105	0.446504
850.290190	0.447630
850.477256	0.448044
850.664304	0.448167
850.851334	0.448710
851.038346	0.449469
851.225340	0.449553
851.412315	0.449743
851.599272	0.450184
851.786211	0.451182
851.973132	0.451353
852.160034	0.451801
852.346918	0.452364
852.533784	0.452753
852.720632	0.453321
852.907462	0.453906
853.094273	0.454195
853.281066	0.454430
853.467841	0.454379
853.654598	0.455009
853.841336	0.455444
854.028056	0.455874
854.214758	0.456071
854.401442	0.456093
854.588107	0.456669
854.774755	0.457181
854.961384	0.457423
855.147995	0.458294
855.334587	0.458471
855.521162	0.459116
855.707718	0.459767
855.894256	0.460111
856.080775	0.460672
856.267277	0.460821
856.453760	0.461036
856.640225	0.461681
856.826672	0.461700
857.013101	0.461777
857.199511	0.461945
857.385903	0.462299
857.572277	0.462487
857.758633	0.462565
857.944970	0.463243
858.131290	0.463984
858.317591	0.464214
858.503873	0.464519
858.690138	0.465212
858.876384	0.465746
859.062612	0.466318
859.248822	0.467186
859.435014	0.468136
859.621188	0.468228
859.807343	0.468524
859.993480	0.468942
860.179599	0.469805
860.365699	0.470304
860.551781	0.470591
860.737846	0.470873
860.923891	0.470925
861.109919	0.471265
861.295929	0.471748
861.481920	0.472257
861.667893	0.473023
861.853848	0.473169
862.039784	0.473533
862.225702	0.474236
862.411603	0.474733
862.597484	0.475170
862.783348	0.475544
862.969193	0.475981
863.155021	0.476473
863.340830	0.476668
863.526620	0.476688
863.712393	0.477347
863.898147	0.477362
864.083883	0.477532
864.269601	0.478457
864.455301	0.478767
864.640982	0.479111
864.826645	0.479556
865.012290	0.479776
865.197917	0.480761
865.383526	0.480891
865.569116	0.481501
865.754688	0.482076
865.940242	0.482592
866.125777	0.483088
866.311295	0.483752
866.496794	0.483997
866.682275	0.484489
866.867737	0.484562
867.053182	0.485222
867.238608	0.485501
867.424016	0.485818
867.609406	0.485380
867.794778	0.485861
867.980131	0.486026
868.165466	0.486195
868.350783	0.486335
868.536082	0.486557
868.721362	0.486342
868.906625	0.486801
869.091869	0.487072
869.277094	0.487867
869.462302	0.487885
869.647491	0.488263
869.832662	0.488829
870.017815	0.488981
870.202950	0.489413
870.388066	0.489670
870.573165	0.489681
870.758245	0.490096
870.943306	0.490008
871.128350	0.490199
871.313375	0.490451
871.498382	0.490491
871.683371	0.491137
871.868342	0.491506
872.053294	0.492078
872.238229	0.492368
872.423144	0.492304
872.608042	0.492975
872.792922	0.493396
872.977783	0.493785
873.162626	0.494421
873.347451	0.494813
873.532258	0.495103
873.717046	0.495466
873.901816	0.495338
874.086568	0.495588
874.271302	0.495478
874.456017	0.495900
874.640715	0.495613
874.825394	0.496057
875.010055	0.496278
875.194697	0.496513
875.379322	0.496924
875.563928	0.497888
875.748516	0.498235
875.933085	0.498979
876.117637	0.498681
876.302170	0.498997
876.486685	0.498969
876.671182	0.499247
876.855661	0.499245
877.040121	0.499145
877.224563	0.499053
877.408987	0.499298
877.593393	0.499107
877.777780	0.499301
877.962150	0.499335
878.146501	0.499283
878.330833	0.499267
878.515148	0.499335
878.699444	0.499723
878.883722	0.499877
879.067982	0.500297
879.252224	0.500586
879.436447	0.500900
879.620653	0.501280
879.804840	0.501694
879.989008	0.501654
880.173159	0.502321
880.357291	0.502285
880.541405	0.502819
880.725501	0.502385
880.909579	0.502345
881.093638	0.502559
881.277680	0.502882
881.461703	0.503034
881.645707	0.503461
881.829694	0.503115
882.013662	0.503065
882.197612	0.503570
882.381544	0.503987
882.565458	0.503859
882.749353	0.504177
882.933230	0.504218
883.117089	0.504200
883.300930	0.503857
883.484753	0.504268
883.668557	0.504556
883.852343	0.503661
884.036111	0.503473
884.219861	0.504134
884.403592	0.504636
884.587305	0.504326
884.771000	0.503899
884.954677	0.504249
885.138335	0.504177
885.321976	0.504251
885.505598	0.505219
885.689201	0.505458
885.872787	0.505199
886.056354	0.504732
886.239904	0.505672
886.423434	0.505958
886.606947	0.505759
886.790442	0.505239
886.973918	0.505009
887.157376	0.503840
887.340816	0.503783
887.524237	0.504066
887.707641	0.504010
887.891026	0.503256
888.074393	0.503377
888.257741	0.503973
888.441072	0.504580
888.624384	0.504915
888.807678	0.505114
888.990954	0.505624
889.174211	0.505700
889.357451	0.506186
889.540672	0.506446
889.723875	0.506487
889.907059	0.506023
890.090226	0.506529
890.273374	0.506367
890.456504	0.506362
890.639616	0.505835
890.822709	0.505176
891.005785	0.504691
891.188842	0.504312
891.371881	0.504326
891.554901	0.504159
891.737904	0.503626
891.920888	0.503951
892.103854	0.504197
892.286802	0.503968
892.469731	0.504212
892.652643	0.504432
892.835536	0.504695
893.018410	0.504155
893.201267	0.504098
893.384106	0.504231
893.566926	0.504158
893.749728	0.503876
893.932511	0.503985
894.115277	0.504111
894.298024	0.503857
894.480753	0.503476
894.663464	0.503686
894.846157	0.503983
895.028831	0.503906
895.211487	0.503618
895.394125	0.504015
895.576745	0.503787
895.759346	0.503292
895.941930	0.503423
896.124495	0.503351
896.307041	0.502769
896.489570	0.502133
896.672080	0.501597
896.854573	0.500586
897.037046	0.500202
897.219502	0.499602
897.401940	0.499582
897.584359	0.498825
897.766760	0.498662
897.949143	0.498518
898.131507	0.498055
898.313854	0.497179
898.496182	0.497028
898.678492	0.496381
898.860783	0.496054
899.043057	0.495248
899.225312	0.495110
899.407549	0.495098
899.589768	0.494897
899.771968	0.494997
899.954151	0.495039
900.136315	0.495226
900.318461	0.494796
900.500588	0.495219
900.682698	0.495175
900.864789	0.494686
901.046862	0.494457
901.228917	0.494568
901.410953	0.494145
901.592971	0.494157
901.774972	0.493595
901.956953	0.494063
902.138917	0.493574
902.320862	0.493368
902.502790	0.493516
902.684699	0.492532
902.866589	0.491908
903.048462	0.492125
903.230316	0.492070
903.412152	0.491788
903.593970	0.490886
903.775770	0.490725
903.957551	0.490914
904.139314	0.490038
904.321059	0.490100
904.502786	0.489645
904.684494	0.488972
904.866185	0.488190
905.047857	0.487677
905.229510	0.486966
905.411146	0.485724
905.592763	0.484981
905.774363	0.484551
905.955943	0.484017
906.137506	0.483376
906.319051	0.482638
906.500577	0.482256
906.682085	0.482397
906.863575	0.481897
907.045046	0.483010
907.226500	0.482130
907.407935	0.482322
907.589352	0.481931
907.770750	0.482022
907.952131	0.481759
908.133493	0.481589
908.314837	0.480530
908.496163	0.480011
908.677470	0.477804
908.858760	0.477357
909.040031	0.476301
909.221284	0.475556
909.402518	0.475512
909.583735	0.475662
909.764933	0.474999
909.946113	0.474375
910.127275	0.474401
910.308418	0.474435
910.489544	0.474460
910.670651	0.473535
910.851740	0.473109
911.032810	0.472029
911.213863	0.470985
911.394897	0.470661
911.575913	0.470550
911.756911	0.469624
911.937890	0.469107
912.118851	0.467498
912.299794	0.467170
912.480719	0.466735
912.661626	0.466427
912.842514	0.465191
913.023384	0.464412
913.204236	0.464222
913.385070	0.463794
913.565886	0.463261
913.746683	0.463792
913.927462	0.463172
914.108223	0.462707
914.288965	0.461481
914.469690	0.460988
914.650396	0.459554
914.831084	0.458449
915.011754	0.457993
915.192405	0.457118
915.373038	0.455992
915.553653	0.455987
915.734250	0.454904
915.914829	0.454418
916.095389	0.454503
916.275931	0.454142
916.456455	0.453690
916.636961	0.453322
916.817448	0.452566
916.997917	0.451605
917.178368	0.450315
917.358801	0.449398
917.539216	0.448930
917.719612	0.447904
917.899990	0.447386
918.080350	0.446203
918.260692	0.445599
918.441015	0.444739
918.621320	0.444069
918.801607	0.443029
918.981876	0.442519
919.162127	0.441316
919.342359	0.440578
919.522573	0.440521
919.702769	0.439957
919.882947	0.438098
920.063106	0.438402
920.243247	0.437693
920.423370	0.437386
920.603475	0.436523
920.783562	0.436188
920.963630	0.435382
921.143680	0.434042
921.323712	0.432862
921.503725	0.432894
921.683721	0.432058
921.863698	0.431188
922.043657	0.430359
922.223598	0.429910
922.403520	0.429160
922.583424	0.428253
922.763311	0.426886
922.943178	0.425643
923.123028	0.424378
923.302859	0.422689
923.482673	0.421526
923.662467	0.419927
923.842244	0.419138
924.022003	0.417821
924.201743	0.416900
924.381465	0.415845
924.561169	0.415502
924.740854	0.415539
924.920522	0.414819
925.100171	0.414445
925.279802	0.414052
925.459414	0.412380
925.639009	0.411584
925.818585	0.411173
925.998143	0.410422
926.177683	0.409432
926.357205	0.408302
926.536708	0.407070
926.716193	0.406056
926.895660	0.405375
927.075109	0.404308
927.254539	0.404059
927.433951	0.402347
927.613345	0.401430
927.792721	0.401190
927.972079	0.399760
928.151418	0.399101
928.330739	0.398225
928.510042	0.397233
928.689327	0.396702
928.868593	0.394695
929.047841	0.393634
929.227071	0.392872
929.406283	0.391749
929.585476	0.390816
929.764652	0.389922
929.943809	0.389244
930.122948	0.388166
930.302068	0.387461
930.481171	0.386820
930.660255	0.385808
930.839321	0.384378
931.018369	0.382341
931.197398	0.381509
931.376409	0.379748
931.555402	0.377894
931.734377	0.376777
931.913334	0.375778
932.092272	0.374056
932.271192	0.372258
932.450094	0.371613
932.628978	0.371176
932.807844	0.369156
932.986691	0.369165
933.165520	0.368754
933.344331	0.367505
933.523123	0.366528
933.701898	0.366751
933.880654	0.367647
934.059392	0.367332
934.238111	0.366478
934.416813	0.366198
934.595496	0.364651
934.774161	0.363256
934.952808	0.362480
935.131437	0.361718
935.310047	0.360753
935.488639	0.358439
935.667213	0.356093
935.845769	0.354293
936.024306	0.352620
936.202825	0.352471
936.381326	0.352294
936.559809	0.351248
936.738274	0.348993
936.916720	0.346487
937.095148	0.345780
937.273558	0.346192
937.451950	0.345572
937.630323	0.344664
937.808678	0.342653
937.987015	0.340716
938.165334	0.339177
938.343635	0.337869
938.521917	0.337763
938.700181	0.336273
938.878427	0.334164
939.056655	0.333432
939.234864	0.332534
939.413055	0.331874
939.591228	0.330681
939.769383	0.330446
939.947519	0.329956
940.125638	0.327952
940.303738	0.327618
940.481820	0.327314
940.659883	0.325216
940.837929	0.324227
941.015956	0.322448
941.193965	0.321525
941.371955	0.319098
941.549928	0.318323
941.727882	0.317776
941.905818	0.315780
942.083736	0.313298
942.261636	0.312291
942.439517	0.311403
942.617380	0.310894
942.795225	0.309624
942.973052	0.309189
943.150860	0.307358
943.328651	0.305945
943.506423	0.304386
943.684176	0.304475
943.861912	0.304269
944.039629	0.301773
944.217328	0.300163
944.395009	0.299321
944.572672	0.298360
944.750317	0.298431
944.927943	0.296683
945.105551	0.296372
945.283141	0.294479
945.460712	0.292047
945.638265	0.292728
945.815801	0.292068
945.993317	0.290387
946.170816	0.289074
946.348297	0.288536
946.525759	0.288943
946.703203	0.287750
946.880629	0.286374
947.058036	0.286591
947.235425	0.284290
947.412797	0.283082
947.590149	0.281467
947.767484	0.280394
947.944800	0.277711
948.122099	0.275429
948.299379	0.273721
948.476640	0.272390
948.653884	0.270814
948.831109	0.269462
949.008316	0.267488
949.185505	0.266793
949.362676	0.265284
949.539828	0.265309
949.716962	0.263501
949.894078	0.260757
950.071176	0.261280
950.248256	0.259909
950.425317	0.259196
950.602360	0.257325
950.779385	0.256547
950.956391	0.255030
951.133380	0.252962
951.310350	0.251401
951.487302	0.251399
951.664235	0.249374
951.841151	0.246454
952.018048	0.244730
952.194927	0.243113
952.371788	0.242594
952.548631	0.241977
952.725455	0.241151
952.902261	0.241397
953.079049	0.240143
953.255819	0.239294
953.432570	0.240996
953.609303	0.239963
953.786018	0.241524
953.962715	0.239747
954.139394	0.239060
954.316054	0.237862
954.492696	0.235712
954.669320	0.235759
954.845926	0.233192
955.022513	0.230937
955.199083	0.230227
955.375634	0.226560
955.552166	0.225317
955.728681	0.223699
955.905177	0.222845
956.081655	0.219936
956.258115	0.219779
956.434557	0.219863
956.610980	0.220255
956.787385	0.219447
956.963772	0.219684
957.140141	0.219149
957.316492	0.218056
957.492824	0.214554
957.669138	0.215532
957.845434	0.215278
958.021712	0.213953
958.197971	0.210828
958.374212	0.208968
958.550435	0.207447
958.726640	0.206577
958.902826	0.207458
959.078995	0.207994
959.255145	0.209513
959.431277	0.205633
959.607390	0.205506
959.783486	0.205572
959.959563	0.204683
960.135622	0.203006
960.311662	0.201019
960.487685	0.198215
960.663689	0.197834
960.839675	0.194630
961.015643	0.196992
961.191593	0.196023
961.367524	0.194138
961.543437	0.194205
961.719332	0.194399
961.895209	0.195191
962.071067	0.193680
962.246907	0.194133
962.422730	0.194914
962.598533	0.191675
962.774319	0.194822
962.950086	0.195270
963.125835	0.194028
963.301566	0.194075
963.477279	0.190797
963.652973	0.191829
963.828650	0.191175
964.004308	0.193406
964.179947	0.195318
964.355569	0.191407
964.531172	0.191205
964.706757	0.191887
964.882324	0.190807
965.057873	0.191514
965.233403	0.193677
965.408916	0.191440
965.584410	0.188064
965.759885	0.186035
965.935343	0.184272
966.110782	0.183969
966.286203	0.183973
966.461606	0.183922
966.636991	0.184878
966.812357	0.183023
966.987705	0.185500
967.163035	0.186351
967.338347	0.187240
967.513641	0.189296
967.688916	0.189893
967.864173	0.188801
968.039412	0.190849
968.214632	0.189795
968.389835	0.185703
968.565019	0.185725
968.740185	0.185648
968.915333	0.185779
969.090462	0.185432
969.265573	0.181660
969.440667	0.182793
969.615741	0.181003
969.790798	0.181536
969.965836	0.184705
970.140856	0.182044
970.315858	0.180639
970.490842	0.178530
970.665808	0.177162
970.840755	0.180740
971.015684	0.178703
971.190595	0.181200
971.365487	0.179892
971.540362	0.178625
971.715218	0.180033
971.890056	0.179504
972.064875	0.181363
972.239677	0.181635
972.414460	0.180558
972.589225	0.185212
972.763972	0.186498
972.938700	0.188234
973.113411	0.188430
973.288103	0.188578
973.462777	0.190310
973.637432	0.187980
973.812070	0.188833
973.986689	0.189685
974.161290	0.183941
974.335873	0.179796
974.510437	0.180096
974.684984	0.180429
974.859512	0.179767
975.034022	0.179845
975.208513	0.180996
975.382987	0.179063
975.557442	0.178610
975.731879	0.179777
975.906298	0.179752
976.080698	0.180762
976.255080	0.181992
976.429445	0.183403
976.603790	0.182541
976.778118	0.182526
976.952427	0.185118
977.126719	0.183176
977.300992	0.184806
977.475246	0.184653
977.649483	0.182985
977.823701	0.181792
977.997901	0.181061
978.172083	0.180952
978.346247	0.180498
978.520392	0.181596
978.694519	0.184144
978.868628	0.181932
979.042719	0.182384
979.216791	0.180573
979.390845	0.180262
979.564882	0.180292
979.738899	0.181217
979.912899	0.183850
980.086880	0.181983
980.260843	0.181485
980.434788	0.182796
980.608715	0.182963
980.782623	0.184757
980.956514	0.185481
981.130386	0.184406
981.304240	0.182690
981.478075	0.180120
981.651892	0.178456
981.825692	0.176576
981.999472	0.176625
982.173235	0.176424
982.346980	0.176440
982.520706	0.177947
982.694414	0.177413
982.868104	0.178225
983.041775	0.179838
983.215428	0.178555
983.389064	0.178442
983.562680	0.177188
983.736279	0.178161
983.909860	0.177487
984.083422	0.176333
984.256966	0.176360
984.430491	0.178369
984.603999	0.178156
984.777488	0.179710
984.950959	0.182438
985.124412	0.183417
985.297847	0.184425
985.471263	0.184373
985.644661	0.183356
985.818041	0.184404
985.991403	0.181995
986.164747	0.181444
986.338072	0.180893
986.511379	0.179662
986.684668	0.179872
986.857938	0.179023
987.031191	0.177841
987.204425	0.179229
987.377641	0.180423
987.550839	0.181796
987.724018	0.180645
987.897179	0.182077
988.070322	0.182526
988.243447	0.182630
988.416554	0.182119
988.589642	0.181890
988.762712	0.183598
988.935764	0.182755
989.108798	0.181963
989.281813	0.183739
989.454811	0.183017
989.627790	0.184271
989.800751	0.183477
989.973693	0.184459
990.146617	0.186648
990.319524	0.183639
990.492412	0.183465
990.665281	0.183360
990.838133	0.183843
991.010966	0.185924
991.183781	0.182919
991.356578	0.185063
991.529356	0.184735
991.702117	0.184368
991.874859	0.184603
992.047583	0.182902
992.220288	0.183466
992.392976	0.183676
992.565645	0.181222
992.738296	0.182356
992.910929	0.179375
993.083543	0.179257
993.256139	0.180647
993.428718	0.179586
993.601277	0.179809
993.773819	0.179396
993.946342	0.178730
994.118848	0.179294
994.291335	0.180125
994.463803	0.182227
994.636254	0.181534
994.808686	0.180553
994.981100	0.180514
995.153496	0.181898
995.325874	0.182592
995.498233	0.182247
995.670574	0.181289
995.842897	0.178976
996.015202	0.177694
996.187488	0.178769
996.359757	0.176799
996.532007	0.177865
996.704239	0.176928
996.876452	0.178479
997.048648	0.176471
997.220825	0.178424
997.392984	0.180506
997.565124	0.180292
997.737247	0.180207
997.909351	0.182539
998.081437	0.183880
998.253505	0.183249
998.425554	0.179970
998.597586	0.181059
998.769599	0.180092
998.941594	0.179903
999.113571	0.179871
999.285529	0.179327
999.457469	0.177335
999.629391	0.176202
999.801295	0.177134
999.973181	0.178644
1000.145048	0.179406
1000.316897	0.178925
1000.488728	0.178510
1000.660541	0.180986
1000.832335	0.180323
1001.004111	0.181899
1001.175869	0.183230
1001.347609	0.183194
1001.519331	0.183478
1001.691034	0.180091
1001.862719	0.180839
1002.034386	0.180625
1002.206035	0.179625
1002.377665	0.179119
1002.549277	0.179582
1002.720871	0.178665
1002.892447	0.178461
1003.064004	0.178085
1003.235544	0.180843
1003.407065	0.181277
1003.578568	0.181781
1003.750052	0.177452
1003.921519	0.178403
1004.092967	0.176194
1004.264397	0.176055
1004.435809	0.175641
1004.607202	0.175792
1004.778577	0.175970
1004.949934	0.176149
1005.121273	0.177150
1005.292594	0.179484
1005.463896	0.180002
1005.635180	0.181988
1005.806446	0.181166
1005.977694	0.182801
1006.148923	0.180914
1006.320135	0.180412
1006.491328	0.178458
1006.662503	0.175574
1006.833659	0.177267
1007.004798	0.177530
1007.175918	0.177802
1007.347020	0.178196
1007.518103	0.178538
1007.689169	0.181404
1007.860216	0.181284
1008.031245	0.182456
1008.202256	0.184359
1008.373248	0.182352
1008.544223	0.181967
1008.715179	0.180369
1008.886117	0.181044
1009.057036	0.179184
1009.227938	0.177856
1009.398821	0.178621
1009.569686	0.179672
1009.740533	0.179266
1009.911361	0.180444
1010.082172	0.179927
1010.252964	0.179804
1010.423738	0.177984
1010.594493	0.177317
1010.765231	0.176760
1010.935950	0.177497
1011.106651	0.176359
1011.277334	0.176636
1011.447998	0.176518
1011.618645	0.175686
1011.789273	0.177013
1011.959882	0.177305
1012.130474	0.178913
1012.301048	0.179048
1012.471603	0.178868
1012.642140	0.178012
1012.812658	0.177839
1012.983159	0.178365
1013.153641	0.178936
1013.324105	0.178669
1013.494551	0.179647
1013.664979	0.181127
1013.835388	0.181145
1014.005779	0.180002
1014.176152	0.178211
1014.346507	0.178972
1014.516843	0.176843
1014.687162	0.177925
1014.857462	0.176397
1015.027744	0.174774
1015.198007	0.174496
1015.368252	0.172791
1015.538480	0.172370
1015.708689	0.176175
1015.878879	0.176547
1016.049052	0.176754
1016.219206	0.175883
1016.389342	0.176627
1016.559460	0.177730
1016.729559	0.175720
1016.899641	0.177332
1017.069704	0.176897
1017.239749	0.173981
1017.409775	0.172737
1017.579784	0.174570
1017.749774	0.174561
1017.919746	0.173126
1018.089700	0.174615
1018.259635	0.176687
1018.429553	0.177521
1018.599452	0.178057
1018.769333	0.180854
1018.939195	0.181930
1019.109040	0.181521
1019.278866	0.181631
1019.448674	0.184120
1019.618464	0.183661
1019.788235	0.182472
1019.957989	0.180092
1020.127724	0.180195
1020.297441	0.178337
1020.467139	0.176650
1020.636820	0.175778
1020.806482	0.174309
1020.976126	0.172316
1021.145752	0.170414
1021.315359	0.171641
1021.484948	0.173556
1021.654519	0.173495
1021.824072	0.175253
1021.993607	0.176460
1022.163123	0.179359
1022.332621	0.179905
1022.502101	0.181026
1022.671563	0.182436
1022.841007	0.181804
1023.010432	0.180755
1023.179839	0.183938
1023.349228	0.181478
1023.518598	0.181987
1023.687951	0.179471
1023.857285	0.181043
1024.026601	0.181169
1024.195899	0.181933
1024.365178	0.181033
1024.534439	0.180837
1024.703682	0.179023
1024.872907	0.178115
1025.042114	0.178208
1025.211302	0.179447
1025.380472	0.178298
1025.549624	0.179709
1025.718758	0.180104
1025.887873	0.178330
1026.056970	0.178794
1026.226049	0.177296
1026.395110	0.177879
1026.564153	0.177094
1026.733177	0.175767
1026.902183	0.175316
1027.071171	0.175213
1027.240141	0.173470
1027.409092	0.174647
1027.578026	0.174989
1027.746940	0.174768
1027.915837	0.176365
1028.084716	0.177568
1028.253576	0.178749
1028.422418	0.179415
1028.591242	0.177861
1028.760048	0.177883
1028.928835	0.179292
1029.097604	0.179456
1029.266355	0.180344
1029.435088	0.178566
1029.603803	0.176932
1029.772499	0.176999
1029.941177	0.175648
1030.109837	0.177201
1030.278478	0.179096
1030.447102	0.178026
1030.615707	0.177664
1030.784294	0.174720
1030.952863	0.176105
1031.121413	0.174606
1031.289945	0.174868
1031.458460	0.177225
1031.626955	0.176655
1031.795433	0.173890
1031.963892	0.173347
1032.132334	0.172122
1032.300756	0.174864
1032.469161	0.176347
1032.637548	0.178304
1032.805916	0.176331
1032.974266	0.175980
1033.142598	0.175282
1033.310911	0.177686
1033.479207	0.177319
1033.647484	0.180689
1033.815743	0.179965
1033.983983	0.178756
1034.152206	0.178210
1034.320410	0.178736
1034.488596	0.177614
1034.656764	0.176633
1034.824914	0.173337
1034.993045	0.173663
1035.161158	0.171875
1035.329253	0.172093
1035.497330	0.172243
1035.665388	0.173393
1035.833428	0.173618
1036.001450	0.174446
1036.169454	0.172907
1036.337440	0.174951
1036.505407	0.175397
1036.673356	0.175011
1036.841287	0.173306
1037.009200	0.171639
1037.177094	0.169845
1037.344970	0.171281
1037.512828	0.170091
1037.680668	0.172656
1037.848489	0.172115
1038.016293	0.171824
1038.184078	0.172735
1038.351845	0.174418
1038.519593	0.176611
1038.687324	0.177267
1038.855036	0.175544
1039.022730	0.175197
1039.190406	0.177247
1039.358063	0.177834
1039.525702	0.178614
1039.693323	0.178345
1039.860926	0.178169
1040.028511	0.175314
1040.196077	0.174988
1040.363625	0.177886
1040.531155	0.181993
1040.698667	0.179232
1040.866161	0.179148
1041.033636	0.177798
1041.201093	0.177070
1041.368532	0.177257
1041.535952	0.179879
1041.703355	0.180394
1041.870739	0.177847
1042.038105	0.176565
1042.205452	0.176405
1042.372782	0.176125
1042.540093	0.176476
1042.707386	0.178223
1042.874661	0.178839
1043.041918	0.177688
1043.209156	0.177342
1043.376376	0.176539
1043.543578	0.175232
1043.710762	0.175148
1043.877927	0.177631
1044.045074	0.177807
1044.212203	0.176050
1044.379314	0.175594
1044.546407	0.176169
1044.713481	0.176357
1044.880537	0.178029
1045.047575	0.178358
1045.214595	0.177850
1045.381596	0.176233
1045.548579	0.174937
1045.715544	0.174949
1045.882491	0.177265
1046.049420	0.177836
1046.216330	0.178274
1046.383222	0.177673
1046.550096	0.175855
1046.716951	0.179717
1046.883789	0.178135
1047.050608	0.179956
1047.217409	0.180562
1047.384192	0.180358
1047.550956	0.176349
1047.717703	0.176023
1047.884431	0.173738
1048.051140	0.174096
1048.217832	0.169913
1048.384505	0.170126
1048.551161	0.169309
1048.717798	0.169202
1048.884416	0.166683
1049.051017	0.171388
1049.217599	0.171102
1049.384163	0.174102
1049.550709	0.173877
1049.717237	0.175524
1049.883746	0.175086
1050.050237	0.174004
1050.216710	0.172657
1050.383165	0.172238
1050.549601	0.170873
1050.716019	0.170157
1050.882420	0.170390
1051.048801	0.171941
1051.215165	0.171030
1051.381510	0.173025
1051.547837	0.175101
1051.714146	0.176226
1051.880437	0.177959
1052.046709	0.177844
1052.212964	0.179150
1052.379200	0.177371
1052.545417	0.177514
1052.711617	0.178148
1052.877798	0.176459
1053.043961	0.174106
1053.210106	0.175234
1053.376233	0.175081
1053.542341	0.174321
1053.708432	0.173571
1053.874504	0.174911
1054.040557	0.173542
1054.206593	0.171791
1054.372610	0.171353
1054.538609	0.172806
1054.704590	0.173793
1054.870553	0.172501
1055.036497	0.173170
1055.202424	0.172480
1055.368331	0.170665
1055.534221	0.171232
1055.700093	0.172010
1055.865946	0.172430
1056.031781	0.173234
1056.197598	0.170989
1056.363397	0.170402
1056.529177	0.171782
1056.694939	0.173645
1056.860683	0.175013
1057.026409	0.175196
1057.192116	0.177495
1057.357806	0.178400
1057.523477	0.179067
1057.689130	0.179561
1057.854764	0.181102
1058.020381	0.180965
1058.185979	0.180746
1058.351559	0.180648
1058.517120	0.180724
1058.682664	0.179991
1058.848189	0.181164
1059.013696	0.180238
1059.179185	0.178819
1059.344656	0.177847
1059.510108	0.178233
1059.675542	0.176148
1059.840958	0.177868
1060.006356	0.178525
1060.171735	0.177452
1060.337096	0.175068
1060.502439	0.175001
1060.667764	0.173803
1060.833071	0.175354
1060.998359	0.174083
1061.163629	0.176990
1061.328881	0.176277
1061.494115	0.174554
1061.659330	0.176490
1061.824527	0.178212
1061.989706	0.179097
1062.154867	0.180975
1062.320010	0.180064
1062.485134	0.180342
1062.650240	0.178914
1062.815328	0.178055
1062.980398	0.179007
1063.145449	0.179450
1063.310482	0.180097
1063.475497	0.179370
1063.640494	0.177506
1063.805473	0.180270
1063.970433	0.181523
1064.135375	0.181792
1064.300299	0.182253
1064.465204	0.180680
1064.630092	0.180340
1064.794961	0.180504
1064.959812	0.179275
1065.124645	0.180825
1065.289459	0.176486
1065.454256	0.176295
1065.619034	0.179437
1065.783793	0.177521
1065.948535	0.178889
1066.113258	0.180224
1066.277964	0.179531
1066.442651	0.181698
1066.607319	0.180062
1066.771970	0.182464
1066.936602	0.183310
1067.101216	0.183350
1067.265812	0.184772
1067.430389	0.184002
1067.594949	0.183854
1067.759490	0.185648
1067.924013	0.185127
1068.088518	0.189613
1068.253004	0.190951
1068.417472	0.190261
1068.581922	0.186361
1068.746354	0.187875
1068.910768	0.189790
1069.075163	0.190503
1069.239540	0.190446
1069.403899	0.192159
1069.568240	0.190021
1069.732562	0.188864
1069.896866	0.190790
1070.061152	0.191068
1070.225420	0.190907
1070.389670	0.189847
1070.553901	0.188933
1070.718114	0.189640
1070.882309	0.188214
1071.046486	0.188063
1071.210644	0.188498
1071.374784	0.186596
1071.538906	0.187270
1071.703010	0.183643
1071.867096	0.185891
1072.031163	0.182425
1072.195212	0.181733
1072.359243	0.182118
1072.523256	0.182820
1072.687250	0.180538
1072.851226	0.179731
1073.015184	0.180692
1073.179124	0.183600
1073.343045	0.182035
1073.506949	0.184027
1073.670834	0.182334
1073.834701	0.182681
1073.998549	0.184679
1074.162380	0.186602
1074.326192	0.185763
1074.489986	0.183620
1074.653761	0.182638
1074.817519	0.182062
1074.981258	0.182850
1075.144979	0.184837
1075.308682	0.183191
1075.472367	0.183791
1075.636033	0.185980
1075.799681	0.186605
1075.963311	0.186982
1076.126923	0.188290
1076.290516	0.188578
1076.454092	0.187613
1076.617649	0.186586
1076.781187	0.185534
1076.944708	0.185247
1077.108210	0.184915
1077.271695	0.184583
1077.435160	0.182942
1077.598608	0.182853
1077.762038	0.185694
1077.925449	0.186473
1078.088842	0.187046
1078.252217	0.189165
1078.415573	0.188267
1078.578912	0.187069
1078.742232	0.188315
1078.905534	0.193135
1079.068817	0.192979
1079.232083	0.195726
1079.395330	0.198040
1079.558559	0.198353
1079.721770	0.202305
1079.884962	0.200680
1080.048136	0.198196
1080.211293	0.202039
1080.374430	0.201474
1080.537550	0.202913
1080.700651	0.199615
1080.863735	0.201225
1081.026800	0.199040
1081.189846	0.197034
1081.352875	0.199305
1081.515885	0.200835
1081.678877	0.198184
1081.841851	0.196731
1082.004807	0.196626
1082.167744	0.196678
1082.330663	0.191742
1082.493564	0.192638
1082.656447	0.189934
1082.819312	0.187266
1082.982158	0.188902
1083.144986	0.188970
1083.307796	0.189729
1083.470587	0.189408
1083.633361	0.189523
1083.796116	0.189106
1083.958853	0.189258
1084.121571	0.190754
1084.284272	0.193636
1084.446954	0.192791
1084.609618	0.190810
1084.772264	0.191264
1084.934892	0.193098
1085.097501	0.191934
1085.260092	0.196013
1085.422665	0.197864
1085.585220	0.197291
1085.747756	0.196017
1085.910274	0.197124
1086.072774	0.196961
1086.235256	0.197472
1086.397720	0.198406
1086.560165	0.197940
1086.722592	0.200038
1086.885001	0.197664
1087.047392	0.202253
1087.209764	0.202897
1087.372119	0.204971
1087.534455	0.205738
1087.696772	0.207693
1087.859072	0.203539
1088.021353	0.206831
1088.183616	0.203008
1088.345861	0.204529
1088.508088	0.198433
1088.670296	0.196070
1088.832486	0.192643
1088.994658	0.195876
1089.156812	0.197255
1089.318948	0.199654
1089.481065	0.196341
1089.643164	0.193454
1089.805245	0.192406
1089.967308	0.196070
1090.129352	0.196597
1090.291378	0.196556
1090.453386	0.198332
1090.615376	0.196065
1090.777347	0.197732
1090.939301	0.197817
1091.101236	0.200906
1091.263153	0.198663
1091.425051	0.195934
1091.586932	0.196712
1091.748794	0.199675
1091.910638	0.195635
1092.072463	0.193503
1092.234271	0.191762
1092.396060	0.190599
1092.557831	0.189799
1092.719584	0.194195
1092.881319	0.196428
1093.043035	0.194011
1093.204733	0.194106
1093.366413	0.192974
1093.528075	0.194987
1093.689718	0.195765
1093.851343	0.193450
1094.012950	0.196571
1094.174539	0.196858
1094.336110	0.196892
1094.497662	0.200380
1094.659196	0.197631
1094.820712	0.197764
1094.982210	0.198076
1095.143689	0.200788
1095.305151	0.203074
1095.466594	0.199662
1095.628018	0.199338
1095.789425	0.200699
1095.950813	0.200684
1096.112183	0.201454
1096.273535	0.203902
1096.434869	0.203555
1096.596184	0.197857
1096.757482	0.202523
1096.918761	0.201278
1097.080021	0.201811
1097.241264	0.202443
1097.402488	0.204641
1097.563694	0.208436
1097.724882	0.205340
1097.886052	0.207457
1098.047203	0.213333
1098.208336	0.211913
1098.369451	0.216343
1098.530548	0.212826
1098.691627	0.212759
1098.852687	0.211523
1099.013729	0.208935
1099.174753	0.211634
1099.335758	0.210236
1099.496746	0.206499
1099.657715	0.205892
1099.818666	0.208135
1099.979599	0.208113
1100.140513	0.205672
1100.301409	0.205249
1100.462287	0.208077
1100.623147	0.206806
1100.783989	0.206644
1100.944812	0.206493
1101.105617	0.208982
1101.266404	0.208461
1101.427173	0.211743
1101.587923	0.211245
1101.748656	0.211267
1101.909370	0.210809
1102.070066	0.211531
1102.230743	0.209032
1102.391403	0.207975
1102.552044	0.208977
1102.712667	0.209816
1102.873271	0.208867
1103.033858	0.212630
1103.194426	0.214162
1103.354976	0.214006
1103.515508	0.216656
1103.676021	0.219917
1103.836517	0.220162
1103.996994	0.217751
1104.157453	0.214017
1104.317893	0.214570
1104.478316	0.212739
1104.638720	0.212324
1104.799106	0.210248
1104.959474	0.205179
1105.119823	0.201900
1105.280155	0.202764
1105.440468	0.198953
1105.600763	0.202188
1105.761039	0.199904
1105.921298	0.198934
1106.081538	0.199441
1106.241760	0.198631
1106.401964	0.205634
1106.562149	0.206673
1106.722316	0.204462
1106.882465	0.209863
1107.042596	0.204763
1107.202709	0.205240
1107.362803	0.203417
1107.522879	0.200679
1107.682937	0.203940
1107.842977	0.198141
1108.002999	0.203269
1108.163002	0.208432
1108.322987	0.208472
1108.482954	0.213190
1108.642902	0.209613
1108.802833	0.210779
1108.962745	0.213045
1109.122639	0.206356
1109.282515	0.208706
1109.442372	0.201579
1109.602211	0.199064
1109.762032	0.197578
1109.921835	0.194469
1110.081620	0.198724
1110.241386	0.199233
1110.401134	0.199006
1110.560864	0.202109
1110.720576	0.202752
1110.880269	0.212348
1111.039945	0.213108
1111.199602	0.211892
1111.359240	0.211275
1111.518861	0.214089
1111.678463	0.213363
1111.838047	0.211858
1111.997613	0.216690
1112.157161	0.219021
1112.316690	0.212822
1112.476202	0.217537
1112.635695	0.219872
1112.795169	0.223639
1112.954626	0.218473
1113.114064	0.221124
1113.273484	0.226029
1113.432886	0.218868
1113.592270	0.219860
1113.751635	0.220663
1113.910983	0.212193
1114.070312	0.206721
1114.229622	0.206331
1114.388915	0.209572
1114.548189	0.210059
1114.707445	0.210237
1114.866683	0.221657
1115.025903	0.219941
1115.185104	0.219294
1115.344287	0.226095
1115.503452	0.232892
1115.662599	0.232540
1115.821727	0.233457
1115.980838	0.231488
1116.139930	0.232171
1116.299004	0.224628
1116.458059	0.223886
1116.617097	0.225355
1116.776116	0.224523
1116.935117	0.225391
1117.094099	0.225667
1117.253064	0.227508
1117.412010	0.232929
1117.570938	0.228491
1117.729848	0.220788
1117.888740	0.223888
1118.047613	0.222445
1118.206468	0.217207
1118.365305	0.213837
1118.524124	0.214032
1118.682924	0.213825
1118.841707	0.209415
1119.000471	0.210556
1119.159216	0.220113
1119.317944	0.216350
1119.476653	0.211633
1119.635344	0.210832
1119.794017	0.212767
1119.952672	0.208512
1120.111308	0.213076
1120.269927	0.213436
1120.428527	0.213550
1120.587108	0.211945
1120.745672	0.209330
1120.904217	0.212896
1121.062744	0.220985
1121.221253	0.225871
1121.379744	0.226382
1121.538216	0.217601
1121.696671	0.216635
1121.855107	0.217163
1122.013524	0.217694
1122.171924	0.219675
1122.330305	0.226770
1122.488668	0.224605
1122.647013	0.223362
1122.805340	0.227423
1122.963648	0.231433
1123.121938	0.231933
1123.280210	0.233855
1123.438464	0.234557
1123.596700	0.235892
1123.754917	0.230409
1123.913116	0.228184
1124.071297	0.222451
1124.229459	0.217119
1124.387604	0.217838
1124.545730	0.221336
1124.703838	0.226315
1124.861928	0.232837
1125.019999	0.231872
1125.178052	0.227369
1125.336088	0.233879
1125.494104	0.234058
1125.652103	0.246213
1125.810083	0.250075
1125.968045	0.248143
1126.125989	0.243062
1126.283915	0.238159
1126.441823	0.229051
1126.599712	0.233952
1126.757583	0.228764
1126.915436	0.230813
1127.073270	0.226065
1127.231087	0.221272
1127.388885	0.221622
1127.546665	0.223904
1127.704426	0.219741
1127.862170	0.231946
1128.019895	0.229560
1128.177602	0.236403
1128.335291	0.237958
1128.492961	0.236069
1128.650614	0.235656
1128.808248	0.236454
1128.965864	0.236476
1129.123461	0.234041
1129.281041	0.227363
1129.438602	0.230663
1129.596145	0.219571
1129.753670	0.218079
1129.911176	0.218191
1130.068665	0.227688
1130.226135	0.225087
1130.383587	0.222053
1130.541020	0.225400
1130.698436	0.228512
1130.855833	0.228897
1131.013212	0.233010
1131.170573	0.229765
1131.327915	0.224287
1131.485239	0.219456
1131.642545	0.223712
1131.799833	0.224967
1131.957103	0.228014
1132.114354	0.240865
1132.271588	0.244724
1132.428803	0.239907
1132.585999	0.244429
1132.743178	0.251349
1132.900338	0.245112
1133.057480	0.244212
1133.214604	0.245095
1133.371710	0.242746
1133.528797	0.234271
1133.685866	0.231350
1133.842917	0.242086
1133.999950	0.241036
1134.156964	0.242087
1134.313960	0.252013
1134.470938	0.246643
1134.627898	0.240862
1134.784840	0.239888
1134.941763	0.237298
1135.098668	0.232002
1135.255555	0.230480
1135.412424	0.229850
1135.569274	0.228253
1135.726107	0.231359
1135.882921	0.231268
1136.039716	0.233492
1136.196494	0.235186
1136.353253	0.232034
1136.509995	0.237423
1136.666717	0.232391
1136.823422	0.234343
1136.980109	0.236453
1137.136777	0.227372
1137.293427	0.227914
1137.450059	0.225143
1137.606672	0.219496
1137.763267	0.229497
1137.919844	0.226738
1138.076403	0.227528
1138.232944	0.223801
1138.389466	0.227442
1138.545971	0.225378
1138.702457	0.223123
1138.858924	0.228550
1139.015374	0.244776
1139.171805	0.233339
1139.328218	0.243650
1139.484613	0.247833
1139.640990	0.243723
1139.797348	0.232258
1139.953688	0.231101
1140.110010	0.240150
1140.266314	0.240766
1140.422600	0.227850
1140.578867	0.232682
1140.735116	0.223564
1140.891347	0.221468
1141.047559	0.232421
1141.203754	0.238287
1141.359930	0.248325
1141.516088	0.252450
1141.672228	0.251409
1141.828349	0.257476
1141.984452	0.261506
1142.140537	0.247286
1142.296604	0.244244
1142.452653	0.243806
1142.608683	0.245313
1142.764695	0.238131
1142.920689	0.227566
1143.076665	0.227051
1143.232622	0.226251
1143.388562	0.222988
1143.544483	0.231411
1143.700385	0.245931
1143.856270	0.238714
1144.012136	0.231988
1144.167985	0.229244
1144.323814	0.241052
1144.479626	0.241363
1144.635420	0.247514
1144.791195	0.252408
1144.946952	0.258769
1145.102691	0.241324
1145.258411	0.253690
1145.414113	0.266738
1145.569798	0.269194
1145.725463	0.259315
1145.881111	0.251360
1146.036741	0.247610
1146.192352	0.230570
1146.347945	0.231333
1146.503519	0.243366
1146.659076	0.239086
1146.814614	0.231583
1146.970134	0.245315
1147.125636	0.244014
1147.281120	0.251687
1147.436585	0.245381
1147.592032	0.265507
1147.747461	0.273443
1147.902872	0.269262
1148.058265	0.268873
1148.213639	0.262177
1148.368995	0.240805
1148.524333	0.243914
1148.679653	0.246667
1148.834954	0.249418
1148.990237	0.238516
1149.145502	0.223971
1149.300749	0.221598
1149.455977	0.215202
1149.611188	0.217539
1149.766380	0.222106
1149.921553	0.222847
1150.076709	0.219603
1150.231846	0.220905
1150.386966	0.226439
1150.542066	0.234379
1150.697149	0.235010
1150.852214	0.233869
1151.007260	0.243861
1151.162288	0.244558
1151.317298	0.242673
1151.472289	0.245054
1151.627263	0.238632
1151.782218	0.229308
1151.937155	0.222736
1152.092073	0.221025
1152.246974	0.233504
1152.401856	0.216308
1152.556720	0.208127
1152.711566	0.209617
1152.866393	0.215368
1153.021203	0.210199
1153.175994	0.209719
1153.330767	0.220800
1153.485521	0.226847
1153.640258	0.220021
1153.794976	0.226473
1153.949676	0.245947
1154.104358	0.247656
1154.259021	0.233983
1154.413667	0.244119
1154.568294	0.243899
1154.722903	0.228617
1154.877493	0.221853
1155.032066	0.218108
1155.186620	0.225694
1155.341156	0.220044
1155.495674	0.213964
1155.650173	0.226150
1155.804654	0.226343
1155.959118	0.237541
1156.113562	0.257335
1156.267989	0.264982
1156.422397	0.268450
1156.576788	0.258617
1156.731160	0.262353
1156.885513	0.272140
1157.039849	0.258018
1157.194166	0.245688
1157.348465	0.240879
1157.502746	0.219680
1157.657009	0.211545
1157.811253	0.206362
1157.965479	0.203960
1158.119687	0.198774
1158.273877	0.193432
1158.428048	0.199347
1158.582201	0.215836
1158.736337	0.216900
1158.890453	0.228167
1159.044552	0.232510
1159.198632	0.229764
1159.352694	0.257664
1159.506738	0.251243
1159.660764	0.245486
1159.814771	0.243531
1159.968761	0.239677
1160.122732	0.246450
1160.276685	0.256763
1160.430619	0.260499
1160.584535	0.269145
1160.738434	0.251952
1160.892313	0.252942
1161.046175	0.255985
1161.200019	0.272941
1161.353844	0.291769
1161.507651	0.292317
1161.661440	0.285280
1161.815210	0.292111
1161.968962	0.284796
1162.122697	0.283092
1162.276412	0.281618
1162.430110	0.287273
1162.583789	0.277785
1162.737451	0.267959
1162.891094	0.267011
1163.044718	0.269091
1163.198325	0.261883
1163.351913	0.275333
1163.505483	0.282766
1163.659035	0.298336
1163.812569	0.307824
1163.966084	0.307044
1164.119581	0.301504
1164.273060	0.285741
1164.426521	0.291955
1164.579964	0.286567
1164.733388	0.271182
1164.886794	0.264458
1165.040182	0.254074
1165.193551	0.233793
1165.346903	0.237581
1165.500236	0.239439
1165.653551	0.248237
1165.806848	0.229060
1165.960126	0.214333
1166.113386	0.214920
1166.266628	0.213645
1166.419852	0.218420
1166.573058	0.246467
1166.726245	0.228758
1166.879414	0.237654
1167.032565	0.238786
1167.185698	0.248795
1167.338812	0.275735
1167.491909	0.262479
1167.644987	0.273939
1167.798046	0.266939
1167.951088	0.244892
1168.104111	0.257041
1168.257117	0.232302
1168.410103	0.227719
1168.563072	0.221972
1168.716023	0.204644
1168.868955	0.225400
1169.021869	0.196956
1169.174765	0.204623
1169.327642	0.220944
1169.480501	0.212986
1169.633343	0.211908
1169.786165	0.214484
1169.938970	0.223161
1170.091757	0.229587
1170.244525	0.229667
1170.397275	0.260242
1170.550007	0.257286
1170.702720	0.252367
1170.855415	0.247392
1171.008092	0.250458
1171.160751	0.245958
1171.313392	0.237067
1171.466014	0.149856
1171.618619	0.197930
1171.771205	0.197930
1171.923772	0.197930
