sample name	sample
index	140
start time	 02-15-2021  01:53:28 PM
880	-0.018593
Peak Time (s)	91.538
Peak Height 	-0.01859
calc peak height	90,93
Baseline Time (s)	8.536
Baseline Value 	-0.003496
subtract baseline	10,4
Abs	0.007968
Peak Time (s)	90.537
Peak Height 	0.007968
calc peak height	90,93
Baseline Time (s)	9.036
Baseline Value 	1.3152E-4
subtract baseline	10,3
PK_550	-0.002815
Peak Time (s)	92.037
Peak Height 	-0.002815
calc peak height	90,93
Baseline Time (s)	11.537
Baseline Value 	-4.1922E-5
subtract baseline	10,2
PK_880	-0.006061
Peak Time (s)	91.036
Peak Height 	-0.006061
calc peak height	90,93
Baseline Time (s)	9.036
Baseline Value 	-0.001916
subtract baseline	10,1


Time (s)	A880-A510	A880-A775	A880-A975	A880	I510	I775	I975	I880	
0.036000	-0.001211	-0.002730	-0.003282	0.004322	4171.945190	14749.259559	3246.251163	8525.016631
0.536000	-0.000319	0.000190	-0.007943	0.003680	4175.990754	14845.437002	3243.878623	8533.162945
1.036500	-0.002839	-0.001826	0.002334	0.002222	4173.189542	14830.341184	3250.867603	8551.719474
1.537500	0.001511	-0.001038	0.010584	-0.000468	4191.902894	14924.908129	3257.555531	8586.118237
2.036500	-0.005223	-0.002343	0.000012	0.003460	4163.677723	14782.895378	3248.727760	8535.964085
2.537500	-0.001759	-0.000129	0.015455	0.000489	4180.631344	14923.613162	3259.990126	8573.865887
3.035000	0.003275	-0.000124	0.007056	-0.002205	4201.324592	14997.499807	3256.449357	8608.447870
3.535000	0.002379	-0.000066	0.004851	0.000180	4192.492880	14933.765481	3253.634665	8577.821669
4.037500	-0.004413	-0.001345	0.011946	0.002931	4167.186217	14824.163692	3256.297893	8542.697093
4.536000	0.000408	0.001010	0.019780	0.001075	4184.834076	14938.711762	3262.335244	8566.367267
5.036500	0.005400	-0.000250	-0.004106	0.000783	4198.994489	14912.267298	3247.866210	8570.101176
5.536500	-0.000397	0.001195	0.012488	0.002242	4179.592828	14911.892680	3257.056728	8551.463368
6.037000	0.002610	-0.000580	0.008203	0.000208	4193.037559	14918.962011	3255.669849	8577.457965
6.537000	0.003677	0.000535	-0.000310	0.001215	4193.198680	14921.911825	3249.881272	8564.574341
7.034500	0.002321	0.000568	-0.000989	0.001006	4190.124289	14928.502589	3249.599069	8567.248750
7.535500	0.001632	-0.000730	0.000876	-0.000005	4190.987998	14920.684515	3251.332306	8580.187211
8.035000	0.001606	0.000963	0.007806	0.000840	4188.657253	14943.821504	3255.037690	8569.364381
8.535500	-0.001301	-0.000224	-0.006406	0.000000	4183.147074	14934.343604	3246.962591	8580.121665
9.035500	0.000000	-0.000352	0.000000	-0.000245	4187.264824	14937.556029	3250.947922	8583.257570
9.536000	0.001867	0.000070	0.006946	0.000626	4189.926358	14925.281356	3254.642118	8572.101777
10.036000	-0.001403	-0.000331	-0.000933	-0.000080	4183.086895	14933.600135	3250.285933	8581.142030
10.536000	0.002574	0.000221	-0.006200	0.000665	4191.714500	14928.338800	3246.689632	8571.602169
11.037000	-0.001401	0.000479	0.013631	-0.000823	4185.070693	14976.104200	3259.669692	8590.672145
11.537500	0.000741	0.000000	0.017329	0.002031	4183.174447	14885.082019	3260.196967	8554.155916
12.034500	0.003895	-0.000455	0.002597	-0.001089	4199.985820	14957.822435	3253.034352	8594.098898
12.535000	0.004356	0.002152	0.008899	0.000771	4196.214572	14978.299669	3255.751528	8570.255639
13.035000	-0.000184	0.000860	-0.003637	-0.001982	4191.418148	15018.414410	3249.803207	8605.576915
13.538500	-0.002998	-0.000035	0.022791	0.003433	4169.581885	14846.062934	3262.746739	8536.307457
14.035000	-0.000730	-0.000122	0.008538	-0.001408	4188.420191	14975.686039	3256.871835	8598.188903
14.535500	-0.000183	0.001527	0.011667	0.002015	4180.761338	14927.139359	3256.690385	8554.359291
15.036000	0.003531	0.000577	0.015650	0.000224	4195.465491	14950.113620	3260.276908	8577.249236
15.571000	0.002001	0.000027	0.001388	0.003954	4181.415604	14833.616671	3249.256463	8529.691282
16.037000	0.000805	-0.000553	0.003516	0.004603	4176.523476	14800.363967	3250.144831	8521.455387
16.537500	-0.000035	0.000893	-0.000939	-0.000108	4186.808389	14967.877780	3250.299153	8581.507811
17.035000	0.001731	-0.000681	-0.001987	-0.000823	4193.444438	14944.358446	3250.098630	8590.677079
17.535000	-0.002155	-0.000242	-0.000417	0.004540	4168.888338	14810.470784	3247.825414	8522.248822
18.040500	0.002789	0.002531	0.001820	0.003405	4184.970938	14916.616194	3249.845277	8536.665563
18.536000	0.005270	-0.001720	0.004823	-0.000953	4203.333342	14919.532242	3254.309582	8592.352088
19.036000	0.003837	-0.000412	0.008236	-0.000769	4198.964251	14950.230296	3256.291128	8589.981252
19.536500	0.000363	-0.000081	-0.004140	0.000511	4186.218304	14924.307594	3248.008361	8573.578857
20.037000	0.003255	0.000125	-0.005041	0.000565	4193.809715	14928.446668	3247.438706	8572.887544
20.536000	-0.002034	-0.000910	0.012420	-0.000718	4183.106905	14935.224604	3258.850213	8589.332504
21.037000	0.007367	0.001536	0.004252	0.001263	4203.009470	14947.932489	3252.609929	8563.959374
21.537500	0.003034	0.001749	0.013717	0.002283	4188.615404	14925.872626	3257.792048	8550.943726
22.035000	0.000691	-0.000127	0.022189	0.000847	4186.196317	14913.871350	3264.001830	8569.279161
22.535000	0.004730	0.000347	-0.000963	0.000375	4198.288047	14939.706600	3249.993815	8575.315471
23.035500	0.001649	0.000035	-0.000997	0.000170	4190.563728	14936.784802	3250.096891	8577.945513
23.536000	0.005712	-0.000445	0.012782	0.000853	4199.646187	14905.047617	3258.098970	8569.199660
24.036000	0.006531	0.000144	0.015981	-0.000141	4204.546665	14948.274807	3260.712450	8581.926170
24.536500	0.000549	-0.000715	0.003121	-0.000418	4189.194718	14932.374144	3252.945099	8585.482603
25.037000	0.004196	0.001066	0.012238	0.001456	4193.943117	14929.813432	3257.388437	8561.493694
25.537000	0.006702	-0.000098	0.020034	-0.000320	4205.497383	14946.540255	3263.376350	8584.223608
26.035000	-0.002126	0.001069	-0.004580	0.001528	4176.904514	14927.931900	3247.139978	8560.579455
26.534500	0.003316	0.001149	0.021912	0.001184	4192.315356	14939.537757	3263.613091	8564.977180
27.035000	0.004903	0.000430	-0.000861	0.000253	4199.084363	14945.320306	3250.128909	8576.886342
27.538000	0.004602	0.000524	0.014657	0.000801	4196.796307	14932.895815	3259.296807	8569.865074
28.037500	0.009833	0.000161	-0.001522	-0.001283	4216.647437	14980.019957	3250.655891	8596.581816
28.538500	0.003080	0.000841	-0.000282	-0.000645	4196.591954	14981.160566	3251.019377	8588.392694
29.036500	0.004682	0.000748	0.016170	-0.000488	4200.487366	14974.331525	3261.048825	8586.383309
29.537000	0.001849	-0.000789	-0.002157	0.000718	4189.632872	14899.359038	3249.071036	8570.928003
30.036500	0.002826	0.000615	0.005199	0.002751	4186.812885	14882.222862	3252.281904	8544.983731
30.534000	0.004210	0.001256	0.004898	0.000182	4197.407687	14969.878313	3253.662018	8577.794807
31.034500	0.002450	0.001234	0.020574	-0.000647	4194.902580	14991.985455	3263.925194	8588.414774
31.565500	-0.000695	0.000713	0.002112	0.000578	4183.219507	14944.143186	3251.727276	8572.715874
32.035000	0.003367	0.000850	0.016154	0.002557	4188.774894	14893.889712	3259.135342	8547.449593
32.535500	0.002636	0.001088	0.006125	0.000914	4191.215771	14945.234081	3253.964119	8568.422798
33.076500	0.006527	0.001015	0.008413	-0.000383	4205.191544	14978.730592	3256.162576	8585.026491
33.536000	0.004746	-0.000065	0.010008	-0.001273	4202.777793	14973.526240	3257.697080	8596.450602
34.036500	0.002116	-0.001144	0.016601	-0.000281	4193.023725	14916.925736	3261.189169	8583.725955
34.536000	0.002752	0.001131	0.010627	-0.000624	4195.652749	14988.548339	3257.678455	8588.117487
35.037000	0.001743	0.000876	0.013347	0.000423	4190.138568	14952.860753	3258.717082	8574.706821
35.540000	0.004923	0.000548	0.003130	0.001544	4195.662235	14913.299745	3251.759208	8560.376019
36.037500	0.004595	0.000309	0.001875	0.001250	4195.570187	14914.780292	3251.177451	8564.129869
36.535000	-0.000190	0.001221	0.017841	0.002078	4180.577044	14917.081541	3260.488103	8553.558997
37.038000	0.002174	0.000532	0.020932	0.001475	4188.475776	14914.720288	3262.809329	8561.249107
37.535500	0.002251	0.000310	0.011074	0.001137	4189.587812	14917.876188	3256.866189	8565.571213
38.036000	0.001486	0.000180	0.024454	0.001115	4187.602728	14914.948768	3265.270674	8565.858876
38.536000	0.005462	0.000701	0.009368	0.001261	4197.873807	14925.185774	3255.738979	8563.992101
39.036000	0.004651	0.000311	0.018130	0.001686	4194.547580	14902.946979	3260.914334	8558.560592
39.539500	0.005583	0.000260	0.004400	0.002378	4195.192015	14882.722981	3252.022923	8549.731657
40.040000	0.000378	-0.000543	-0.011317	0.000137	4187.254053	14921.904775	3243.977947	8578.361947
40.537500	0.002795	0.001705	0.026591	0.002210	4188.174038	14926.679669	3265.935366	8551.880436
41.035000	-0.000141	-0.001121	-0.012690	0.000255	4185.556873	14902.925794	3243.103556	8576.857975
41.535500	0.003905	-0.000644	0.002553	-0.000031	4197.158273	14923.719712	3252.364168	8580.519211
42.036000	-0.000312	-0.000244	0.003148	0.000286	4185.018073	14925.985310	3252.532777	8576.455227
42.535500	0.005625	0.002801	0.013681	0.002819	4194.121729	14939.987925	3257.437651	8544.114912
43.036500	0.005325	0.000341	0.018670	0.001934	4195.694993	14897.017670	3261.097505	8555.401766
43.539000	0.001933	0.000916	0.002259	0.001509	4187.743493	14924.279524	3251.253037	8560.821904
44.036500	0.003522	0.000212	0.017923	0.001504	4192.008628	14905.217869	3260.899014	8560.884983
44.537000	0.002727	-0.000397	-0.001336	0.000960	4191.335833	14903.450065	3249.418152	8567.836977
45.037500	0.004453	0.000464	0.014122	-0.002956	4206.546472	15034.339830	3261.312161	8618.130012
45.537500	0.002075	0.001250	0.012309	0.006012	4176.156915	14811.027044	3254.627917	8503.617965
46.035000	0.008103	0.001924	-0.009573	0.001056	4205.565023	14964.228077	3244.463530	8566.606890
46.538500	0.001595	0.001423	0.018237	0.000345	4189.951804	14969.988946	3261.823513	8575.706251
47.035500	0.009599	0.001905	0.012993	0.000593	4210.887499	14976.390195	3258.391535	8572.530577
47.535500	-0.001453	0.000787	0.007051	0.003925	4172.354835	14854.999680	3252.693330	8530.055918
48.036000	0.002395	-0.000594	0.016043	-0.000875	4195.368304	14948.145754	3261.211409	8591.341048
48.557000	0.002754	0.000147	0.014104	-0.000463	4195.224723	14957.167059	3259.740613	8586.056212
49.036500	0.002886	0.000934	0.027072	0.002023	4188.916746	14910.748079	3266.361441	8554.261590
49.537000	0.003282	0.001763	0.022051	0.003970	4184.780172	14880.304965	3261.942822	8529.491245
50.053500	0.010952	0.001713	0.005881	0.002472	4209.455642	14919.744445	3252.865760	8548.539079
50.537500	0.005272	0.000760	-0.004898	0.000278	4200.012353	14953.681218	3247.695140	8576.565171
51.038000	0.001244	-0.000926	0.008826	-0.000282	4190.688434	14922.866635	3256.354768	8583.731882
51.535500	0.007360	-0.000572	0.015593	0.001507	4202.329757	14883.762937	3259.440232	8560.840585
52.035500	0.008538	0.000162	0.014019	-0.000160	4210.049186	14949.275944	3259.498088	8582.168711
52.536000	0.007967	0.000620	0.006107	0.000163	4207.618339	14952.982098	3254.412211	8578.039876
53.036500	-0.016267	-0.022808	0.030857	0.351174	3525.206883	8086.968637	3114.060429	5494.402883
53.536500	-0.034254	-0.018338	0.001775	0.049611	3983.167550	13221.107706	3223.464728	7979.416851
54.037000	-0.027994	-0.012758	-0.025959	-0.214509	4808.091658	21959.961690	3393.288618	12134.453431
54.537000	-0.028957	-0.012206	-0.006403	-0.162152	4602.434659	19835.778925	3363.857238	11098.790951
55.037500	-0.034498	-0.013461	-0.007667	-0.087474	4336.914082	17146.244040	3303.672735	9821.784828
55.535000	-0.031292	-0.013412	-0.015159	-0.125827	4468.345555	18447.648061	3326.868118	10450.186858
56.037500	-0.018570	-0.008422	-0.007109	-0.143091	4571.306296	19256.256629	3347.164804	10751.692242
56.535500	-0.021372	-0.011953	-0.004281	-0.119341	4479.778967	18270.680334	3330.305879	10339.981335
57.035500	-0.020860	-0.005693	0.003228	-0.103601	4429.763088	17942.465031	3323.892562	10079.283544
57.535500	-0.019474	-0.008084	-0.002844	-0.081647	4364.924228	17131.663741	3302.945230	9731.073085
58.036000	-0.017738	-0.005101	-0.008624	-0.100744	4430.617360	17865.087400	3312.730190	10032.962956
58.536500	-0.014943	-0.003883	0.003648	-0.097638	4429.612244	17800.904993	3319.641260	9982.947655
59.036000	-0.010471	-0.002433	0.003568	-0.080565	4389.532009	17280.389315	3306.825747	9714.365460
59.534500	-0.012074	-0.002249	-0.002196	-0.078834	4379.118387	17229.836022	3301.382615	9687.705932
60.035000	-0.010582	-0.003101	-0.000218	-0.064256	4339.017944	16735.553156	3292.441766	9467.462134
60.538000	-0.007822	-0.003204	-0.000770	-0.050612	4306.572895	16309.755560	3282.673554	9267.914677
61.035500	-0.007318	-0.004574	0.010408	-0.048649	4302.284835	16208.521989	3288.978235	9239.724528
61.536000	-0.008845	-0.003208	-0.000636	-0.041990	4278.491799	16049.365316	3276.984214	9145.012904
62.036000	-0.007421	-0.003498	0.007955	-0.040047	4276.997292	15982.777454	3281.431013	9117.648407
62.536000	-0.007019	-0.003479	-0.004412	-0.035155	4264.151243	15838.668039	3270.025737	9049.293006
63.036500	-0.015170	-0.005840	-0.003192	-0.042911	4263.028288	15998.306411	3275.900951	9158.021029
63.537000	-0.020982	-0.007672	-0.005442	-0.035442	4225.835631	15724.357275	3269.545042	9053.291955
64.038500	-0.017909	-0.004882	0.010973	-0.033780	4229.734897	15757.281614	3279.249167	9030.229438
64.534500	-0.013725	-0.005160	-0.007228	-0.039426	4257.240186	15915.058394	3270.970085	9108.926980
65.037500	-0.015088	-0.004965	-0.000430	-0.044722	4268.422455	16078.510094	3278.940748	9183.684228
65.548500	-0.011387	-0.004867	-0.012298	-0.048086	4288.765941	16182.632503	3273.313240	9231.656661
66.035500	-0.016041	-0.004858	-0.015591	-0.049684	4279.924101	16231.240396	3272.204208	9254.562851
66.536000	-0.017308	-0.003718	-0.015228	-0.049896	4276.889533	16272.316540	3272.580243	9257.619462
67.036000	-0.018191	-0.003139	-0.019810	-0.048783	4271.161660	16256.064366	3268.881469	9241.640214
67.539000	-0.013309	-0.003147	0.004380	-0.045263	4275.067596	16149.380274	3282.539218	9191.380747
68.036500	-0.015835	-0.004273	0.005662	-0.049527	4280.068769	16244.250939	3286.315385	9252.320519
68.540000	-0.011025	-0.001914	-0.010405	-0.047204	4287.255870	16245.322736	3273.976056	9219.040034
69.037500	-0.013812	-0.002558	-0.003562	-0.045841	4275.284400	16184.585007	3277.598728	9199.609875
69.534500	-0.019099	-0.005187	-0.009502	-0.041829	4248.860019	15985.542293	3271.053330	9142.734056
70.037500	-0.018510	-0.005649	-0.003030	-0.045751	4261.607795	16088.854876	3277.892946	9198.321101
70.535500	-0.021969	-0.004834	-0.009835	-0.046383	4253.604910	16132.324097	3273.811596	9207.327481
71.035000	-0.017233	-0.004976	-0.000302	-0.046308	4266.827254	16125.802163	3280.088545	9206.259618
71.536000	-0.018082	-0.004620	0.010785	-0.045841	4263.079277	16122.447665	3287.301493	9199.606958
72.035500	-0.018537	-0.004620	0.010123	-0.046007	4262.258010	16127.432235	3286.960695	9201.961639
72.539000	-0.015657	-0.004826	0.003208	-0.047234	4273.986588	16158.177750	3283.080315	9219.472866
73.035500	-0.011560	-0.005929	-0.005105	-0.047266	4285.888195	16125.950077	3277.520285	9219.930964
73.537500	-0.012820	-0.003606	-0.011495	-0.047135	4281.866940	16192.013741	3273.215861	9218.061332
74.037500	-0.010362	-0.003811	-0.011582	-0.047216	4289.215657	16188.255255	3273.211661	9219.208337
74.535000	-0.009244	-0.004163	0.003912	-0.046832	4291.350151	16166.042094	3283.284832	9213.727946
75.035000	-0.008185	-0.004432	0.007269	-0.047665	4296.865963	16183.062712	3286.140253	9225.629829
75.535500	-0.013905	-0.002760	-0.018807	-0.042004	4264.047782	16063.153038	3265.179992	9145.204456
76.035500	-0.009001	-0.003275	0.008636	-0.046743	4291.798385	16190.176777	3286.445659	9212.463689
76.536000	-0.009748	-0.002830	-0.005007	-0.044912	4284.320119	16148.367914	3276.024254	9186.393801
77.036000	-0.011581	-0.003471	0.003966	-0.045950	4282.021094	16160.304938	3282.723595	9201.152440
77.536500	-0.010521	-0.001981	0.001883	-0.043100	4276.862407	16119.387237	3279.402886	9160.698447
78.036500	-0.011742	-0.002405	-0.003070	-0.042610	4271.952591	16091.930960	3275.782022	9153.761491
78.537000	-0.012347	-0.002501	-0.007832	-0.042193	4269.029389	16076.576230	3272.379410	9147.881782
79.035000	-0.013588	-0.001556	0.002294	-0.040349	4260.244517	16049.676561	3277.841029	9121.891096
79.538000	-0.014902	-0.002264	-0.002687	-0.034865	4241.108722	15865.926981	3270.957225	9045.275077
80.035500	-0.012408	-0.002884	0.001279	-0.039622	4261.529976	15988.409178	3276.683386	9111.677673
80.536000	-0.013386	-0.002818	0.014342	-0.038041	4254.284029	15943.416069	3284.398976	9089.529006
81.036000	-0.013289	-0.002620	0.003655	-0.037643	4253.435439	15937.488976	3276.947101	9083.963486
81.536500	-0.018270	-0.003195	-0.013989	-0.032920	4226.359311	15781.462952	3262.477843	9018.325784
82.036500	-0.014880	-0.003445	-0.013805	-0.035993	4244.323532	15864.366563	3264.538211	9060.951629
82.536500	-0.010078	-0.004641	-0.004224	-0.036205	4258.447334	15835.400315	3270.828983	9063.907049
83.037500	-0.009226	-0.001359	-0.002968	-0.032908	4251.542305	15834.984827	3269.506725	9018.166837
83.537500	-0.015312	-0.003798	-0.002307	-0.028258	4221.665459	15628.264354	3266.938843	8954.227843
84.038000	-0.014477	-0.004488	0.001707	-0.033231	4237.737732	15752.741262	3272.756581	9022.628787
84.535000	-0.012601	-0.004171	0.000687	-0.031945	4239.383330	15724.490430	3271.252580	9004.871079
85.035500	-0.010276	-0.004343	-0.003337	-0.030777	4242.612419	15685.505824	3267.894225	8988.779688
85.535500	-0.013462	-0.004345	-0.015893	-0.028741	4228.097006	15626.415653	3258.670123	8960.844049
86.036000	-0.014910	-0.005993	-0.000900	-0.030804	4229.795867	15638.418578	3269.483056	8989.145951
86.539000	-0.013446	-0.004005	-0.009365	-0.028517	4227.521991	15629.759787	3262.617137	8957.772606
87.036500	-0.014515	-0.003189	0.000472	-0.026757	4219.733391	15602.513516	3267.759062	8933.742064
87.537000	-0.014480	-0.004738	0.002073	-0.024664	4214.100333	15497.864510	3267.443362	8905.294513
88.037500	-0.017518	-0.003482	0.003415	-0.025960	4209.351736	15571.072140	3269.140897	8922.888164
88.535000	-0.011217	-0.003100	-0.013763	-0.025142	4224.361135	15558.543718	3257.758619	8911.779114
89.035000	-0.010239	-0.003959	-0.015650	-0.025259	4227.382362	15537.222306	3256.664082	8913.370231
89.535500	-0.013447	-0.003127	0.002679	-0.020807	4206.414502	15433.731652	3265.364214	8853.215050
90.035500	-0.011611	-0.005171	-0.008082	-0.025140	4223.269554	15499.048021	3261.299010	8911.743110
90.536500	-0.010082	-0.005236	0.007968	-0.025949	4229.720864	15520.393071	3272.089702	8922.740407
91.036000	-0.006061	-0.003986	-0.010313	-0.024635	4237.233272	15518.541514	3259.587341	8904.889298
91.538500	-0.017366	-0.003892	-0.022598	-0.018593	4189.891031	15349.203170	3248.394466	8823.528659
92.037000	-0.010330	-0.002815	-0.003342	-0.023073	4221.110108	15507.340359	3262.982809	8883.754107
92.536500	-0.009184	-0.003239	-0.002243	-0.023869	4226.455262	15517.992999	3264.181851	8894.517409
93.037500	-0.012941	-0.003369	-0.005153	-0.023621	4215.452642	15507.158607	3262.185880	8891.154453
93.540500	-0.011913	-0.004585	-0.016824	-0.019711	4207.601590	15361.232095	3252.548476	8838.502947
94.035000	-0.013443	-0.002614	0.006276	-0.022497	4211.016356	15496.593199	3268.752469	8875.969122
94.535500	-0.014738	-0.003863	-0.005615	-0.022478	4207.443631	15460.367024	3261.176775	8875.716744
95.035500	-0.012571	-0.003403	-0.000518	-0.022299	4212.855141	15468.379429	3264.279901	8873.296187
95.602000	-0.014376	-0.003698	-0.005909	-0.022546	4208.612783	15467.014020	3261.035226	8876.633030
96.036000	-0.012620	-0.003097	0.004440	-0.021564	4210.717633	15456.160548	3266.973098	8863.399481
96.542000	-0.009792	-0.002845	-0.005345	-0.021789	4219.061337	15469.748207	3260.913886	8866.422280
97.037000	-0.009900	-0.003961	-0.008255	-0.021280	4217.371864	15423.463573	3258.779671	8859.577465
97.534000	-0.019471	-0.004210	-0.005349	-0.016208	4177.939819	15273.028294	3257.436223	8791.721374
98.037000	-0.014058	-0.003352	0.011732	-0.020618	4204.244582	15421.949866	3271.068874	8850.669779
98.546000	-0.012321	-0.002532	-0.000818	-0.019123	4204.898602	15402.757327	3262.083476	8830.619024
99.035500	-0.015474	-0.004472	0.000865	-0.020889	4201.148550	15397.835911	3264.263221	8854.319673
