sample name	sample
index	1231
start time	 04-29-2021  11:08:36 AM
880	0.445593
Peak Time (s)	91.535
Peak Height 	0.4456
calc peak height	90,93
Baseline Time (s)	9.036
Baseline Value 	-0.001006
subtract baseline	10,4
Abs	0.308428
Peak Time (s)	91.034
Peak Height 	0.3084
calc peak height	90,93
Baseline Time (s)	9.537
Baseline Value 	0.001459
subtract baseline	10,3
PK_550	0.173450
Peak Time (s)	91.535
Peak Height 	0.1735
calc peak height	90,93
Baseline Time (s)	9.036
Baseline Value 	9.0886E-4
subtract baseline	10,2
PK_880	0.295848
Peak Time (s)	90.567
Peak Height 	0.2958
calc peak height	90,93
Baseline Time (s)	9.537
Baseline Value 	-5.8353E-6
subtract baseline	10,1


Time (s)	A880-A510	A880-A775	A880-A975	A880	I510	I775	I975	I880	
0.036500	-0.000338	-0.000554	-0.000656	0.001403	6193.350449	44177.778712	3874.633817	22758.792505
0.538000	-0.003224	-0.000824	0.000933	0.004679	6146.650766	43842.141706	3870.686648	22609.357484
1.037500	0.000241	-0.001630	-0.006850	0.002408	6190.101844	43980.378576	3857.890672	22712.806475
1.537500	0.000767	-0.000838	-0.001159	-0.000061	6213.027168	44290.099233	3876.889664	22825.961316
2.035500	0.000326	-0.000701	0.000913	0.000943	6201.943271	44207.483430	3879.403081	22779.858629
2.535500	-0.003383	-0.000444	-0.001333	0.001207	6171.682521	44206.966281	3873.507589	22767.797953
3.035500	0.000547	-0.000217	-0.001966	-0.002436	6229.609287	44576.690666	3880.580417	22935.362994
3.536000	0.000797	-0.001680	-0.004038	-0.000742	6218.486703	44274.734285	3871.736929	22857.271070
4.036500	-0.000516	-0.000754	-0.000800	0.000764	6196.877324	44219.625076	3875.796126	22788.103430
4.537000	-0.000201	0.000207	-0.002393	0.000283	6202.959702	44356.933978	3873.186156	22810.143926
5.036500	0.000704	-0.001219	-0.000798	-0.000715	6217.566470	44316.229304	3879.279710	22856.049194
5.540500	-0.000327	-0.000497	0.000265	-0.000299	6206.455992	44345.346560	3880.802647	22836.894960
6.034500	-0.000935	-0.001249	0.003758	-0.000754	6205.288124	44317.030451	3890.159879	22857.826235
6.535500	0.000595	-0.000221	0.001252	-0.000297	6213.512210	44371.504701	3883.129277	22836.800299
7.035000	-0.001957	0.000056	0.000008	-0.000068	6192.222800	44376.098758	3879.653421	22826.272618
7.535500	-0.002630	-0.000901	0.003354	-0.000680	6191.759201	44343.212981	3889.022600	22854.436180
8.035500	-0.001410	-0.000521	0.003727	-0.000821	6202.165757	44392.917263	3890.245691	22860.921049
8.536000	0.001371	0.000090	-0.003489	0.000235	6215.391856	44350.424404	3870.735415	22812.355455
9.036000	0.001745	0.000000	0.001315	0.000000	6220.073505	44364.253471	3882.576457	22823.152806
9.536500	0.000000	0.000055	0.000000	0.000227	6204.936138	44347.849044	3878.939893	22812.748969
10.040000	-0.000314	-0.000364	0.003252	-0.000432	6207.575933	44370.827920	3888.190435	22843.026779
10.537000	0.001962	0.000224	-0.001979	-0.000272	6223.837885	44411.722897	3875.461025	22835.672153
11.035000	-0.000331	-0.000043	-0.000566	-0.000309	6206.502732	44389.668454	3878.869334	22837.357541
11.535000	-0.000595	-0.000392	0.000932	0.003062	6178.758997	44035.784583	3874.467170	22682.971243
12.035500	0.000716	-0.000217	0.001694	-0.000764	6218.033430	44416.512733	3885.282651	22858.296813
12.535500	0.001636	-0.000256	-0.005900	-0.000721	6224.787911	44408.654192	3867.342649	22856.305147
13.039000	0.001542	-0.000509	0.003028	-0.002272	6236.033225	44532.922578	3892.035647	22927.788418
13.536000	-0.001139	-0.001299	-0.000425	0.002440	6179.354468	44008.752217	3872.743779	22711.359297
14.036500	-0.000971	-0.000603	0.000290	0.001152	6190.438859	44196.975425	3877.443242	22770.284178
14.536500	0.000979	-0.000683	-0.006411	0.000431	6210.875084	44258.088102	3863.480155	22803.375395
15.036500	0.002956	0.000482	0.002958	-0.001331	6239.687722	44537.735283	3889.628250	22884.390828
15.535000	0.000741	-0.000302	-0.003234	0.001948	6197.432922	44149.943936	3867.337089	22733.868452
16.035000	0.000067	-0.000594	-0.003368	0.002366	6189.094356	44082.566993	3866.050670	22714.730945
16.538000	0.000008	-0.001457	0.001403	-0.002424	6225.362037	44456.651278	3888.528910	22934.810533
17.035500	0.002315	-0.000774	0.002916	-0.004454	6258.958500	44717.209211	3896.987257	23028.843538
17.536000	-0.002196	-0.000979	0.000277	0.000506	6186.030241	44222.730493	3878.935675	22799.938292
18.036500	-0.002604	-0.000018	-0.002407	0.001944	6171.996462	44177.259055	3869.272434	22734.029591
18.536500	-0.000806	-0.000144	-0.000719	-0.000027	6200.703366	44353.050851	3877.844306	22824.391798
19.037000	-0.001145	-0.001107	0.002666	-0.000900	6204.790038	44344.459188	3887.910866	22864.537193
19.539000	-0.001741	-0.000558	-0.002825	0.001499	6181.936554	44168.302185	3869.336434	22754.417401
20.037500	-0.000428	-0.001202	-0.000301	-0.000335	6205.962797	44281.506343	3879.553271	22838.552945
20.537500	0.001123	-0.000228	-0.000077	0.000047	6214.935223	44338.006102	3879.182039	22821.008991
21.035500	-0.001597	0.000128	-0.002833	0.000353	6191.758262	44342.749703	3871.994258	22806.941214
21.535500	-0.002075	-0.001378	-0.001372	0.001076	6182.613943	44130.580466	3873.722227	22773.794166
22.035500	0.000798	-0.000672	-0.000258	-0.000006	6212.840799	44300.722063	3878.880988	22823.438782
22.536000	-0.000079	0.000027	-0.000582	0.000251	6204.141996	44342.837228	3877.512441	22811.626512
23.036000	-0.001119	0.000047	-0.000766	0.000269	6196.048003	44343.000633	3877.036325	22810.787953
23.536500	-0.002288	-0.001074	0.001707	0.001218	6179.904878	44145.972258	3880.625638	22767.258728
24.036500	-0.001001	-0.001473	0.002981	-0.000946	6206.252577	44313.930910	3888.768577	22866.654329
24.540000	-0.000461	-0.000094	-0.002638	0.000019	6202.998685	44353.494885	3873.233873	22822.299568
25.038500	-0.000440	-0.000246	-0.001950	0.000464	6199.749437	44296.489934	3873.801205	22801.827116
25.535000	-0.001550	-0.000356	0.002471	0.000073	6194.251116	44323.238869	3885.138331	22819.776858
26.035000	0.002362	-0.000385	0.001442	0.000216	6223.158371	44306.891810	3882.365932	22813.222319
26.535000	-0.000457	-0.000608	0.000350	0.000103	6202.386564	44296.449889	3880.055535	22818.432527
27.035500	-0.000172	-0.000370	0.004250	-0.001808	6219.237958	44501.771115	3893.848291	22906.396915
27.539000	0.002314	-0.000294	0.002112	-0.002699	6245.314702	44594.558922	3890.871015	22947.540893
28.036500	-0.004778	-0.000901	-0.000062	0.003652	6142.683663	43931.724118	3870.760047	22656.075161
28.536500	0.001511	-0.000088	0.004414	-0.001855	6232.574288	44533.331620	3894.351002	22908.564582
29.040000	0.001411	-0.000152	0.000695	-0.002080	6233.532515	44548.692943	3886.032551	22918.926306
29.537000	-0.000785	-0.001056	0.001427	0.003047	6177.436876	43974.359654	3875.664405	22683.676035
30.035000	-0.000960	-0.000212	0.001890	0.004535	6164.820576	43913.426623	3873.259710	22615.891685
30.534500	0.000334	-0.000028	0.000251	0.000981	6201.716832	44268.064364	3877.754966	22778.136603
31.035500	-0.001135	-0.000675	-0.000082	0.000036	6197.704866	44296.435991	3879.195414	22821.498586
31.536000	-0.003430	-0.000912	0.000775	0.003154	6156.588387	43977.801695	3873.884364	22678.770758
32.036000	-0.000787	0.000600	0.001439	0.003485	6174.087971	44089.655239	3874.664165	22663.663210
32.536500	0.000153	0.000178	0.002521	-0.001958	6222.897741	44568.748409	3890.082194	22913.329746
33.036500	-0.000968	-0.000154	0.003066	-0.002282	6216.753059	44567.949771	3892.152098	22928.253588
33.544000	-0.000397	-0.001136	0.000480	0.001940	6188.802994	44071.554456	3876.038116	22734.215881
34.037500	-0.001744	-0.000272	-0.000894	0.001533	6181.649886	44192.256599	3873.770770	22752.840696
34.535000	-0.000824	-0.000454	-0.001217	0.000675	6195.204551	44256.550811	3875.025706	22792.169820
35.035000	-0.002550	-0.000389	-0.001988	0.000612	6182.525552	44268.766469	3873.364749	22795.041134
35.535500	-0.000726	-0.000517	-0.001033	0.002432	6182.558507	44083.626815	3871.342854	22711.745654
36.035500	-0.002524	-0.000465	0.003179	0.001701	6174.447072	44157.997668	3882.963233	22745.165618
36.536000	-0.000782	0.000047	0.000445	0.001348	6190.385646	44240.184269	3877.348428	22761.328604
37.036500	-0.002937	-0.001172	-0.001060	0.000329	6181.733337	44221.144899	3876.206639	22808.042736
37.537500	-0.003787	-0.001056	0.003397	0.001572	6165.847482	44114.024812	3883.782936	22751.053873
38.039500	-0.001070	-0.000359	-0.000593	0.000838	6192.081344	44250.081026	3876.106111	22784.684260
38.540000	0.001103	0.000322	-0.001576	0.001231	6205.691940	44277.593498	3872.881800	22766.690839
39.037000	0.000544	-0.000838	-0.004224	0.000584	6206.365031	44228.638489	3868.207572	22796.326150
39.537500	0.000022	-0.000212	-0.000597	0.000569	6202.485529	44289.815875	3876.730161	22797.047334
40.035000	-0.000677	-0.001060	0.003135	0.000320	6199.035287	44232.714336	3886.126917	22808.456978
40.535000	-0.001481	-0.000081	0.001775	0.000716	6189.871650	44288.146363	3881.971341	22790.265384
41.035500	-0.001080	-0.000563	0.001439	0.000474	6194.782998	44265.302198	3881.749542	22801.380025
41.536000	-0.002006	-0.000578	-0.001225	0.000379	6188.440880	44272.949287	3875.702947	22805.760879
42.035500	-0.002247	-0.000768	-0.007185	0.000488	6185.778011	44244.481053	3861.553831	22800.755763
42.536500	0.000010	-0.000269	-0.002526	0.000449	6203.305363	44295.666009	3872.485917	22802.512442
43.039500	-0.001165	-0.000077	-0.005808	0.000871	6191.104341	44273.846254	3863.857326	22783.167679
43.537000	0.000204	0.000496	-0.000228	0.003223	6183.617775	44104.706141	3871.375991	22675.637496
44.037500	0.000444	-0.000859	-0.001445	-0.002687	6230.755958	44539.107522	3882.403355	22946.970689
44.538000	0.001872	-0.000217	0.002267	-0.002073	6237.047433	44541.937163	3889.751087	22918.643430
45.035500	0.003024	-0.000681	0.002383	-0.002299	6247.721783	44519.076079	3890.566280	22929.068622
45.535500	0.000309	-0.000746	0.002180	0.001760	6195.567011	44125.658153	3880.462898	22742.458123
46.035500	-0.001123	0.000113	0.000142	0.003381	6172.322113	44053.320390	3871.870060	22668.402566
46.536000	0.001654	-0.000945	0.003021	-0.002467	6238.411797	44509.874561	3892.487044	22936.822232
47.036500	-0.001166	-0.000079	0.000255	-0.001066	6205.901629	44458.594499	3882.590211	22872.187541
47.539500	0.000817	-0.000025	0.000199	0.003506	6186.131084	44028.521908	3871.711229	22662.742263
48.036500	-0.000961	0.000260	0.001284	0.002625	6179.297796	44139.032218	3876.316567	22702.894097
48.537500	0.001579	-0.000033	0.003240	-0.001868	6233.199058	44539.857784	3891.579740	22909.176181
49.034500	0.002966	-0.000645	0.001000	-0.001994	6244.907428	44493.279812	3886.552700	22914.969622
49.537500	-0.003621	-0.001341	-0.004874	0.002080	6163.259220	44038.795334	3863.217869	22727.810122
50.035000	-0.002501	0.000147	-0.004734	0.003921	6157.816385	44005.521737	3859.283403	22643.842844
50.535500	0.002499	0.000877	0.002304	0.002966	6203.092660	44165.209933	3877.914021	22687.350050
51.035500	0.023993	-0.017369	0.026630	0.289036	4686.116914	23373.511493	3415.425905	13126.066923
51.536500	0.011570	-0.026113	0.003417	-0.021480	6469.873498	43924.188816	3939.849870	23834.840545
52.035000	0.005641	-0.027922	0.004629	-0.099547	7118.908754	51800.083653	4156.869562	27963.265034
52.539500	-0.002773	-0.041226	0.000237	-0.191072	8013.349911	61451.890595	4445.841486	33849.981392
53.036000	0.021987	-0.026424	0.020502	-0.166806	8019.196166	60189.707608	4431.265538	32166.491528
53.534500	0.031697	-0.010455	0.035928	-0.073727	7121.217660	50868.542300	4173.383626	26514.910929
54.040500	0.039133	-0.001494	0.044470	-0.018382	6678.022363	46008.634223	4038.815171	23685.803728
54.535500	0.048815	0.010951	0.049147	0.015938	6468.436354	43890.743392	3960.786393	22104.166300
55.040500	0.067656	0.021319	0.070523	0.035482	6462.633628	43033.610977	3965.458055	21257.806148
55.535500	0.085366	0.033303	0.088000	0.067941	6342.940763	41185.140776	3927.844505	19933.640276
56.036000	0.109933	0.044965	0.111458	0.094825	6324.504741	39866.216897	3919.422066	18909.386417
56.536500	0.129850	0.057367	0.129466	0.137577	6147.974271	37370.640216	3860.540370	17405.733557
57.036000	0.145622	0.067917	0.150019	0.184636	5920.682841	34590.672973	3801.075265	15913.029479
57.537000	0.161292	0.076824	0.165789	0.223137	5764.864691	32502.727023	3752.894251	14806.551815
58.036000	0.177298	0.087097	0.186206	0.248707	5701.979540	31477.901954	3742.317009	14124.045594
58.537000	0.193735	0.097336	0.197535	0.273919	5645.488930	30509.135046	3714.437261	13489.332376
59.037000	0.205373	0.103185	0.208874	0.302503	5539.587002	29100.643457	3681.026624	12812.925149
59.535500	0.218033	0.110459	0.226237	0.327826	5463.100297	28033.811404	3666.047822	12249.765743
60.035000	0.224113	0.114036	0.235223	0.369083	5261.967778	25944.526741	3608.053961	11399.761922
60.535500	0.229190	0.119405	0.241340	0.360472	5338.303145	26698.617644	3633.987176	11570.559636
61.039000	0.237191	0.121590	0.250085	0.354559	5418.398791	27146.622889	3660.684407	11689.815066
61.536000	0.246178	0.126664	0.262046	0.400943	5208.803394	24945.974676	3599.383815	10796.432963
62.042500	0.242562	0.132195	0.254269	0.403558	5175.599235	25094.538421	3581.810605	10748.848629
62.537000	0.248655	0.136018	0.251758	0.402279	5214.934291	25356.870749	3579.754455	10772.077311
63.040000	0.250434	0.138075	0.257472	0.398405	5245.551869	25665.804011	3595.907425	10842.880611
63.540000	0.254125	0.139684	0.264085	0.395206	5283.409317	25919.287723	3612.809023	10901.821347
64.042000	0.253026	0.143534	0.262614	0.400712	5247.104579	25831.656313	3600.751380	10800.645094
64.538000	0.257720	0.146138	0.265045	0.399080	5281.867526	26056.481854	3607.748623	10830.496115
65.036000	0.258296	0.145726	0.269524	0.400540	5276.980388	25956.846257	3612.991524	10803.785421
65.536000	0.259240	0.147248	0.266602	0.409848	5231.218626	25547.051516	3591.976489	10635.551599
66.040000	0.258446	0.147867	0.276369	0.409780	5227.288084	25582.973478	3608.830904	10636.783701
66.537000	0.262867	0.150254	0.275925	0.409928	5250.518308	25700.242973	3607.806323	10634.138110
67.036500	0.264483	0.151685	0.274968	0.412860	5243.336197	25621.490521	3601.104951	10581.887366
67.537000	0.260643	0.150953	0.273679	0.421392	5176.905051	25141.851035	3584.449183	10431.874016
68.035000	0.263987	0.153232	0.274775	0.421555	5193.806002	25250.483602	3586.014724	10429.023453
68.537500	0.266566	0.152444	0.281207	0.420107	5215.380895	25284.502242	3599.377653	10454.279269
69.035500	0.265570	0.152245	0.284952	0.422566	5196.857814	25147.884074	3601.582719	10411.461329
69.535500	0.266160	0.154075	0.279196	0.433051	5144.624582	24708.757603	3574.221312	10231.571083
70.038500	0.268822	0.156373	0.284277	0.432734	5160.223176	24840.488909	3583.202131	10236.946822
70.535500	0.273259	0.157482	0.282322	0.432591	5184.417951	24903.832980	3580.174746	10239.369998
71.036500	0.272937	0.157850	0.284226	0.433298	5178.962320	24886.689479	3582.173041	10227.388524
71.539500	0.271476	0.157402	0.281998	0.440561	5133.201644	24499.625577	3566.480400	10105.370999
72.037000	0.278961	0.159927	0.281218	0.438485	5183.399495	24729.712710	3568.603202	10140.034048
72.537500	0.277760	0.161629	0.296545	0.439289	5172.784880	24774.955064	3592.829173	10126.599529
73.037500	0.276499	0.161214	0.292190	0.440956	5157.362229	24670.329642	3582.685150	10098.796937
73.535000	0.277225	0.159937	0.284466	0.446474	5132.350189	24332.235032	3560.868832	10007.538027
74.035000	0.278056	0.162017	0.291200	0.443837	5150.425529	24566.359742	3576.238094	10050.999873
74.535500	0.281607	0.163430	0.292236	0.442883	5174.118710	24684.804215	3579.546185	10066.796863
75.036000	0.277918	0.162498	0.292628	0.442759	5155.343054	24644.276806	3580.405256	10068.840212
75.536000	0.280336	0.162986	0.292917	0.449124	5134.746202	24351.937669	3570.344547	9964.116852
76.039000	0.283814	0.163145	0.297866	0.443010	5185.137833	24664.141401	3588.769082	10064.682438
76.536500	0.283594	0.163600	0.290150	0.443103	5183.475139	24682.287980	3575.714125	10063.141798
77.034000	0.283313	0.164706	0.294826	0.443124	5181.879938	24736.823753	3583.469685	10062.806460
77.534500	0.281442	0.164048	0.289576	0.447993	5146.395727	24460.580729	3566.718346	9982.610873
78.035500	0.284303	0.165376	0.303494	0.442281	5191.621951	24813.046567	3599.571497	10076.781287
78.537500	0.282821	0.166718	0.298773	0.443026	5179.787737	24843.187353	3590.273393	10064.419169
79.036000	0.282580	0.164578	0.303312	0.440237	5193.332719	24875.972330	3602.764703	10110.768398
79.536000	0.285124	0.165491	0.295388	0.447059	5170.636254	24578.907446	3577.842177	9997.919567
80.037000	0.284045	0.165335	0.299072	0.441433	5194.767540	24853.782223	3593.477943	10090.859352
80.536000	0.288787	0.166911	0.298992	0.439883	5228.571666	25012.435096	3595.977227	10116.668561
81.037000	0.288995	0.167781	0.303847	0.439925	5229.472728	25054.645092	3604.222571	10115.974781
81.537000	0.286397	0.167374	0.307160	0.438570	5222.754315	25103.104101	3612.306089	10138.624530
82.034000	0.288111	0.167998	0.302903	0.440041	5224.065764	25059.821923	3602.399409	10114.039573
82.534000	0.288347	0.168502	0.305196	0.438071	5236.016779	25186.474121	3609.761050	10146.981681
83.034500	0.288039	0.168823	0.301012	0.438447	5232.302400	25183.625529	3601.889262	10140.678015
83.535000	0.290769	0.170284	0.308334	0.438342	5247.721839	25264.162118	3614.749859	10142.432799
84.035000	0.291525	0.169627	0.304457	0.439885	5243.433383	25151.085476	3605.343704	10116.643472
84.535500	0.292344	0.170355	0.308183	0.438407	5255.975521	25264.456389	3614.373738	10141.352632
85.036000	0.294756	0.170480	0.302233	0.439022	5265.832655	25239.211548	3602.998517	10131.056515
85.539500	0.287692	0.169510	0.305374	0.444367	5198.574412	24916.617312	3599.219200	10042.242258
86.037000	0.291526	0.170304	0.297321	0.439963	5243.012176	25181.830240	3593.001380	10115.336650
86.536500	0.289779	0.171370	0.305437	0.438927	5239.141666	25289.939946	3608.692436	10132.643570
87.034500	0.291550	0.169680	0.305825	0.437031	5259.166615	25300.584401	3612.660796	10164.422458
87.537500	0.290798	0.170145	0.303348	0.436908	5255.720820	25330.958722	3608.572078	10166.491347
88.036000	0.291766	0.171461	0.299535	0.437690	5256.737399	25358.538175	3600.653710	10153.357813
88.535000	0.291991	0.172327	0.308268	0.438040	5256.052647	25385.234118	3615.163006	10147.487667
89.035000	0.286550	0.171009	0.296142	0.437179	5231.103701	25361.577601	3595.729745	10161.932567
89.536000	0.293228	0.171661	0.308205	0.437483	5265.896392	25379.591097	3616.025829	10156.827703
90.046000	0.292049	0.172599	0.303318	0.437771	5257.839060	25413.286828	3607.025851	10151.995611
90.566500	0.295848	0.172719	0.302933	0.438358	5275.513994	25389.110580	3605.348817	10142.171699
91.034000	0.295404	0.171336	0.308428	0.437846	5275.880605	25343.991494	3615.780826	10150.736135
91.534500	0.288371	0.173450	0.306260	0.445593	5195.655459	25054.726739	3598.637977	10022.030212
92.037500	0.293100	0.172904	0.306327	0.439648	5253.322781	25331.946895	3608.985157	10120.595495
92.534500	0.290315	0.170039	0.301011	0.437526	5249.698770	25293.589356	3603.471328	10156.118099
93.035000	0.293892	0.172153	0.306705	0.438484	5264.040117	25353.232967	3611.663258	10140.048758
93.541000	0.293330	0.173549	0.310910	0.440353	5250.721970	25328.801559	3615.738377	10108.834000
94.035000	0.290210	0.172522	0.298048	0.440021	5235.542804	25292.978860	3594.139106	10114.380930
94.539000	0.293567	0.173093	0.306800	0.440262	5252.515249	25309.982449	3608.741427	10110.353553
95.039500	0.295123	0.171876	0.309123	0.439540	5265.008918	25284.462581	3614.036624	10122.406110
95.537000	0.289104	0.172513	0.302444	0.447272	5190.612487	24921.647274	3589.302898	9994.433913
96.037000	0.293843	0.173329	0.308142	0.441856	5245.319748	25239.975104	3608.304300	10083.827766
