sample name	sample
index	1159
start time	 04-22-2021  03:54:47 PM
880	0.559248
Peak Time (s)	102.037
Peak Height 	0.5592
calc peak height	100,103
Baseline Time (s)	8.539
Baseline Value 	-0.002425
subtract baseline	10,4
Abs	0.343366
Peak Time (s)	101.037
Peak Height 	0.3434
calc peak height	100,103
Baseline Time (s)	11.037
Baseline Value 	0.003111
subtract baseline	10,3
PK_550	0.204292
Peak Time (s)	101.537
Peak Height 	0.2043
calc peak height	100,103
Baseline Time (s)	9.036
Baseline Value 	3.3539E-4
subtract baseline	10,2
PK_880	0.327806
Peak Time (s)	101.537
Peak Height 	0.3278
calc peak height	100,103
Baseline Time (s)	9.539
Baseline Value 	0.001374
subtract baseline	10,1


Time (s)	A880-A510	A880-A775	A880-A975	A880	I510	I775	I975	I880	
0.036500	-0.002178	-0.000292	-0.004002	0.002180	6245.937298	43199.245052	3913.866167	22642.686216
0.539500	-0.006410	-0.000994	-0.013279	0.005960	6185.704541	42786.734105	3884.527121	22472.061707
1.037500	-0.002809	-0.000740	-0.004395	0.003290	6232.749490	43055.380231	3910.443501	22592.423502
1.538000	-0.000001	0.000319	0.001237	0.001294	6269.259125	43338.034502	3927.935119	22682.899021
2.034500	-0.002290	-0.000495	0.001722	0.000459	6258.167817	43340.010700	3930.993386	22720.872625
2.538000	-0.004156	-0.000417	-0.011110	0.006481	6198.637203	42791.821636	3888.180589	22448.649654
3.035000	0.000295	-0.001149	-0.004964	-0.002786	6302.868631	43581.321509	3923.040607	22869.155775
3.536000	-0.000544	0.000916	-0.005796	0.000680	6269.804594	43450.738448	3913.195983	22710.842061
4.036000	-0.000565	0.000293	-0.002131	0.000076	6274.257086	43448.962862	3922.975402	22738.332686
4.536000	-0.001625	-0.000483	-0.003835	-0.000403	6269.818824	43421.307622	3920.159952	22760.178590
5.036500	-0.000090	0.000218	-0.003512	-0.000032	6278.722474	43452.020306	3920.047390	22743.257034
5.537000	-0.000487	0.000195	0.001343	-0.000038	6275.730792	43450.417243	3931.268513	22743.538138
6.037000	0.000926	0.000889	-0.003431	0.000518	6282.302561	43463.274012	3918.973906	22718.227819
6.534000	-0.001733	0.000079	-0.000510	0.000008	6265.850337	43435.255726	3926.868157	22741.414417
7.035000	-0.000501	0.000109	-0.002796	0.000044	6274.994161	43434.811857	3921.519615	22739.802365
7.535000	0.001601	0.000250	-0.001150	-0.000231	6293.238776	43473.533192	3925.943210	22752.334016
8.035500	-0.001904	-0.000047	0.002697	-0.000568	6268.946468	43477.275730	3935.651156	22767.710028
8.538500	-0.000456	-0.000166	0.002085	0.000000	6275.675751	43413.307869	3932.903564	22741.799300
9.036000	-0.000562	0.000000	-0.001808	-0.000257	6276.836998	43452.653434	3924.485479	22753.511610
9.538500	0.000000	0.000268	-0.005479	0.000388	6276.195380	43417.566824	3914.584360	22724.110086
10.036500	-0.001942	-0.000794	0.000004	-0.001212	6273.583155	43467.709536	3930.885868	22797.123862
10.537000	0.000709	0.000466	0.000325	0.000321	6282.140946	43442.163796	3928.076667	22727.160022
11.037000	0.001031	0.000597	0.000000	0.000562	6282.764480	43431.958595	3926.767629	22716.189885
11.535000	0.000417	-0.000024	-0.003065	-0.000594	6286.930650	43481.813354	3922.367273	22768.894243
12.035500	-0.001432	-0.000018	-0.002692	-0.000542	6272.351353	43477.489306	3923.105452	22766.492788
12.535500	-0.000118	0.000263	-0.001568	0.000007	6278.218409	43452.592313	3924.430189	22741.493619
13.036000	-0.000929	-0.000554	-0.000081	-0.000355	6274.772416	43410.238286	3928.701476	22757.981923
13.536000	0.001268	0.000580	0.000215	0.000195	6287.400278	43464.611186	3928.114762	22732.910021
14.036500	-0.002060	0.000782	-0.003624	0.002330	6245.690502	43284.900117	3914.385334	22635.889831
14.536000	-0.001581	0.000207	-0.004598	0.001575	6255.067041	43301.574700	3913.886152	22670.146581
15.037000	-0.001831	0.000421	-0.002940	-0.000050	6265.548896	43472.585377	3921.404593	22744.080164
15.537000	0.000273	0.000615	-0.002102	-0.000105	6282.068513	43495.772592	3923.457817	22746.582146
16.037000	-0.000929	0.000144	-0.007103	-0.000865	6278.686060	43522.751783	3913.740248	22781.276632
16.537000	0.000516	0.000726	-0.002935	-0.000080	6283.738963	43503.852636	3921.483192	22745.441191
17.035000	0.003278	0.000953	0.001972	-0.002469	6323.513409	43748.541802	3938.396426	22854.645207
17.536000	0.000947	0.001128	-0.002820	0.001151	6277.609993	43426.620904	3918.921094	22689.415960
18.039000	-0.000597	0.001141	-0.002363	0.001275	6264.853620	43416.265135	3919.684507	22683.770337
18.536000	-0.003292	-0.000160	0.003392	0.001080	6245.834874	43313.518243	3933.430615	22692.648274
19.036000	-0.000567	0.000708	-0.002861	0.001231	6265.417025	43380.115920	3918.644675	22685.788925
19.536500	-0.001639	-0.000080	-0.001100	0.000412	6263.484957	43382.900736	3924.574664	22723.018577
20.036500	-0.002373	-0.000143	0.000425	0.000403	6257.962673	43377.976939	3928.118290	22723.455649
20.537000	-0.000793	0.000162	-0.001406	0.000970	6265.679976	43353.613318	3922.585905	22697.629355
21.034500	-0.000301	-0.000075	-0.002962	0.000856	6270.311278	43342.157133	3919.273081	22702.826595
21.535000	-0.002183	0.001119	-0.001679	0.000829	6256.169393	43455.765389	3922.282444	22704.077739
22.035000	-0.000545	0.000438	-0.001624	0.001073	6266.794088	43369.724482	3921.846970	22692.967039
22.535500	-0.001349	0.000750	-0.000571	0.001560	6256.955135	43353.406133	3923.150672	22670.848541
23.035500	0.000865	0.000288	-0.003098	0.001441	6274.759224	43321.547585	3917.621523	22676.246178
23.536000	-0.000004	0.000446	0.000210	0.001138	6270.429611	43364.391423	3925.923362	22690.016308
24.036500	-0.000310	0.000776	-0.006122	0.001262	6267.138514	43383.467506	3911.128110	22684.359167
24.537000	-0.000241	0.000645	-0.003260	0.001262	6267.669754	43371.324651	3917.659686	22684.369991
25.037500	-0.000608	-0.000201	-0.003721	0.000718	6269.025917	43343.336414	3917.851430	22709.122684
25.537000	-0.002054	-0.000487	-0.004063	0.000409	6260.347125	43345.376919	3917.774639	22723.159208
26.034500	-0.000076	-0.000522	-0.001105	0.000142	6277.495711	43367.010125	3925.186992	22735.323933
26.535000	-0.001916	-0.000494	-0.002597	0.000542	6260.382452	43332.444801	3920.832012	22717.121363
27.035500	0.000673	0.000576	0.003540	-0.002021	6299.882088	43671.122460	3941.016895	22834.096861
27.538000	-0.000191	-0.000278	-0.000405	-0.001610	6290.062454	43552.857889	3930.859583	22815.286992
28.035500	-0.000935	0.000129	0.000579	-0.000613	6276.703447	43497.795519	3930.827720	22769.736200
28.536500	0.000069	0.000644	-0.003456	0.001108	6271.222024	43385.582884	3917.563667	22691.391716
29.037000	-0.000809	-0.000978	-0.003421	-0.001274	6282.738047	43456.352374	3923.114006	22799.956706
29.536500	-0.000434	0.000296	-0.001201	-0.000641	6280.754989	43516.006678	3926.773947	22771.030901
30.037500	-0.000550	0.000451	0.001776	0.000185	6273.543480	43453.532401	3931.756283	22733.371999
30.534500	0.000137	0.000521	-0.002706	0.003658	6252.288853	43137.785590	3913.450454	22575.784974
31.035000	-0.001092	0.000855	-0.000159	0.002376	6252.690988	43287.427851	3922.219854	22633.800610
31.535500	0.001587	0.000180	0.003206	-0.000099	6292.116314	43454.662793	3935.742217	22746.299179
32.038500	-0.000734	-0.000209	0.001613	-0.000657	6278.577855	43470.396353	3933.333167	22771.739872
32.536500	0.000872	0.000581	0.000057	0.000901	6278.948517	43398.959256	3926.117964	22700.784422
33.036000	-0.002406	-0.000373	-0.001699	-0.001250	6270.322740	43510.441129	3927.029244	22798.826092
33.536000	0.001266	0.000128	-0.006895	-0.001625	6301.401595	43592.198400	3915.948018	22815.970216
34.036500	-0.001604	0.000365	-0.001228	0.000957	6259.599476	43373.673307	3923.026406	22698.252715
34.537000	-0.001256	-0.000104	-0.005608	0.001016	6261.797065	43324.580035	3912.856682	22695.534811
35.037000	-0.000866	0.000648	-0.000661	0.000867	6265.919558	43408.399491	3924.538825	22702.344767
35.535000	-0.000935	0.000053	-0.003808	0.000873	6265.342615	43352.541155	3917.296045	22702.066850
36.035500	-0.000216	-0.000559	0.000282	0.000718	6272.019871	43310.033702	3927.059747	22709.114291
36.535500	-0.000985	0.000958	0.005662	0.002295	6254.131047	43304.526015	3935.888500	22637.493940
37.035500	-0.001690	-0.000143	-0.005517	0.001319	6256.184907	43292.813608	3912.374180	22681.762182
37.536000	-0.001139	0.000517	-0.002539	0.001782	6256.863582	43311.193061	3918.120016	22660.778811
38.036000	0.000540	-0.000424	-0.002111	0.001418	6272.449824	43257.672084	3919.935828	22677.282099
38.536500	-0.002013	-0.000555	-0.004219	0.000694	6258.490898	43312.686553	3916.764931	22710.209107
39.037000	-0.000087	-0.000708	0.001117	0.000720	6272.989265	43296.052657	3928.984642	22708.996313
39.536500	-0.004193	-0.000979	-0.003139	-0.000223	6248.885500	43358.430638	3921.344793	22751.960895
40.034500	0.000048	-0.000637	-0.001324	0.000253	6277.599864	43345.998109	3924.426952	22730.277154
40.535000	-0.002700	-0.000131	-0.003797	0.000678	6253.381719	43353.525867	3917.766824	22710.926526
41.035500	-0.001598	0.000095	-0.001959	0.000524	6262.940969	43388.785476	3922.337665	22717.913866
41.538000	-0.000521	0.000113	0.002453	0.000580	6270.738661	43385.234450	3932.410699	22715.378578
42.035500	-0.003726	-0.000140	-0.007489	0.000879	6244.067682	43334.072876	3908.892472	22701.797539
42.539000	0.001183	0.000869	-0.001419	0.001273	6278.475481	43391.156087	3921.858021	22683.863829
43.036500	-0.002403	-0.000271	-0.005968	0.000722	6255.310130	43336.468975	3912.708679	22708.928933
43.539500	-0.001345	0.000899	-0.000618	0.000658	6263.855125	43451.123888	3925.120134	22711.830149
44.037000	-0.001581	0.000744	0.002513	-0.000546	6271.246777	43548.978058	3935.171288	22766.713279
44.537500	0.000571	0.000162	0.004443	-0.000627	6288.362705	43502.173968	3939.866395	22770.386362
45.035000	-0.002607	0.000063	-0.001491	0.002095	6243.327692	43240.067556	3919.806226	22646.567760
45.535000	-0.000832	-0.000136	0.000064	-0.000733	6278.406606	43484.270464	3929.913204	22775.216682
46.035500	-0.001219	0.000524	0.000281	0.000046	6269.493864	43473.263604	3928.611465	22739.709927
46.535000	-0.001967	0.000429	-0.000252	0.000946	6256.919759	43380.650426	3925.301119	22698.743151
47.036000	-0.002673	-0.000344	0.000337	0.002203	6242.007201	43192.408724	3923.759247	22641.653127
47.536500	-0.001378	0.000612	-0.002188	0.002359	6250.658819	43266.529032	3917.602588	22634.607251
48.036500	-0.001009	0.000804	-0.000949	0.000472	6267.834827	43459.631340	3924.785481	22720.297694
48.536500	-0.000964	0.000171	0.000012	0.000540	6267.667332	43394.438148	3926.847880	22717.223455
49.037500	0.000361	0.000681	-0.003044	0.002020	6266.480838	43304.312164	3916.421276	22649.978482
49.535000	0.003474	0.000711	-0.000177	-0.002882	6328.243231	43764.501225	3934.344907	22873.562735
50.035000	0.000419	0.002181	0.000723	-0.005264	6323.011172	44127.510388	3942.013469	22983.117945
50.536000	0.005339	-0.003211	0.009165	0.034196	6065.196783	40092.986391	3871.792530	21243.244988
51.038500	0.025296	-0.014978	-0.016213	0.328344	4607.219027	21343.915523	3377.751504	12243.148483
51.536000	0.009861	-0.026412	-0.019325	-0.083293	7075.460937	49084.925958	4087.523323	26925.909046
52.036500	-0.005530	-0.114050	-0.025150	-0.303520	9561.201987	65535.000000	4830.710357	42760.304063
52.536000	0.003915	-0.092023	-0.007055	-0.279512	9343.207845	65250.418073	4804.912235	40619.316971
53.036500	0.000470	-0.079866	-0.009773	-0.263381	9061.473045	64683.548345	4724.995364	39245.908062
53.537500	-0.000845	-0.059801	-0.011090	-0.237083	8685.027480	63804.685696	4613.995400	37113.315934
54.037500	0.001208	-0.041985	-0.005145	-0.208863	8349.725568	62365.559756	4529.465084	34964.049870
54.537500	0.001865	-0.039254	-0.006444	-0.203516	8291.740500	62009.256477	4505.071124	34572.349078
55.035000	0.003762	-0.029373	-0.001792	-0.185522	8097.395418	60917.311456	4457.216173	33288.952022
55.536000	0.008520	-0.024214	0.004349	-0.173751	8014.950794	60042.267059	4437.456831	32477.684140
56.038500	0.017060	-0.011816	0.010440	-0.129523	7615.445465	56011.816931	4310.162037	29618.778886
56.536000	0.023061	-0.004546	0.020354	-0.077266	7144.145800	50796.288637	4181.324322	26595.462849
57.036500	0.036344	0.004283	0.029778	-0.035607	6878.914412	47317.024244	4091.327738	24432.771142
57.539000	0.046027	0.012279	0.042533	0.003790	6619.148734	44226.611918	4021.827247	22569.861647
58.036500	0.059968	0.022350	0.056456	0.037796	6453.505169	42016.407874	3972.180170	21092.234942
58.537000	0.080818	0.034529	0.071771	0.104391	6103.318467	37422.744149	3855.359835	18513.211194
59.034500	0.097962	0.046806	0.094323	0.140815	5966.428497	35561.611235	3826.058349	17261.261026
59.535000	0.120322	0.059625	0.113247	0.172053	5905.398337	34209.885313	3800.820639	16268.076336
60.035000	0.141666	0.072947	0.139133	0.225571	5694.417824	31451.777120	3746.724285	14724.094618
60.538500	0.157851	0.082083	0.155775	0.256027	5605.722883	30089.220725	3720.944943	13926.754607
61.035000	0.177220	0.094519	0.181340	0.295415	5486.121721	28459.825029	3695.955249	12975.118330
61.536000	0.196714	0.105116	0.191908	0.327591	5413.151564	27226.123039	3658.450490	12259.277359
62.036500	0.211382	0.114594	0.217310	0.354686	5343.691383	26263.458238	3655.590870	11696.295276
62.536500	0.229213	0.124814	0.230311	0.400646	5193.606787	24426.390554	3602.069129	10818.076698
63.037000	0.245578	0.134425	0.257787	0.412500	5217.030396	24316.112680	3626.931923	10606.259928
63.537500	0.256956	0.140499	0.257102	0.424878	5211.818940	24009.055915	3606.081882	10391.148001
64.034500	0.262624	0.147285	0.266348	0.456279	5081.727919	22851.951558	3572.121886	9872.174450
64.535000	0.273105	0.151074	0.281645	0.450308	5164.007765	23302.921173	3604.687274	9967.987115
65.038000	0.276999	0.155264	0.283618	0.488573	4995.594510	21771.584892	3550.058981	9376.185596
65.538500	0.285052	0.156653	0.295600	0.513810	4916.264349	20769.088798	3531.217460	9013.449683
66.035500	0.284528	0.163670	0.299086	0.526463	4857.519528	20540.094483	3518.519447	8839.365839
66.536000	0.282424	0.166602	0.299260	0.525483	4852.592221	20698.721209	3520.103544	8852.670892
67.036000	0.286502	0.170964	0.302925	0.521656	4887.524144	21035.428840	3530.488215	8904.896668
67.550500	0.292097	0.174925	0.303118	0.518013	4929.164946	21353.832476	3535.875902	8955.059062
68.043000	0.294286	0.176882	0.303548	0.514966	4953.163668	21566.421339	3540.800090	8997.331698
68.537500	0.293186	0.179299	0.312878	0.511326	4964.910577	21827.002526	3559.520942	9048.216963
69.038000	0.298905	0.183894	0.310463	0.510599	4995.030365	22059.026068	3557.052918	9058.438421
69.535500	0.301682	0.183904	0.309309	0.506031	5029.896032	22260.873355	3562.053294	9123.010368
70.035500	0.299810	0.186038	0.317115	0.506777	5017.400387	22322.506586	3572.524069	9112.421295
70.536000	0.300929	0.186300	0.322901	0.504719	5032.575897	22425.956499	3584.356022	9141.685746
71.036000	0.302144	0.187242	0.311853	0.505611	5034.125198	22428.213034	3566.429241	9128.988351
71.536000	0.301696	0.189309	0.317163	0.506830	5026.142422	22466.180537	3572.515806	9111.672105
72.039500	0.304105	0.188365	0.323064	0.507876	5032.662954	22377.215194	3579.814100	9096.846209
72.536500	0.307016	0.191840	0.320650	0.508371	5044.281846	22510.603341	3575.432524	9089.856462
73.034000	0.306649	0.192561	0.319509	0.510032	5034.524961	22468.416124	3571.237270	9066.414721
73.535000	0.307098	0.191049	0.319657	0.509593	5038.791282	22420.377235	3572.114519	9072.596681
74.035000	0.313646	0.193902	0.327335	0.514768	5045.402924	22316.871401	3575.864986	9000.084018
74.538000	0.314351	0.195274	0.327226	0.513001	5057.363228	22456.928719	3578.361344	9024.753561
75.035500	0.314916	0.192979	0.325757	0.510011	5074.676147	22488.075018	3580.659572	9066.709510
75.536000	0.315123	0.195548	0.326194	0.511529	5068.275183	22535.255704	3579.025142	9045.368118
76.036000	0.318731	0.195638	0.328975	0.510638	5090.324644	22579.447501	3584.593142	9057.885540
76.536500	0.315337	0.196412	0.329545	0.510376	5074.949623	22626.152566	3585.860471	9061.566955
77.037000	0.319734	0.197272	0.333115	0.510233	5097.276363	22671.521575	3591.550345	9063.588072
77.537000	0.316403	0.198193	0.334151	0.510279	5080.649085	22711.207828	3593.076208	9062.943295
78.034500	0.312391	0.197323	0.326832	0.512965	5048.049438	22550.518936	3577.821813	9025.254674
78.538000	0.316445	0.197206	0.332480	0.510104	5081.712405	22674.402193	3590.771818	9065.404942
79.035000	0.314340	0.198605	0.327469	0.511513	5064.538669	22673.910441	3580.976632	9045.593810
79.535000	0.318563	0.199795	0.323747	0.511522	5085.148763	22727.466594	3575.350484	9045.468797
80.036000	0.314117	0.200059	0.321666	0.516217	5040.696621	22527.340437	3565.255812	8979.944376
80.536000	0.314923	0.199772	0.325561	0.514039	5055.102890	22612.510268	3574.297053	9010.253074
81.036500	0.317166	0.201226	0.331079	0.516722	5052.966518	22557.078224	3578.559543	8972.925752
81.536500	0.313839	0.201112	0.325323	0.518830	5026.822579	22457.343529	3566.800473	8943.766403
82.037000	0.310134	0.199721	0.319763	0.523337	4987.940993	22195.016272	3552.055330	8881.908091
82.537000	0.317340	0.203061	0.336456	0.526047	5009.137713	22222.877123	3572.630157	8845.011042
83.035000	0.312760	0.200641	0.320774	0.527432	4981.059285	22055.258609	3547.605674	8826.242745
83.535000	0.312944	0.202971	0.332075	0.531454	4963.195560	21981.245235	3558.158644	8772.086786
84.038000	0.310800	0.201482	0.327932	0.535856	4933.086346	21725.594967	3545.788520	8713.368618
84.535500	0.311916	0.201789	0.320978	0.532289	4954.577195	21893.285003	3540.951330	8760.893424
85.036000	0.317135	0.202088	0.329414	0.533855	4971.506754	21838.307282	3550.801290	8739.987568
85.536000	0.314751	0.202437	0.324555	0.533944	4960.033024	21849.564907	3543.691349	8738.799083
86.037000	0.314940	0.202909	0.319792	0.535844	4952.133452	21787.745182	3534.245826	8713.535416
86.536500	0.315406	0.202397	0.325015	0.536795	4949.898856	21724.595571	3540.285880	8700.930070
87.037000	0.315944	0.201613	0.330281	0.538231	4945.768162	21629.158978	3545.750202	8681.944230
87.537500	0.315379	0.202791	0.330280	0.539883	4935.611859	21608.842932	3543.386906	8660.194973
88.034500	0.313472	0.202642	0.330684	0.546912	4895.184332	21303.963691	3533.998860	8568.529855
88.535500	0.318264	0.203627	0.326096	0.544471	4927.838230	21448.824266	3530.986640	8600.188482
89.035000	0.318908	0.203958	0.331510	0.546392	4922.034219	21381.461184	3535.893855	8575.253507
89.536000	0.316884	0.202665	0.328672	0.545754	4915.755936	21353.764507	3532.798320	8583.527965
90.038000	0.312910	0.201612	0.325966	0.551115	4873.969281	21084.858004	3521.581174	8514.426176
90.536000	0.317146	0.203858	0.328825	0.548880	4902.839628	21272.301837	3528.640782	8543.132239
91.036500	0.318640	0.203059	0.331873	0.549171	4908.251830	21226.523511	3532.494635	8539.379198
91.536500	0.323257	0.204903	0.330561	0.550760	4921.950916	21237.211784	3528.439122	8518.973011
92.037500	0.320616	0.204392	0.334389	0.550672	4910.398084	21219.500102	3533.922001	8520.105909
92.534500	0.322574	0.203712	0.330989	0.550543	4919.834357	21196.367563	3529.337940	8521.751772
93.034500	0.320229	0.202731	0.329927	0.550174	4910.893799	21170.756088	3528.372333	8526.486944
93.537500	0.324103	0.202849	0.330740	0.550796	4925.630512	21149.750425	3528.639732	8518.517771
94.035000	0.322732	0.201990	0.333475	0.555323	4898.988437	20926.130698	3526.146386	8460.775661
94.536000	0.320145	0.202678	0.337976	0.551238	4905.718708	21124.128916	3538.182547	8512.843002
95.036000	0.325111	0.202650	0.335571	0.551174	4928.495906	21125.632625	3534.878363	8513.667301
95.536000	0.324204	0.201806	0.331526	0.551683	4922.057984	21069.251629	3528.497512	8507.147475
96.037000	0.319831	0.201583	0.329614	0.556979	4878.650831	20841.238584	3518.535146	8439.804862
96.537000	0.322248	0.202865	0.338041	0.552870	4907.845594	21063.977605	3535.969441	8491.989426
97.037500	0.326511	0.203534	0.330802	0.554003	4921.996323	21044.660938	3524.269948	8477.546274
97.537500	0.323668	0.201501	0.334189	0.552090	4917.783461	21039.693195	3531.651195	8501.951349
98.040500	0.323202	0.203005	0.332889	0.559420	4882.787208	20799.456198	3519.680550	8409.042817
98.534500	0.324718	0.202746	0.332793	0.553337	4916.892578	21039.639106	3527.959633	8486.037373
99.035500	0.324946	0.203277	0.336785	0.554003	4914.908927	21034.046329	3532.608986	8477.556470
99.536000	0.325789	0.203309	0.338025	0.554364	4917.093176	21020.379513	3533.842439	8472.964451
100.036000	0.321103	0.201033	0.324072	0.558522	4877.449662	20755.498301	3508.903990	8420.341372
100.536000	0.325450	0.201543	0.336733	0.552986	4921.801703	21004.307242	3533.963245	8490.510902
101.037000	0.327125	0.204001	0.343366	0.554049	4924.583399	21062.172959	3541.846084	8476.969839
101.537000	0.327806	0.204292	0.335248	0.554993	4923.380797	21035.046477	3529.071591	8464.960778
102.037000	0.323711	0.202177	0.327818	0.559248	4885.817675	20772.610820	3512.989919	8411.206787
102.534500	0.327359	0.202811	0.331588	0.553742	4927.039690	21025.529153	3525.721430	8480.876289
103.035000	0.327856	0.202759	0.334944	0.554293	4926.797638	21000.502960	3529.625547	8473.864072
103.535500	0.325586	0.201927	0.333997	0.553176	4921.558860	21012.338434	3529.862512	8488.089261
104.035500	0.329247	0.203935	0.341574	0.554275	4933.215203	21050.068667	3538.978873	8474.092445
104.536000	0.326141	0.202551	0.334680	0.553713	4921.636580	21015.914930	3530.066271	8481.242308
105.036500	0.326679	0.202209	0.339229	0.553288	4926.010660	21019.365175	3537.056232	8486.656342
105.536500	0.326108	0.203342	0.343983	0.554032	4920.039451	21035.493806	3542.749101	8477.179049
106.036000	0.324252	0.202430	0.332526	0.560046	4884.676735	20750.328775	3518.323502	8401.183831
106.537500	0.328416	0.203281	0.344204	0.554303	4929.300226	21021.754956	3542.678628	8473.736050
107.037500	0.330545	0.203306	0.340894	0.554876	4936.402049	20999.038985	3537.165402	8466.454072
107.535000	0.328382	0.202350	0.336271	0.553629	4932.214979	21011.083658	3532.411011	8482.307826
108.035500	0.324055	0.201411	0.330666	0.557943	4893.178102	20794.639262	3518.655367	8427.634089
108.536000	0.329208	0.201223	0.337198	0.553020	4938.772221	20989.606276	3534.568447	8490.068057
109.035500	0.329065	0.202709	0.344199	0.554785	4930.059238	20978.100999	3541.985154	8467.609860
109.536500	0.329443	0.202822	0.334379	0.553693	4936.770784	21027.986245	3529.674004	8481.498596
110.036000	0.330545	0.203720	0.328158	0.561150	4907.923412	20757.955521	3510.872987	8387.350292
