sample name	sample
index	528
start time	 03-11-2021  04:15:32 PM
880	0.428297
Peak Time (s)	90.038
Peak Height 	0.4283
calc peak height	90,93
Baseline Time (s)	10.536
Baseline Value 	-0.006367
subtract baseline	10,4
Abs	0.306233
Peak Time (s)	91.535
Peak Height 	0.3062
calc peak height	90,93
Baseline Time (s)	10.035
Baseline Value 	8.368E-4
subtract baseline	10,3
PK_550	0.172062
Peak Time (s)	90.038
Peak Height 	0.1721
calc peak height	90,93
Baseline Time (s)	9.534
Baseline Value 	4.7926E-4
subtract baseline	10,2
PK_880	0.296374
Peak Time (s)	92.535
Peak Height 	0.2964
calc peak height	90,93
Baseline Time (s)	11.036
Baseline Value 	0.002968
subtract baseline	10,1


Time (s)	A880-A510	A880-A775	A880-A975	A880	I510	I775	I975	I880	
0.034500	-0.001190	-0.000087	0.004515	0.002451	7008.700632	45061.289582	3986.758443	23939.423007
0.535500	-0.002241	-0.000423	0.000772	0.005373	6971.394089	44746.411465	3969.993057	23798.339721
1.035500	-0.004266	-0.001393	0.001005	0.004788	6957.965711	44709.318609	3972.034938	23826.502076
1.536500	0.000262	-0.000425	0.000691	0.001075	7035.450220	45162.109532	3980.569628	24006.173994
2.036000	-0.002202	0.000022	0.004282	0.001083	7012.063025	45204.819391	3989.639167	24005.802652
2.540500	-0.000509	-0.000540	-0.001240	0.003252	7007.573131	44939.879567	3970.267221	23900.672030
3.037000	0.001718	0.000431	0.007524	0.000215	7057.493158	45329.268155	4000.131063	24048.013622
3.540000	-0.002362	-0.000260	-0.002412	0.000664	7014.501975	45218.101481	3973.805735	24026.165793
4.037500	0.000912	-0.000469	-0.001219	0.000610	7046.049321	45202.967376	3976.933357	24028.766896
4.534500	-0.000893	-0.000691	0.001737	0.000657	7028.466236	45176.854884	3984.265992	24026.497610
5.035500	-0.000465	0.000205	-0.001698	0.001011	7029.160425	45229.601631	3974.725432	24009.285565
5.535000	-0.000380	-0.000482	0.001393	0.000190	7037.763672	45242.674759	3984.577716	24049.243319
6.035500	-0.000851	-0.000764	0.004885	-0.000326	7038.184385	45265.432387	3994.761262	24074.351858
6.535500	0.001076	-0.000362	0.007735	0.000301	7050.547911	45243.526224	4000.450602	24043.799359
7.036000	0.000625	0.000391	-0.000195	0.000647	7042.962133	45283.153187	3979.414756	24026.963139
7.536500	-0.000920	-0.001175	0.002418	-0.000333	7037.593015	45226.106507	3988.498961	24074.690358
8.039500	-0.000155	0.000312	0.002426	0.000336	7038.515026	45305.824884	3986.824629	24042.121670
8.537500	0.001714	0.000478	0.001895	0.000674	7053.076537	45289.051679	3984.623247	24025.672410
9.034500	-0.000625	-0.000995	-0.000389	-0.000574	7042.696612	45267.078243	3982.005325	24086.462683
9.534500	-0.000166	0.000000	-0.000456	0.000290	7038.843444	45279.917050	3979.659467	24044.371701
10.035000	0.000794	-0.000132	0.000000	-0.000230	7052.923519	45317.656072	3982.117576	24069.663765
10.535500	0.000884	0.000134	0.000408	0.000000	7051.590726	45321.193347	3982.568749	24058.474971
11.035500	0.000000	-0.000698	-0.000219	0.001156	7032.202849	45127.710671	3978.075593	24002.258791
11.536000	-0.000541	0.000065	0.003589	-0.000135	7039.313862	45327.608841	3990.972545	24065.032190
12.036500	0.002077	-0.000207	0.004112	-0.000630	7068.997719	45349.476241	3993.565456	24089.185552
12.539500	-0.000888	0.000655	0.006419	0.000028	7034.474354	45369.353782	3997.779335	24057.093606
13.037000	-0.002474	-0.000382	-0.000905	0.000870	7011.496261	45186.265052	3977.070017	24016.150895
13.537000	0.000384	-0.000309	0.004524	-0.001073	7057.057178	45382.696590	3995.746854	24110.789366
14.062000	0.000204	-0.000496	-0.000689	-0.000876	7053.462466	45345.298037	3982.012245	24101.211576
14.535000	-0.001419	0.000168	0.004205	0.002262	7008.325029	45104.420019	3986.452124	23948.590021
15.035500	-0.001039	0.000166	0.001834	0.002148	7012.974019	45115.263401	3980.745879	23954.088666
15.560000	0.001684	0.000544	0.003475	0.000091	7058.363142	45352.404832	3990.109051	24054.060915
16.036000	0.001181	0.000151	0.001511	-0.000298	7057.271018	45351.952778	3986.110723	24072.994682
16.536000	-0.001707	-0.000485	0.008927	-0.001005	7036.505535	45358.968734	4006.879618	24107.488771
17.039000	-0.001225	-0.000625	0.003269	0.002275	7010.032882	45026.171458	3984.050286	23947.956701
17.536500	-0.000469	0.000085	0.004257	-0.000342	7041.972580	45349.798985	3993.200231	24075.139008
18.037500	0.002119	0.000020	0.004891	-0.000613	7069.238239	45369.960323	3995.510784	24088.350477
18.537500	0.000842	0.000169	-0.000433	0.000911	7042.523682	45235.846030	3978.154484	24014.163049
19.035000	-0.002380	0.000041	0.002626	0.001904	7002.638561	45126.822749	3983.361391	23965.943866
19.535000	-0.000754	0.000702	0.002635	0.001400	7022.740637	45240.074460	3984.658036	23990.382059
20.035500	-0.000232	-0.000151	0.009162	0.000824	7033.144426	45213.148003	4002.774375	24018.361676
20.535500	-0.000606	-0.000788	0.004922	0.000004	7037.377742	45230.998333	3994.014064	24058.282006
21.036000	0.003149	0.000004	0.005467	0.001159	7062.139776	45195.568726	3992.458524	24002.080895
21.539000	-0.000006	-0.001188	-0.000200	0.000181	7041.393019	45174.734361	3980.576307	24049.645799
22.037000	-0.001776	-0.000286	0.004073	0.000557	7021.050769	45225.952239	3990.442929	24031.360658
22.537000	-0.000228	-0.000134	-0.001279	0.000906	7032.413823	45206.868869	3976.041236	24014.406192
23.037000	-0.000288	-0.000122	0.001360	0.001141	7029.605249	45185.078868	3982.089776	24002.941473
23.535000	-0.001978	0.000561	0.004081	0.001177	7013.282624	45248.094739	3988.886942	24001.215024
24.035000	-0.000929	0.000535	0.007730	0.001575	7019.433136	45206.792916	3997.173840	23981.881665
24.535500	-0.000178	-0.000189	0.004502	0.000812	7033.765935	45210.611608	3990.885323	24018.938379
25.038500	-0.001136	0.000079	-0.003327	0.000879	7024.065574	45230.238311	3970.979923	24015.715932
25.566000	0.001230	-0.000046	0.005481	0.000886	7046.449035	45217.297514	3993.190695	24015.361431
26.039000	-0.001163	-0.000124	0.001124	0.000935	7023.272074	45205.004823	3982.015395	24012.977933
26.603000	-0.000460	0.000433	0.004998	0.001367	7025.834742	45217.134787	3990.736631	23991.988184
27.454000	-0.001275	0.000513	0.000561	0.001462	7017.230557	45215.624577	3979.267871	23987.356037
27.975500	0.003080	-0.000424	0.002567	-0.001471	7086.684265	45410.431775	3991.773158	24130.263868
28.093000	0.000544	0.000297	0.006902	-0.002197	7069.324358	45552.230035	4004.733680	24165.768150
28.537500	-0.003102	-0.000516	-0.001073	0.005226	6964.734669	44751.635246	3965.763996	23805.425512
29.038500	0.000691	-0.000447	0.002927	-0.000529	7054.798619	45316.187885	3990.292757	24084.276365
29.538500	-0.000385	-0.000253	-0.000574	-0.000414	7043.450387	45323.884815	3981.135221	24078.639433
30.035500	0.000803	-0.000038	0.001748	0.000106	7049.808020	45294.062872	3985.687505	24053.300864
30.538500	-0.003556	-0.000731	0.000926	0.004745	6964.987739	44777.234362	3971.946958	23828.587326
31.036500	-0.000632	-0.000654	0.003006	-0.000420	7041.162331	45285.416241	3990.216861	24078.968753
31.536500	-0.000821	-0.000033	-0.000809	0.002513	7011.587617	45060.508082	3973.189276	23936.410045
32.037000	-0.000374	0.000167	0.002377	0.001828	7022.292996	45146.503140	3982.925401	23969.636020
32.537000	-0.003716	0.000322	0.004047	0.005580	6955.713180	44798.279959	3977.676716	23788.380868
33.034500	-0.000514	0.000023	0.000362	0.003400	7006.123290	44980.007858	3973.901685	23893.505021
33.535000	0.001279	-0.000126	0.003432	-0.000187	7057.147102	45314.150566	3990.706215	24067.591240
34.035500	0.000658	-0.000502	0.000976	-0.000045	7049.874622	45263.598243	3984.116404	24060.680726
34.535500	-0.002591	-0.000022	0.002557	0.004501	6976.276879	44869.130072	3976.643718	23840.327222
35.038500	-0.000247	0.000506	0.001335	0.002738	7014.884545	45090.984595	3978.004449	23925.508914
35.536000	-0.001311	0.000917	0.005797	0.002515	7006.950239	45152.522244	3989.847368	23936.308732
36.036500	0.000317	0.000221	0.001822	0.002129	7025.976890	45122.367248	3980.763610	23955.002065
36.537000	-0.002320	0.000670	0.004056	0.003649	6986.795494	45018.503367	3982.565289	23881.462690
37.037000	-0.001738	-0.000324	0.005221	0.001111	7016.165903	45168.387037	3991.954385	24004.401887
37.537500	-0.001172	-0.000776	0.002022	0.001016	7022.426992	45133.733328	3984.079739	24009.045285
38.034500	0.000436	0.000348	-0.002595	0.001828	7029.957038	45163.984601	3970.437241	23969.595442
38.535000	0.001428	0.000495	0.001632	0.002304	7034.847634	45131.955361	3979.844067	23946.513464
39.035000	0.000946	0.000134	-0.000163	0.002166	7031.596360	45110.451849	3975.680521	23953.238681
39.538500	0.000947	0.000592	0.003940	0.002506	7028.376511	45121.823494	3985.159920	23936.736562
40.036000	0.000055	0.000441	0.002390	0.002375	7021.171276	45119.894428	3981.575274	23943.092752
40.536000	-0.000680	0.000117	0.002835	0.002083	7016.987121	45116.766433	3983.436529	23957.256580
41.036500	0.001439	0.000661	0.003929	0.002877	7029.524417	45092.517583	3984.194090	23918.784567
41.536500	-0.000371	-0.000036	0.002162	0.001670	7023.804203	45141.965222	3982.777758	23977.257820
42.036500	-0.002004	0.000156	0.005663	0.002116	7004.184947	45117.388904	3990.522285	23955.657733
42.537500	-0.000593	-0.000520	-0.001969	0.002104	7017.605764	45052.949452	3971.312234	23956.237208
43.035000	-0.002776	-0.000147	-0.002661	0.001740	7000.457968	45124.518899	3970.492911	23973.889662
43.535000	-0.002173	-0.000875	0.002492	0.001561	7007.817308	45071.159331	3983.889802	23982.564164
44.038500	-0.000866	-0.000173	0.004981	0.001866	7017.281003	45109.783033	3989.425045	23967.791868
44.536000	-0.000252	-0.000459	0.000497	0.001509	7026.459710	45116.553736	3978.987028	23985.076799
45.036000	-0.001138	-0.000263	0.000444	0.001204	7020.965243	45165.309653	3979.624299	23999.916291
45.536000	0.001092	-0.000246	0.002856	-0.000538	7058.706531	45336.631099	3990.132720	24084.681488
46.037000	0.000169	-0.000202	0.005063	-0.000477	7049.329400	45335.040633	3995.602602	24081.723388
46.536500	-0.002038	-0.000116	-0.001081	0.004900	6977.716938	44821.524871	3966.554693	23821.108198
47.037500	-0.001667	0.000406	0.001126	0.003718	6992.282846	44986.217357	3975.019495	23878.117155
47.535000	0.002058	-0.000101	0.008645	-0.000271	7065.381119	45324.715131	4004.261472	24071.663106
48.035000	-0.000119	0.000309	0.004446	0.000859	7033.891828	45254.575272	3990.624156	24016.695237
48.538500	-0.001796	0.000226	0.006648	0.002573	7001.830189	45079.788842	3991.866405	23933.495861
49.035500	-0.002567	0.000103	0.005329	0.005671	6965.569623	44768.393966	3980.675406	23784.018512
49.535500	-0.000096	-0.000061	0.004083	-0.000151	7043.708793	45317.016645	3992.271221	24065.849990
50.036000	0.001463	-0.000115	0.002337	-0.000107	7058.135271	45307.355382	3987.718868	24063.668873
50.536500	-0.001322	-0.000004	0.001328	0.003047	7001.831672	45011.523264	3977.208037	23910.540102
51.037000	0.001809	0.001140	-0.001718	0.001700	7044.211277	45253.591622	3972.948938	23975.815185
51.537000	-0.001232	0.000867	0.009022	0.003801	6995.586295	45022.802312	3994.788012	23874.101602
52.037000	0.008420	0.001688	-0.000147	-0.001616	7139.726906	45631.689865	3985.250534	24137.332062
52.534500	-0.027145	-0.008394	-0.011809	0.120100	5855.551088	34456.144492	3694.573930	18947.228867
53.037500	-0.045870	-0.022983	-0.010341	-0.067861	7257.697639	49920.906537	4136.682493	27636.517765
53.535500	-0.027042	-0.055060	0.001838	-0.210276	9210.995620	63511.270514	4671.417351	37235.350063
54.035500	-0.011447	-0.034962	0.019526	-0.171665	8885.921999	60983.487511	4587.446396	34314.766074
54.536000	-0.002438	-0.016715	0.024653	-0.089629	7961.458586	53053.961759	4311.306908	28907.822288
55.036500	0.006728	-0.010115	0.036386	-0.058489	7712.386972	50300.646643	4249.019140	27108.484470
55.536500	0.023260	0.000033	0.046321	-0.014941	7422.932102	46794.625551	4147.505943	24798.994092
56.037000	0.049385	0.017216	0.068337	0.021550	7316.555260	44887.352803	4106.152375	23034.297908
56.537500	0.085231	0.035019	0.090972	0.042334	7471.952055	44600.455345	4111.364842	22093.537343
57.035000	0.118663	0.053196	0.121769	0.078806	7440.154109	42881.757023	4095.456564	20547.676492
57.537500	0.145105	0.066912	0.145782	0.114706	7342.637389	40892.571877	4062.802749	19147.753734
58.035000	0.160120	0.080345	0.160217	0.186606	6798.817925	36111.725374	3916.951184	16669.048725
58.535500	0.168633	0.086384	0.180952	0.220803	6575.680364	34028.968486	3885.486565	15626.617897
59.036000	0.201309	0.104945	0.204409	0.217835	6888.969229	35609.158189	3948.189356	15713.877224
59.536000	0.216462	0.117727	0.224048	0.252462	6714.614263	34006.373769	3912.155617	14732.047547
60.036500	0.224026	0.124114	0.235826	0.308969	6309.454037	30619.845344	3811.730640	13288.790423
60.536500	0.231952	0.133618	0.246942	0.353963	6031.587424	28447.573757	3742.264490	12266.601780
61.034500	0.239228	0.140574	0.261123	0.364025	6011.645679	28265.758883	3750.423128	12052.140891
61.537000	0.249473	0.143508	0.258466	0.362419	6097.364106	28531.918638	3748.333325	12086.020915
62.037500	0.253508	0.149343	0.267534	0.366474	6097.218549	28637.056613	3758.344061	12000.679466
62.535000	0.257506	0.152834	0.267101	0.367045	6122.443145	28810.409225	3756.331100	11988.723739
63.035000	0.274350	0.161758	0.277865	0.393829	6049.820181	27767.947110	3724.809538	11445.267506
63.536000	0.276529	0.164186	0.276525	0.381810	6154.068161	28607.912916	3745.692113	11685.006497
64.036000	0.281488	0.167722	0.276976	0.384388	6171.884799	28664.607995	3741.492951	11633.020435
64.542000	0.286824	0.168622	0.285219	0.387172	6191.091693	28553.251421	3752.313458	11577.238439
65.037000	0.288699	0.171484	0.280645	0.392913	6162.036361	28383.938840	3731.979589	11463.311458
65.537000	0.287717	0.170583	0.282048	0.396219	6130.113016	28138.648662	3728.280815	11398.387087
66.034500	0.292453	0.172915	0.284190	0.403158	6113.840689	27872.729546	3719.030566	11263.730525
66.537500	0.292363	0.174137	0.287135	0.408280	6075.655811	27649.782754	3714.864541	11165.691261
67.040500	0.293428	0.174810	0.284722	0.414641	6037.318755	27328.177001	3698.285787	11045.532177
67.535500	0.294427	0.175621	0.288523	0.416278	6032.734343	27281.878579	3702.345568	11014.908832
68.035500	0.293884	0.176072	0.285253	0.420519	5998.558517	27070.308852	3688.345592	10936.061073
68.535500	0.295467	0.176624	0.288449	0.426170	5969.788716	26788.649529	3683.824568	10832.209029
69.036000	0.292432	0.176402	0.286871	0.427573	5938.719001	26699.581243	3678.367235	10806.643232
69.536500	0.294892	0.175338	0.289651	0.428236	5951.263363	26605.262445	3682.239800	10794.580539
70.036500	0.292915	0.176423	0.283650	0.431635	5913.882460	26479.454974	3665.191162	10733.052540
70.537000	0.289445	0.176508	0.285609	0.435594	5862.982268	26270.387236	3661.610870	10661.989254
71.039500	0.295803	0.176900	0.292089	0.439243	5881.440524	26096.036564	3666.682769	10597.059705
71.535000	0.295165	0.177136	0.292057	0.438515	5882.055313	26147.488398	3667.934107	10609.966761
72.035000	0.294362	0.176945	0.290288	0.440069	5865.985906	26054.381601	3661.974355	10582.435618
72.535500	0.292489	0.175536	0.294524	0.442985	5833.601038	25825.315912	3664.335775	10531.044581
73.035500	0.289961	0.175607	0.296868	0.444637	5805.632988	25742.188197	3665.578695	10502.091434
73.536000	0.293513	0.175164	0.291210	0.444333	5831.430129	25734.874783	3656.027015	10507.414893
74.036500	0.292287	0.175327	0.294785	0.444758	5820.353248	25721.138113	3661.632284	10499.976436
74.536500	0.292241	0.175819	0.297959	0.447416	5802.308936	25607.764379	3662.553255	10453.612321
75.036500	0.292782	0.174838	0.293065	0.447136	5807.772670	25571.212200	3654.346900	10458.478134
75.539500	0.290346	0.174639	0.302190	0.446845	5793.514676	25575.996964	3671.187492	10463.546688
76.037000	0.294367	0.175039	0.297190	0.448320	5810.447348	25520.050553	3659.568834	10437.914084
76.538000	0.291016	0.174666	0.292140	0.449088	5783.100263	25460.820324	3649.275379	10424.603166
77.035000	0.291934	0.174411	0.302815	0.448325	5794.227245	25487.129125	3669.644036	10437.826970
77.535500	0.291199	0.173711	0.302562	0.446739	5799.882783	25533.206776	3672.052036	10465.398844
78.036000	0.293658	0.173371	0.299665	0.446725	5816.368506	25516.210218	3666.851895	10465.636268
78.536000	0.289105	0.171788	0.296504	0.445896	5791.573813	25477.065503	3662.669637	10480.082222
79.036500	0.293085	0.172088	0.295422	0.444968	5824.287643	25540.892518	3662.393976	10496.290385
79.536500	0.295472	0.173137	0.298901	0.445961	5833.654695	25543.812870	3666.852118	10478.955068
80.040000	0.291518	0.172444	0.300939	0.444181	5819.064478	25600.443989	3673.744856	10510.064785
80.535000	0.291569	0.172879	0.299457	0.442820	5828.532126	25694.424682	3673.527721	10533.955061
81.034500	0.293665	0.172690	0.298107	0.445273	5826.141498	25556.364785	3666.661510	10490.970988
81.535000	0.293313	0.171970	0.297152	0.441267	5850.749526	25728.124826	3672.164442	10561.285808
82.035500	0.290848	0.170886	0.299344	0.439270	5847.584420	25776.148993	3679.784686	10596.590869
82.535500	0.292593	0.172799	0.300119	0.439884	5855.233688	25844.510263	3680.077251	10585.707878
83.036000	0.294841	0.171962	0.297918	0.440585	5865.736838	25763.548830	3674.790024	10573.325008
83.536000	0.294355	0.171584	0.304282	0.437562	5883.038789	25903.040841	3692.024313	10626.909404
84.036500	0.287447	0.169991	0.301535	0.435853	5847.691192	25909.124765	3690.100089	10657.360177
84.536500	0.292331	0.172638	0.298503	0.436134	5878.961060	26034.638076	3683.989028	10652.346095
85.037000	0.291173	0.171492	0.302791	0.436622	5867.737634	25947.897792	3691.001230	10643.637002
85.534500	0.290955	0.169945	0.300796	0.432574	5893.916554	26080.787083	3694.816834	10716.136460
86.034000	0.294873	0.170586	0.299448	0.431955	5925.215375	26148.020873	3693.459270	10727.275946
86.535500	0.294310	0.172595	0.301017	0.432456	5917.851885	26228.812054	3695.449749	10718.263762
87.035500	0.293704	0.171375	0.303262	0.432933	5910.363985	26137.947692	3698.751385	10709.682027
87.536000	0.293103	0.170987	0.303241	0.430565	5922.583091	26243.934349	3703.153548	10752.361115
88.036000	0.294763	0.171063	0.304570	0.428955	5945.327925	26334.610348	3708.702992	10781.518508
88.536500	0.292377	0.171264	0.299365	0.429954	5921.790381	26291.675213	3697.034225	10763.424859
89.039500	0.292491	0.171145	0.303475	0.430270	5920.385847	26268.277993	3704.150553	10757.692396
89.537000	0.294184	0.171947	0.305879	0.428747	5942.740948	26393.500273	3711.580790	10785.292904
90.037500	0.294393	0.172062	0.301285	0.428297	5947.344532	26424.105510	3703.742363	10793.473663
90.534500	0.294920	0.171389	0.299139	0.427697	5955.229626	26420.166132	3700.837436	10804.386793
91.035000	0.294715	0.171107	0.299056	0.427328	5956.374223	26424.834916	3701.372904	10811.090503
91.535500	0.294917	0.170108	0.306233	0.426470	5963.817161	26417.218900	3716.598673	10826.742325
92.035500	0.295023	0.170687	0.302644	0.426000	5967.864010	26473.968856	3710.654483	10835.310282
92.535500	0.296374	0.171542	0.305625	0.427832	5964.485905	26421.121327	3712.839788	10801.929537
93.036000	0.296398	0.170992	0.302329	0.427025	5970.321685	26434.990677	3708.114333	10816.608944
93.539000	0.299202	0.170908	0.310730	0.426784	5991.834520	26443.462827	3724.636884	10821.001797
94.036500	0.296346	0.170185	0.304423	0.426702	5972.232606	26408.828911	3712.701321	10822.499063
94.545000	0.295906	0.170021	0.309288	0.427055	5966.653947	26380.897637	3721.335111	10816.066351
95.037500	0.298870	0.170540	0.305626	0.427982	5981.006559	26358.877435	3712.555709	10799.188620
95.537500	0.296250	0.170607	0.307127	0.427689	5964.616491	26378.316912	3715.977480	10804.522277
96.035000	0.300683	0.171259	0.305651	0.428568	5989.695826	26366.070583	3711.490040	10788.555089
96.535500	0.297717	0.170123	0.305019	0.427171	5978.598441	26380.132013	3712.944069	10813.957548
97.035500	0.299411	0.170539	0.310448	0.428352	5982.224033	26338.876058	3721.072962	10792.475555
