sample name	sample
index	505
start time	 03-11-2021  02:56:58 PM
880	0.480908
Peak Time (s)	91.537
Peak Height 	0.4809
calc peak height	90,93
Baseline Time (s)	9.536
Baseline Value 	-0.00299
subtract baseline	10,4
Abs	0.318005
Peak Time (s)	90.035
Peak Height 	0.318
calc peak height	90,93
Baseline Time (s)	10.537
Baseline Value 	0.001367
subtract baseline	10,3
PK_550	0.159716
Peak Time (s)	90.035
Peak Height 	0.1597
calc peak height	90,93
Baseline Time (s)	9.536
Baseline Value 	9.3922E-5
subtract baseline	10,2
PK_880	0.310110
Peak Time (s)	92.537
Peak Height 	0.3101
calc peak height	90,93
Baseline Time (s)	11.037
Baseline Value 	2.4513E-4
subtract baseline	10,1


Time (s)	A880-A510	A880-A775	A880-A975	A880	I510	I775	I975	I880	
0.036000	0.000728	-0.000259	-0.000402	0.002229	7070.021314	45458.466819	3981.722830	24176.149730
0.536500	-0.002057	-0.000311	0.001799	0.004201	7024.588365	45260.835620	3982.313141	24079.762013
1.039500	-0.000482	-0.000889	-0.003579	0.003014	7050.910372	45320.189373	3971.570923	24137.730601
1.538500	-0.003464	-0.000249	-0.003212	0.005835	6995.810659	45107.966065	3965.327850	24000.214602
2.037500	0.000612	0.000463	0.001199	0.001088	7079.880573	45641.073739	3988.803249	24232.104176
2.535000	0.001590	-0.000247	-0.002410	0.000119	7098.655142	45666.484420	3981.986097	24279.727286
3.035000	0.001734	0.000690	0.003987	-0.000481	7105.851681	45817.879838	4000.147519	24309.286496
3.535500	-0.001748	-0.000412	-0.002283	0.004442	7025.235516	45227.503154	3971.234549	24067.996844
4.035500	0.001648	0.000224	0.000257	0.001286	7087.952135	45598.147009	3985.856097	24222.389910
4.536000	0.000238	0.000002	0.000943	0.000770	7079.334659	45626.921874	3988.964628	24247.710127
5.036500	-0.001293	0.000086	0.001781	0.000875	7063.616496	45624.867269	3990.862773	24242.532378
5.539000	0.000944	0.000451	0.000655	0.000860	7085.266835	45662.186977	3987.985733	24243.283852
6.037000	-0.000522	0.000170	0.003194	0.000875	7071.013189	45633.143312	3994.536846	24242.536441
6.537000	0.000451	-0.000089	0.000054	0.000002	7088.786446	45693.564595	3988.652233	24285.508363
7.035000	0.001220	0.000591	0.002717	0.000587	7090.566732	45702.919466	3994.044945	24256.716239
7.535000	-0.000606	0.000447	0.000031	0.000753	7071.377279	45672.377913	3986.647397	24248.529072
8.035500	-0.000268	0.000019	-0.003178	0.000507	7077.005248	45654.507058	3979.013021	24260.663116
8.535500	-0.000243	0.000331	-0.001477	0.000356	7078.690126	45700.010448	3983.778911	24268.091950
9.036000	0.000331	-0.001023	-0.000370	-0.000448	7091.978776	45645.980159	3988.719780	24307.677514
9.536000	-0.000003	0.000000	0.000341	0.000000	7084.430646	45702.470104	3989.399431	24285.590543
10.039000	-0.000074	0.000151	-0.002269	-0.000059	7084.316612	45723.139765	3982.807521	24288.503399
10.536500	0.000904	-0.000063	0.000000	0.000045	7092.740358	45691.881514	3988.399191	24283.373873
11.037000	0.000000	-0.000015	0.003401	-0.000311	7087.457507	45731.649048	3998.171826	24300.919088
11.537500	0.000720	0.000888	0.000779	0.003872	7054.192032	45409.869802	3980.532808	24095.798894
12.034500	0.000702	0.000170	0.000096	-0.000208	7093.231922	45739.641861	3989.303034	24295.820182
12.535500	0.001120	0.000270	0.002469	-0.000087	7096.103196	45737.688148	3995.156008	24289.892402
13.035500	0.001813	0.000128	0.005207	-0.002009	7121.453091	45913.270122	4007.360691	24384.744352
13.535500	-0.002776	0.000094	0.003239	0.004617	7013.826117	45259.807384	3984.953682	24059.481862
14.036500	0.000261	0.000496	0.000357	0.000562	7081.554235	45695.978987	3987.982875	24257.916455
14.541000	0.000247	0.000139	-0.002632	0.002771	7060.210376	45444.316436	3974.611081	24149.614825
15.036500	0.002380	0.000363	0.002394	-0.000030	7107.740418	45741.145278	3994.811595	24287.060375
15.550500	-0.002481	0.000456	0.000338	0.005131	7011.752148	45244.937831	3976.170683	24034.436371
16.036000	-0.000035	-0.000668	0.002410	-0.001411	7097.732044	45775.643218	3998.455613	24355.161229
16.537500	0.000956	0.000159	0.005070	-0.000418	7097.726016	45759.345854	4002.819905	24306.202450
17.034500	0.000838	0.000182	0.002691	-0.000635	7098.665913	45782.875808	3997.160999	24316.855717
17.541000	-0.004040	-0.000797	-0.004282	0.004676	7001.309869	45167.342486	3965.553987	24056.617643
18.035500	-0.000903	0.000581	0.002089	0.000955	7066.595677	45665.706802	3991.455581	24238.628876
18.535500	0.000987	-0.000119	0.000481	0.000775	7086.503677	45614.555593	3987.753794	24247.457573
19.039000	0.000863	-0.000069	-0.000074	0.000838	7084.697650	45613.376733	3986.156787	24244.386787
19.536500	0.000024	0.000149	0.000367	0.002756	7058.216449	45446.720391	3982.346502	24150.332488
20.037000	0.000114	0.000409	-0.001802	0.001200	7074.005908	45624.723567	3980.769325	24226.594068
20.537000	-0.000206	0.000692	0.001340	0.001407	7068.945395	45632.184839	3988.341490	24216.409729
21.034500	-0.000052	0.001040	-0.000799	0.001522	7069.319813	45655.041491	3982.521342	24210.788958
21.534500	-0.001549	0.000766	0.001324	0.002567	7044.979677	45525.648240	3985.300419	24159.563933
22.035500	-0.001124	0.000348	-0.002346	0.001000	7064.044966	45638.452163	3979.885243	24236.436058
22.535500	0.000678	0.000307	-0.000346	0.001442	7077.108462	45590.948825	3983.895362	24214.720308
23.035500	0.000212	0.000396	0.000363	0.000585	7080.860688	45683.833696	3987.939824	24256.794387
23.536000	-0.000805	0.000840	0.000775	0.002930	7048.623403	45497.369979	3982.947933	24141.821928
24.036500	0.000432	0.000342	0.002635	0.000675	7082.118528	45669.709864	3993.604737	24252.390881
24.536500	-0.000426	0.000540	-0.002519	0.000952	7071.194764	45661.925940	3979.562399	24238.754796
25.036500	0.000801	0.001087	-0.000876	0.001463	7078.081463	45665.447871	3982.474452	24213.681871
25.537000	0.000508	0.000383	0.000101	0.001433	7075.555900	45599.273207	3985.071115	24215.153475
26.034500	0.001964	0.000695	-0.002771	0.001313	7090.734473	45641.702949	3977.989937	24221.058182
26.535000	-0.000869	0.000146	0.000639	0.001115	7065.389568	45607.198582	3987.284599	24230.767033
27.035000	-0.002246	-0.000452	0.001217	0.000624	7056.888448	45596.678896	3990.051953	24254.879274
27.536000	-0.000079	0.000320	-0.000963	0.001198	7072.176659	45616.206612	3982.933663	24226.695710
28.038500	0.001750	0.000252	0.004896	-0.002161	7122.314626	45940.533258	4006.940934	24392.258736
28.536000	0.000244	0.000413	0.000990	-0.000446	7091.117784	45787.094424	3992.240719	24307.577827
29.036500	0.002108	-0.000207	-0.000304	-0.001087	7115.361128	45789.137676	3990.544973	24339.187183
29.537000	-0.001106	-0.000122	0.003019	0.000807	7066.065327	45611.144130	3994.257880	24245.882189
30.037000	0.001554	0.000384	0.005361	-0.000363	7102.967660	45776.023897	4003.437638	24303.478107
30.537500	0.001793	0.000536	0.007803	-0.000479	7106.406884	45802.448935	4010.171407	24309.191170
31.037500	0.001052	-0.000072	-0.001542	-0.000688	7101.261784	45763.118476	3986.306822	24319.493396
31.535000	-0.003398	-0.000404	-0.004831	0.004903	7005.227811	45183.497375	3963.585903	24045.542832
32.035500	0.002039	-0.000626	0.005230	0.001974	7085.086000	45447.397519	3996.978878	24188.614659
32.566000	0.001034	-0.000360	0.000017	-0.001023	7104.329505	45767.841954	3991.214330	24336.040716
33.035500	0.001310	0.000738	0.002140	-0.000006	7097.154706	45775.732922	3994.087481	24285.879376
33.536000	-0.001917	-0.000210	0.002194	0.004706	7021.127253	45221.521421	3982.028925	24055.130069
34.036500	0.001806	0.000923	0.003245	0.000195	7100.008341	45774.165913	3996.443409	24276.000986
34.536500	0.004538	0.000707	0.003956	0.000062	7127.806178	45765.987027	3998.644568	24282.525685
35.037500	0.000722	0.000464	0.005297	-0.000091	7092.297757	45757.074415	4002.556122	24290.053846
35.537500	0.000995	0.000932	0.001102	0.002567	7069.339032	45541.955199	3984.730540	24159.597860
36.035000	0.000705	0.000719	0.000373	0.002214	7069.936381	45555.614910	3983.758324	24176.845252
36.535500	-0.000011	0.000020	-0.003345	0.001865	7066.414744	45521.290628	3975.103722	24193.954242
37.038000	0.000836	0.000928	0.001522	0.002205	7071.289629	45576.996601	3986.747478	24177.302387
37.535500	-0.000264	0.001116	0.003775	0.002194	7060.838506	45596.555555	3992.617958	24177.847569
38.036000	-0.000040	-0.000027	0.000866	0.002081	7064.074858	45495.550410	3985.373079	24183.382584
38.536500	0.000694	0.000957	0.000021	0.002905	7063.206801	45511.207963	3981.071202	24143.014743
39.036500	-0.000067	0.000936	0.002191	0.002734	7057.556352	45525.926050	3987.109758	24151.404620
39.537000	-0.001192	0.000132	0.004161	0.001631	7057.346168	45555.214144	3995.087032	24205.429128
40.037500	-0.001129	0.000027	-0.003007	0.001729	7057.013896	45535.298517	3976.318016	24200.635391
40.534500	-0.000877	0.000421	-0.001061	0.001967	7057.135836	45550.603699	3980.699299	24188.939381
41.035000	-0.000799	0.000260	0.001317	0.001630	7061.116082	45567.882186	3987.706835	24205.493413
41.538000	0.000352	0.000453	0.000371	0.002834	7060.605990	45468.815007	3982.154241	24146.487490
42.036000	0.000001	0.000538	0.004617	0.002056	7064.705261	45553.458480	3995.169831	24184.622660
42.538500	0.001659	0.000557	-0.004222	0.002166	7079.575130	45544.454039	3972.093464	24179.216179
43.036000	-0.002438	0.000765	0.004810	0.002359	7038.483899	45545.872384	3994.879899	24169.739696
43.536500	0.000145	-0.000035	0.000752	0.003025	7056.796697	45402.410727	3982.644180	24137.171733
44.035500	-0.000281	0.000982	0.001708	0.002308	7059.590498	45572.268582	3986.964973	24172.277207
44.537000	-0.001123	0.000545	0.002088	0.001802	7056.369907	45579.027603	3989.255696	24197.056244
45.037000	0.000965	0.000723	0.000034	-0.001230	7105.663978	45895.126602	3991.795329	24346.251825
45.535000	-0.004226	0.000091	0.001846	0.005140	6995.180454	45208.542281	3980.016945	24034.005860
46.038000	0.001860	0.001057	-0.000485	-0.000136	7103.730922	45820.051228	3987.612624	24292.283600
46.535000	0.000042	0.000187	0.002003	-0.000459	7089.282655	45766.031925	3994.908973	24308.188586
47.035500	0.002920	0.000445	0.001077	-0.000449	7117.047982	45790.562448	3992.475807	24307.733375
47.536000	-0.000757	0.000831	-0.000854	0.005831	7021.458290	45213.357514	3971.336953	24000.439186
48.036500	0.003250	0.000896	0.005197	0.000252	7113.444821	45765.903805	4001.396516	24273.200480
48.552000	0.001041	0.000580	0.005695	0.000018	7094.326764	45757.890100	4003.316901	24284.728821
49.042500	-0.000850	0.000289	-0.000612	0.001953	7057.534958	45539.006026	3981.891731	24189.626393
49.537500	-0.001154	0.000720	-0.002303	0.005407	7021.712842	45243.780139	3968.725039	24021.032022
50.052000	0.000366	0.000418	0.005728	-0.000532	7093.123570	45796.080957	4004.844882	24311.813123
50.537500	-0.000053	0.000867	0.003045	-0.000294	7086.779179	45816.880551	3997.197733	24300.084081
51.035000	0.001799	0.000672	0.005805	-0.000203	7103.792682	45788.620216	4004.182066	24295.576228
51.535500	-0.002626	0.000538	-0.000575	0.005318	7008.604533	45234.767824	3973.358022	24025.345252
52.036000	0.003874	0.000752	0.002488	-0.000267	7124.553966	45802.878686	3995.673902	24298.748832
52.536000	-0.000041	0.000262	0.003000	-0.000071	7084.746119	45735.211812	3996.495997	24289.064284
53.036500	0.001678	0.000504	0.002239	0.002489	7076.657165	45507.606216	3987.868456	24163.404295
53.536500	-0.018616	-0.006414	-0.005045	0.107037	6033.125262	35878.683593	3732.675921	19614.758729
54.037000	-0.026814	-0.011733	0.005733	0.076897	6195.505695	37814.221070	3818.522626	20815.763532
54.534500	-0.036050	-0.021520	0.002848	-0.082982	7562.009038	52198.701574	4234.285788	28787.675356
55.037500	0.002973	-0.038711	0.029227	-0.183263	9325.148611	62578.186339	4698.376197	35510.999518
55.535500	0.021401	-0.007905	0.048213	-0.077867	8159.110626	53171.677046	4367.376476	28484.626536
56.038000	0.041022	0.009094	0.067196	-0.012401	7632.222203	47870.619536	4214.754477	24904.949617
56.535500	0.066454	0.027436	0.085236	0.042462	7322.144591	44249.345065	4104.932434	22293.914453
57.036000	0.098026	0.047993	0.114305	0.097245	7091.991474	41121.158688	4033.576780	19995.838653
57.536000	0.130923	0.067722	0.145082	0.138863	7008.650285	39245.993642	4004.738035	18433.891613
58.036500	0.168169	0.088508	0.173502	0.170877	7058.446396	38320.203306	3995.336477	17330.198094
58.536500	0.198770	0.105748	0.204495	0.192547	7144.849426	37961.470858	4019.889647	16627.971524
59.037000	0.212878	0.112649	0.215546	0.210253	7109.829654	37101.656149	4002.309827	16079.664669
59.540000	0.220810	0.121390	0.220050	0.282232	6532.572230	32476.776159	3838.474986	14067.144297
60.034500	0.216832	0.120234	0.225528	0.326067	6153.848886	29573.092396	3756.079865	12995.267541
60.535000	0.229818	0.129025	0.243319	0.333055	6199.098530	29683.801212	3778.553750	12834.178227
61.035500	0.243487	0.138332	0.251070	0.329816	6330.086562	30466.692889	3801.999249	12908.522952
61.535500	0.250986	0.143658	0.262523	0.342505	6289.337089	30004.503589	3799.332113	12620.417824
62.036000	0.257355	0.146909	0.271107	0.409121	5850.277329	26334.511287	3682.311770	11238.533007
62.535500	0.260131	0.149123	0.281553	0.419356	5800.038667	25907.002540	3682.710871	11044.391069
63.039000	0.268508	0.153263	0.278406	0.419485	5855.640913	26119.737558	3676.555038	11041.960645
63.537000	0.266609	0.154259	0.278238	0.427725	5787.435756	25736.816155	3660.971344	10888.988079
64.040000	0.286569	0.162597	0.287674	0.444237	5810.450065	25312.382667	3648.087680	10591.051493
64.534500	0.290203	0.164742	0.289551	0.410710	6070.475878	27224.932918	3714.704883	11208.099923
65.035000	0.291061	0.165630	0.288511	0.416415	6035.287129	26957.364175	3701.591847	11099.707359
65.568000	0.294203	0.166419	0.292179	0.421559	6020.865049	26718.088377	3698.748528	11003.195530
66.035500	0.295579	0.167705	0.297714	0.428288	5982.631208	26422.287571	3696.456308	10878.652102
66.536000	0.300108	0.167925	0.295559	0.435721	5962.090039	26036.016046	3678.274298	10743.305854
67.036000	0.299534	0.168022	0.291482	0.442655	5909.598648	25675.758062	3657.883693	10619.119814
67.537000	0.297572	0.167985	0.300403	0.447470	5862.995559	25423.510541	3665.426181	10534.036188
68.037000	0.301433	0.168901	0.301469	0.452282	5856.513713	25222.980414	3658.542377	10449.945913
68.539500	0.296358	0.167546	0.298281	0.454322	5808.472047	25049.744623	3649.031649	10414.578498
69.034500	0.299514	0.169180	0.295495	0.459168	5797.174261	24887.020590	3635.352641	10331.227753
69.535000	0.297671	0.168578	0.293902	0.465489	5743.220083	24540.467582	3621.420952	10223.899593
70.035000	0.303955	0.170598	0.311339	0.463080	5800.704791	24761.577447	3656.845737	10264.619949
70.535500	0.301094	0.168672	0.304749	0.463272	5780.385615	24655.541901	3644.556827	10261.368234
71.036000	0.301086	0.167834	0.302272	0.465255	5767.207788	24515.161895	3636.580000	10227.845598
71.536000	0.299527	0.168413	0.303094	0.470590	5722.045894	24280.503318	3628.591227	10138.408042
72.036500	0.304211	0.169537	0.301424	0.468106	5769.014902	24458.251171	3630.025358	10179.908086
72.537000	0.302017	0.168134	0.300606	0.467384	5759.309056	24424.647030	3629.857283	10192.027724
73.037000	0.302453	0.167935	0.310485	0.470120	5744.205239	24280.109144	3642.560856	10146.242931
73.537500	0.298580	0.167855	0.301452	0.473265	5698.610378	24122.449680	3621.025380	10093.974231
74.034500	0.303111	0.168402	0.314897	0.469606	5751.892304	24328.299334	3651.445657	10154.828003
74.535000	0.306030	0.170117	0.313529	0.471335	5759.718504	24327.631690	3645.846998	10126.006880
75.035500	0.304886	0.167332	0.314946	0.468837	5768.650070	24313.494437	3652.929673	10167.674538
75.536000	0.301424	0.168741	0.307748	0.475278	5703.973221	24067.648493	3628.531943	10060.729482
76.035500	0.305024	0.168683	0.313320	0.469142	5767.548113	24364.982801	3649.429322	10162.578818
76.536000	0.302826	0.167714	0.308366	0.468037	5760.335813	24371.653106	3642.494514	10181.062430
77.036000	0.305494	0.167368	0.313031	0.468238	5776.635612	24344.731337	3650.541658	10177.705614
77.542500	0.300417	0.166535	0.310266	0.472762	5713.727487	24082.708330	3637.445681	10102.306895
78.036500	0.305467	0.168196	0.309972	0.467958	5778.308434	24399.359323	3645.524309	10182.398763
78.535000	0.304858	0.166118	0.306449	0.466004	5787.232391	24393.213875	3642.703454	10215.213811
79.035000	0.304292	0.166628	0.310899	0.469162	5762.580390	24262.990418	3645.024077	10162.235598
79.535500	0.302556	0.167397	0.309092	0.472111	5731.866416	24156.400443	3636.517566	10113.120850
80.035500	0.307606	0.166619	0.313364	0.466051	5805.254322	24415.637407	3655.121675	10214.436376
80.536000	0.305599	0.165234	0.311674	0.465346	5796.554086	24382.067177	3653.327500	10226.301200
81.036000	0.301960	0.166459	0.306627	0.469409	5745.632056	24242.633100	3636.938460	10158.113468
81.536500	0.303568	0.165847	0.318840	0.466236	5777.138985	24368.441615	3664.820532	10211.317977
82.039500	0.304513	0.163550	0.313086	0.464445	5795.315515	24343.501336	3657.542292	10241.508070
82.537000	0.302317	0.162830	0.309549	0.464116	5782.898331	24324.261152	3651.700954	10247.070068
83.037000	0.301912	0.164554	0.312627	0.469533	5744.505345	24143.459390	3647.469190	10156.037033
83.534500	0.302924	0.163209	0.312040	0.464719	5782.927482	24313.232027	3655.134292	10236.884828
84.035000	0.303446	0.161347	0.312079	0.463364	5795.409342	24288.334832	3657.678952	10259.804101
84.534500	0.304581	0.163531	0.316731	0.465412	5789.334919	24295.056829	3662.453173	10225.197242
85.035500	0.298960	0.160741	0.303958	0.468051	5734.894216	24030.158277	3634.607767	10180.839082
85.535500	0.306229	0.162258	0.309328	0.465153	5802.051369	24245.312465	3649.422935	10229.563142
86.036000	0.303563	0.161340	0.315342	0.465056	5784.934750	24205.128070	3660.556612	10231.206057
86.539000	0.304055	0.161146	0.314686	0.465451	5785.576072	24176.361756	3658.630288	10224.538985
87.036500	0.304255	0.161432	0.314286	0.471334	5748.057418	23904.793393	3647.213961	10126.021048
87.537500	0.303642	0.160652	0.318389	0.466252	5777.521605	24113.217454	3663.958156	10211.045749
88.037000	0.302891	0.160616	0.314374	0.468016	5760.900157	24025.727019	3653.380243	10181.414043
88.537500	0.302529	0.160053	0.312780	0.467788	5760.019747	24009.512822	3650.902149	10185.237021
89.035000	0.300973	0.160232	0.314270	0.473702	5711.239870	23733.512139	3642.923894	10086.740080
89.536500	0.306701	0.161758	0.314848	0.472238	5758.190647	23876.982805	3646.597278	10111.011115
90.035500	0.305966	0.159716	0.318005	0.470831	5762.617842	23846.424077	3654.867117	10134.399285
90.536000	0.303331	0.159363	0.316088	0.471863	5738.544512	23779.958548	3649.512946	10117.236273
91.039000	0.302558	0.158051	0.311421	0.477757	5695.293440	23437.508725	3630.635363	10019.975735
91.537000	0.304010	0.159345	0.317511	0.480908	5684.386178	23350.232890	3635.843922	9968.537620
92.037000	0.307610	0.159102	0.315235	0.475814	5740.691210	23579.129224	3640.869999	10051.898921
92.537000	0.310110	0.158126	0.317417	0.477287	5747.421037	23463.269927	3642.140185	10027.697732
93.037000	0.304579	0.158515	0.314146	0.483748	5669.862416	23178.719768	3624.891472	9922.475458
93.535000	0.302858	0.156840	0.311414	0.483860	5658.190707	23095.748774	3619.922132	9920.662498
94.035500	0.307506	0.158424	0.318481	0.481448	5703.404381	23281.804750	3636.608919	9959.754320
94.535500	0.308213	0.157135	0.314941	0.481904	5705.019741	23200.298958	3629.530015	9952.339623
95.035500	0.303730	0.157054	0.314935	0.489858	5625.826046	22829.507775	3615.623423	9824.410715
95.616000	0.302709	0.156720	0.309156	0.490292	5616.707271	22794.439200	3604.943553	9817.494427
96.036000	0.305884	0.156788	0.315083	0.486094	5663.231357	22990.110552	3622.425100	9884.659686
96.564500	0.303844	0.155966	0.317606	0.486734	5646.229563	22922.838822	3625.722966	9874.383543
97.036500	0.305097	0.155797	0.314477	0.494646	5604.437522	22555.000291	3606.596092	9748.520209
97.534000	0.307418	0.156384	0.316583	0.496292	5608.646035	22507.325034	3607.383708	9722.626323
98.034500	0.308881	0.157957	0.317024	0.493261	5636.823824	22715.526805	3613.351412	9770.385635
98.537000	0.308045	0.155930	0.316134	0.492162	5638.478661	22673.392743	3613.713022	9787.790889
99.035500	0.306075	0.154707	0.311962	0.492934	5621.241683	22583.100810	3605.223414	9775.561009
