sample name	sample
index	566
start time	 03-16-2021  02:40:43 PM


Wavelength (nm)	Absorbance
494.344910	0.058384
494.563924	0.058384
494.782919	0.058384
495.001897	-0.069129
495.220856	-0.000380
495.439797	-0.025376
495.658719	-0.025138
495.877624	-0.038232
496.096510	-0.030017
496.315378	-0.039055
496.534227	-0.040301
496.753059	-0.045923
496.971872	-0.042051
497.190667	0.038021
497.409444	0.074665
497.628203	0.085874
497.846943	0.090124
498.065665	0.092097
498.284369	0.095866
498.503055	0.098059
498.721723	0.098738
498.940372	0.101574
499.159003	0.101996
499.377616	0.102151
499.596210	0.100698
499.814787	0.100940
500.033345	0.101601
500.251885	0.101024
500.470406	0.100918
500.688910	0.100487
500.907395	0.098791
501.125862	0.098829
501.344311	0.100184
501.562742	0.101582
501.781154	0.101874
501.999548	0.103075
502.217924	0.103752
502.436282	0.103404
502.654621	0.104549
502.872942	0.105006
503.091245	0.105287
503.309530	0.104692
503.527797	0.104132
503.746045	0.104958
503.964275	0.104245
504.182487	0.103932
504.400681	0.105137
504.618856	0.105147
504.837013	0.105774
505.055152	0.104736
505.273273	0.104237
505.491376	0.104326
505.709460	0.104434
505.927526	0.103900
506.145574	0.103431
506.363604	0.103444
506.581615	0.103873
506.799608	0.103698
507.017583	0.105033
507.235540	0.104701
507.453478	0.104781
507.671399	0.104258
507.889301	0.104976
508.107185	0.105144
508.325050	0.104621
508.542898	0.104046
508.760727	0.103674
508.978538	0.103654
509.196330	0.104531
509.414105	0.104771
509.631861	0.104607
509.849599	0.104414
510.067319	0.105597
510.285021	0.106530
510.502704	0.106603
510.720369	0.106294
510.938016	0.106804
511.155645	0.106567
511.373255	0.105946
511.590848	0.106978
511.808422	0.107660
512.025977	0.106914
512.243515	0.106517
512.461034	0.106956
512.678536	0.107965
512.896018	0.107476
513.113483	0.107237
513.330930	0.107363
513.548358	0.107336
513.765768	0.106452
513.983160	0.106508
514.200533	0.107400
514.417889	0.107043
514.635226	0.107624
514.852545	0.107128
515.069845	0.107508
515.287128	0.107590
515.504392	0.106802
515.721638	0.107911
515.938866	0.109285
516.156075	0.108344
516.373267	0.108109
516.590440	0.106960
516.807594	0.107288
517.024731	0.107777
517.241850	0.108282
517.458950	0.109365
517.676032	0.109310
517.893095	0.108978
518.110141	0.109124
518.327168	0.110147
518.544177	0.111334
518.761168	0.112021
518.978141	0.111592
519.195095	0.111259
519.412031	0.110728
519.628949	0.110334
519.845849	0.111261
520.062731	0.111289
520.279594	0.111213
520.496439	0.110131
520.713266	0.109848
520.930074	0.110325
521.146865	0.110656
521.363637	0.111517
521.580391	0.111898
521.797127	0.110662
522.013844	0.111071
522.230543	0.111939
522.447224	0.113014
522.663887	0.112769
522.880532	0.113330
523.097158	0.113857
523.313766	0.113272
523.530356	0.113327
523.746928	0.113770
523.963481	0.114773
524.180017	0.115728
524.396534	0.115658
524.613032	0.116035
524.829513	0.116295
525.045975	0.116492
525.262420	0.117599
525.478845	0.117791
525.695253	0.118191
525.911643	0.118396
526.128014	0.117569
526.344367	0.117705
526.560702	0.118311
526.777018	0.118526
526.993316	0.119317
527.209597	0.119418
527.425858	0.120257
527.642102	0.120525
527.858328	0.119597
528.074535	0.119164
528.290724	0.119803
528.506894	0.119999
528.723047	0.119933
528.939181	0.119288
529.155297	0.119512
529.371395	0.119054
529.587475	0.119032
529.803536	0.120255
530.019579	0.121110
530.235604	0.121337
530.451611	0.121703
530.667600	0.122084
530.883570	0.121711
531.099522	0.120933
531.315456	0.121287
531.531372	0.121267
531.747269	0.121061
531.963148	0.121242
532.179009	0.121364
532.394852	0.121073
532.610676	0.120852
532.826482	0.122817
533.042271	0.124231
533.258040	0.124998
533.473792	0.125587
533.689525	0.126276
533.905240	0.126397
534.120937	0.126667
534.336616	0.127108
534.552277	0.127654
534.767919	0.126783
534.983543	0.126166
535.199149	0.126002
535.414736	0.126661
535.630306	0.126217
535.845857	0.126278
536.061390	0.126816
536.276904	0.126963
536.492401	0.126897
536.707879	0.127659
536.923339	0.128481
537.138781	0.128417
537.354204	0.128300
537.569610	0.129041
537.784997	0.129265
538.000366	0.129199
538.215716	0.129643
538.431049	0.130290
538.646363	0.130224
538.861659	0.129481
539.076937	0.130208
539.292196	0.130350
539.507438	0.130226
539.722661	0.130884
539.937866	0.130995
540.153052	0.131054
540.368221	0.130588
540.583371	0.130294
540.798503	0.131791
541.013617	0.131238
541.228712	0.131326
541.443789	0.130903
541.658848	0.130332
541.873889	0.130429
542.088912	0.130553
542.303916	0.131443
542.518902	0.132630
542.733870	0.132417
542.948820	0.133060
543.163752	0.133359
543.378665	0.133237
543.593560	0.133562
543.808437	0.133801
544.023295	0.134815
544.238136	0.134609
544.452958	0.134046
544.667762	0.134082
544.882548	0.133992
545.097315	0.134308
545.312064	0.135199
545.526795	0.135368
545.741508	0.135552
545.956203	0.134666
546.170879	0.134390
546.385537	0.134629
546.600177	0.134966
546.814799	0.134907
547.029402	0.135104
547.243988	0.135525
547.458555	0.135400
547.673103	0.135389
547.887634	0.135731
548.102146	0.136541
548.316640	0.136947
548.531116	0.137185
548.745574	0.138063
548.960013	0.138139
549.174435	0.138471
549.388838	0.139233
549.603222	0.139098
549.817589	0.139475
550.031937	0.139603
550.246267	0.139707
550.460579	0.140033
550.674873	0.139581
550.889148	0.139384
551.103405	0.138723
551.317644	0.138210
551.531865	0.138774
551.746068	0.138475
551.960252	0.138576
552.174418	0.138219
552.388566	0.138113
552.602696	0.138411
552.816807	0.138728
553.030900	0.139342
553.244975	0.139988
553.459032	0.140639
553.673070	0.141007
553.887091	0.141486
554.101093	0.141888
554.315077	0.141697
554.529042	0.141628
554.742990	0.141604
554.956919	0.141603
555.170830	0.141411
555.384722	0.140967
555.598597	0.141390
555.812453	0.140353
556.026291	0.140786
556.240111	0.141025
556.453913	0.141291
556.667696	0.141948
556.881461	0.142407
557.095208	0.142671
557.308937	0.142868
557.522647	0.142647
557.736339	0.143423
557.950013	0.143500
558.163669	0.143851
558.377307	0.144477
558.590926	0.144223
558.804527	0.144282
559.018110	0.144419
559.231675	0.144659
559.445221	0.144738
559.658749	0.144432
559.872259	0.144182
560.085751	0.144140
560.299225	0.143738
560.512680	0.143667
560.726117	0.143547
560.939536	0.143960
561.152937	0.143838
561.366319	0.144518
561.579683	0.145177
561.793029	0.145532
562.006357	0.145327
562.219667	0.145627
562.432958	0.145883
562.646231	0.146259
562.859486	0.146107
563.072723	0.146360
563.285941	0.146126
563.499141	0.146262
563.712323	0.146296
563.925487	0.146468
564.138632	0.146668
564.351760	0.147056
564.564869	0.147323
564.777960	0.147914
564.991032	0.148240
565.204087	0.148723
565.417123	0.148609
565.630141	0.149104
565.843140	0.149486
566.056122	0.149738
566.269085	0.149963
566.482030	0.149500
566.694957	0.148753
566.907866	0.148942
567.120756	0.148293
567.333628	0.148659
567.546482	0.148616
567.759318	0.148216
567.972135	0.147787
568.184935	0.147389
568.397716	0.148038
568.610478	0.148614
568.823223	0.148296
569.035949	0.148463
569.248657	0.148282
569.461347	0.147520
569.674019	0.147908
569.886672	0.148209
570.099308	0.148437
570.311925	0.148603
570.524523	0.148784
570.737104	0.149204
570.949666	0.149437
571.162210	0.149844
571.374736	0.150295
571.587244	0.150202
571.799733	0.150430
572.012205	0.150365
572.224658	0.150006
572.437092	0.149852
572.649509	0.149937
572.861907	0.150305
573.074287	0.150122
573.286649	0.150290
573.498993	0.150974
573.711318	0.151134
573.923625	0.151682
574.135914	0.152092
574.348185	0.152108
574.560438	0.152064
574.772672	0.152454
574.984888	0.152159
575.197086	0.152698
575.409266	0.152605
575.621427	0.152724
575.833570	0.152414
576.045695	0.152282
576.257802	0.152520
576.469890	0.152360
576.681961	0.152226
576.894013	0.152847
577.106046	0.152314
577.318062	0.152471
577.530059	0.152013
577.742039	0.151762
577.954000	0.151492
578.165942	0.151629
578.377867	0.151780
578.589773	0.151600
578.801661	0.151681
579.013531	0.152149
579.225382	0.152032
579.437216	0.152853
579.649031	0.153526
579.860828	0.153879
580.072606	0.154024
580.284367	0.154405
580.496109	0.154832
580.707833	0.154832
580.919539	0.155090
581.131227	0.154845
581.342896	0.154554
581.554547	0.154438
581.766180	0.154766
581.977795	0.154909
582.189391	0.154822
582.400969	0.154451
582.612529	0.154510
582.824071	0.154837
583.035595	0.155550
583.247100	0.155698
583.458587	0.155700
583.670056	0.156013
583.881506	0.155785
584.092939	0.155929
584.304353	0.156454
584.515749	0.156934
584.727127	0.156818
584.938486	0.156419
585.149828	0.156426
585.361151	0.156452
585.572456	0.156449
585.783742	0.157119
585.995011	0.157248
586.206261	0.157148
586.417493	0.156999
586.628706	0.157340
586.839902	0.157975
587.051079	0.158151
587.262238	0.158733
587.473379	0.158432
587.684502	0.158563
587.895606	0.158528
588.106692	0.158555
588.317760	0.158599
588.528810	0.158400
588.739841	0.158043
588.950855	0.158254
589.161850	0.158216
589.372827	0.158341
589.583785	0.158277
589.794726	0.157990
590.005648	0.158173
590.216552	0.158471
590.427437	0.158918
590.638305	0.158998
590.849154	0.158881
591.059985	0.158513
591.270798	0.158602
591.481592	0.158789
591.692369	0.159046
591.903127	0.159111
592.113867	0.159089
592.324588	0.159230
592.535292	0.159549
592.745977	0.159440
592.956644	0.160109
593.167293	0.160346
593.377923	0.160497
593.588536	0.160553
593.799130	0.160434
594.009706	0.160581
594.220263	0.159890
594.430803	0.159730
594.641324	0.160174
594.851827	0.160167
595.062312	0.160599
595.272778	0.160476
595.483227	0.160790
595.693657	0.160923
595.904069	0.160706
596.114462	0.161203
596.324838	0.161515
596.535195	0.161570
596.745534	0.161518
596.955855	0.161178
597.166157	0.161350
597.376441	0.161400
597.586707	0.162034
597.796955	0.162468
598.007185	0.162321
598.217396	0.162701
598.427589	0.162619
598.637764	0.162689
598.847921	0.163003
599.058060	0.163033
599.268180	0.163373
599.478282	0.163137
599.688366	0.163194
599.898431	0.163823
600.108479	0.163358
600.318508	0.163915
600.528519	0.164431
600.738511	0.164575
600.948486	0.164627
601.158442	0.164577
601.368380	0.164368
601.578300	0.164321
601.788202	0.164093
601.998085	0.164417
602.207950	0.164228
602.417797	0.164027
602.627626	0.164150
602.837436	0.164395
603.047228	0.164616
603.257002	0.164821
603.466758	0.164879
603.676496	0.165111
603.886215	0.165040
604.095916	0.165116
604.305599	0.165389
604.515264	0.165538
604.724910	0.165312
604.934538	0.165109
605.144148	0.165418
605.353740	0.165595
605.563314	0.165389
605.772869	0.165672
605.982406	0.166009
606.191925	0.165856
606.401425	0.165570
606.610908	0.166029
606.820372	0.166301
607.029818	0.166242
607.239246	0.166212
607.448655	0.166673
607.658047	0.166675
607.867420	0.166628
608.076775	0.166499
608.286111	0.166870
608.495430	0.166760
608.704730	0.166521
608.914012	0.166490
609.123275	0.166895
609.332521	0.166528
609.541748	0.166745
609.750957	0.166542
609.960148	0.166975
610.169321	0.167070
610.378475	0.167282
610.587611	0.167862
610.796729	0.168286
611.005829	0.167992
611.214910	0.168244
611.423974	0.168265
611.633019	0.168518
611.842045	0.168554
612.051054	0.168513
612.260044	0.168391
612.469017	0.168157
612.677970	0.168082
612.886906	0.168469
613.095824	0.168662
613.304723	0.168713
613.513604	0.168743
613.722467	0.168884
613.931311	0.168963
614.140138	0.169335
614.348946	0.169506
614.557736	0.169575
614.766507	0.169250
614.975261	0.169584
615.183996	0.169840
615.392713	0.170024
615.601412	0.170112
615.810092	0.170192
616.018754	0.170016
616.227399	0.170367
616.436024	0.170604
616.644632	0.171046
616.853222	0.170864
617.061793	0.170901
617.270346	0.170743
617.478880	0.170617
617.687397	0.170635
617.895895	0.170684
618.104375	0.170746
618.312837	0.171043
618.521281	0.170979
618.729706	0.170792
618.938113	0.170677
619.146502	0.171046
619.354873	0.171169
619.563226	0.171220
619.771560	0.171238
619.979876	0.171290
620.188174	0.171166
620.396453	0.171273
620.604715	0.171767
620.812958	0.172148
621.021183	0.172154
621.229390	0.172169
621.437578	0.172705
621.645748	0.173214
621.853900	0.173268
622.062034	0.173417
622.270150	0.173302
622.478247	0.173358
622.686326	0.173393
622.894387	0.173654
623.102430	0.173763
623.310454	0.173643
623.518461	0.173685
623.726449	0.173859
623.934418	0.173972
624.142370	0.174117
624.350303	0.174333
624.558218	0.174661
624.766115	0.174320
624.973994	0.174736
625.181855	0.174698
625.389697	0.174496
625.597521	0.174367
625.805327	0.174249
626.013114	0.174559
626.220883	0.174397
626.428634	0.174157
626.636367	0.174440
626.844082	0.174243
627.051778	0.174323
627.259457	0.174493
627.467117	0.174995
627.674758	0.175199
627.882382	0.175266
628.089987	0.175491
628.297574	0.175581
628.505143	0.175880
628.712694	0.176153
628.920226	0.176000
629.127740	0.176212
629.335236	0.175850
629.542714	0.175694
629.750174	0.175799
629.957615	0.175740
630.165038	0.175960
630.372443	0.176008
630.579829	0.176017
630.787198	0.176455
630.994548	0.176392
631.201880	0.176676
631.409194	0.177118
631.616489	0.177223
631.823766	0.177706
632.031025	0.177895
632.238266	0.178112
632.445489	0.178302
632.652693	0.178472
632.859879	0.178515
633.067047	0.178644
633.274197	0.178661
633.481329	0.178899
633.688442	0.178675
633.895537	0.178915
634.102614	0.178933
634.309672	0.178997
634.516713	0.179198
634.723735	0.179517
634.930739	0.179488
635.137724	0.179737
635.344692	0.179908
635.551641	0.180028
635.758572	0.179716
635.965485	0.179832
636.172379	0.179917
636.379256	0.179744
636.586114	0.179688
636.792954	0.179706
636.999775	0.179653
637.206579	0.179416
637.413364	0.179639
637.620131	0.179785
637.826880	0.179854
638.033610	0.180035
638.240323	0.180053
638.447017	0.180205
638.653692	0.180315
638.860350	0.180355
639.066990	0.180649
639.273611	0.180609
639.480214	0.180570
639.686798	0.180505
639.893365	0.180547
640.099913	0.180807
640.306443	0.180965
640.512955	0.181301
640.719449	0.181198
640.925924	0.181447
641.132381	0.181828
641.338820	0.182479
641.545241	0.182666
641.751644	0.182812
641.958028	0.183090
642.164394	0.182907
642.370742	0.183007
642.577071	0.183505
642.783383	0.183518
642.989676	0.183441
643.195951	0.183211
643.402207	0.183448
643.608446	0.183386
643.814666	0.183158
644.020868	0.183409
644.227052	0.183491
644.433218	0.183518
644.639365	0.183617
644.845494	0.183827
645.051605	0.183972
645.257698	0.184084
645.463772	0.184500
645.669828	0.184826
645.875866	0.185144
646.081886	0.185285
646.287888	0.185433
646.493871	0.185479
646.699836	0.185396
646.905783	0.185450
647.111712	0.185447
647.317622	0.185419
647.523514	0.185490
647.729388	0.185603
647.935244	0.185777
648.141082	0.185779
648.346901	0.185950
648.552702	0.186151
648.758485	0.186226
648.964250	0.186417
649.169996	0.186405
649.375724	0.186513
649.581434	0.186507
649.787126	0.186565
649.992800	0.186462
650.198455	0.186515
650.404092	0.186644
650.609711	0.186768
650.815311	0.186991
651.020894	0.187265
651.226458	0.187371
651.432004	0.187543
651.637532	0.187606
651.843041	0.187924
652.048532	0.187997
652.254006	0.187918
652.459460	0.188182
652.664897	0.188088
652.870315	0.187903
653.075716	0.187822
653.281097	0.187900
653.486461	0.187836
653.691807	0.187700
653.897134	0.187779
654.102443	0.188330
654.307734	0.188398
654.513006	0.188640
654.718261	0.188920
654.923497	0.189209
655.128715	0.189467
655.333915	0.189727
655.539096	0.190242
655.744259	0.190460
655.949404	0.190525
656.154531	0.190781
656.359640	0.190805
656.564730	0.191130
656.769802	0.191205
656.974856	0.191347
657.179892	0.191380
657.384909	0.191481
657.589908	0.191564
657.794889	0.191897
657.999852	0.191935
658.204797	0.192032
658.409723	0.192001
658.614631	0.192165
658.819521	0.192200
659.024393	0.192500
659.229246	0.192695
659.434081	0.193000
659.638898	0.192712
659.843697	0.192629
660.048478	0.192778
660.253240	0.192971
660.457984	0.193176
660.662710	0.193272
660.867417	0.193289
661.072107	0.193226
661.276778	0.192949
661.481431	0.193044
661.686066	0.193213
661.890682	0.193489
662.095281	0.193712
662.299861	0.193907
662.504422	0.193876
662.708966	0.194036
662.913491	0.194261
663.117999	0.194409
663.322488	0.194660
663.526958	0.194770
663.731411	0.194942
663.935845	0.195099
664.140261	0.195383
664.344659	0.195671
664.549038	0.195985
664.753400	0.196137
664.957743	0.196653
665.162068	0.196834
665.366375	0.197053
665.570663	0.197207
665.774933	0.197110
665.979185	0.197072
666.183419	0.197239
666.387635	0.197028
666.591832	0.197179
666.796011	0.197149
667.000172	0.197089
667.204315	0.197478
667.408439	0.197588
667.612545	0.197972
667.816634	0.198193
668.020703	0.198235
668.224755	0.198683
668.428788	0.198980
668.632803	0.199240
668.836800	0.199405
669.040779	0.199255
669.244739	0.199288
669.448681	0.199101
669.652605	0.199168
669.856511	0.199173
670.060399	0.199251
670.264268	0.199057
670.468119	0.198954
670.671952	0.199338
670.875767	0.199685
671.079563	0.200001
671.283341	0.200243
671.487101	0.200204
671.690843	0.200172
671.894567	0.200276
672.098272	0.200562
672.301959	0.200961
672.505628	0.201142
672.709278	0.201185
672.912911	0.201131
673.116525	0.201333
673.320121	0.201740
673.523699	0.202354
673.727258	0.202385
673.930799	0.202732
674.134322	0.202781
674.337827	0.202515
674.541314	0.202657
674.744782	0.202917
674.948232	0.202921
675.151664	0.203005
675.355078	0.202930
675.558474	0.203020
675.761851	0.202871
675.965210	0.203181
676.168551	0.203444
676.371873	0.203602
676.575178	0.203664
676.778464	0.203805
676.981732	0.203964
677.184981	0.204171
677.388213	0.204464
677.591426	0.204644
677.794621	0.204598
677.997798	0.204900
678.200956	0.205065
678.404097	0.205201
678.607219	0.205644
678.810323	0.205712
679.013408	0.205859
679.216476	0.206069
679.419525	0.206177
679.622556	0.206398
679.825569	0.206509
680.028563	0.206412
680.231540	0.206561
680.434498	0.206561
680.637438	0.206547
680.840359	0.206815
681.043263	0.206944
681.246148	0.207132
681.449015	0.207184
681.651864	0.207227
681.854694	0.207420
682.057506	0.207708
682.260301	0.207999
682.463076	0.208188
682.665834	0.208000
682.868573	0.208141
683.071295	0.208224
683.273998	0.208436
683.476682	0.208365
683.679349	0.208367
683.881997	0.208261
684.084627	0.208223
684.287239	0.208217
684.489833	0.208477
684.692408	0.208555
684.894965	0.208831
685.097504	0.209006
685.300025	0.209295
685.502527	0.209517
685.705012	0.209586
685.907478	0.209821
686.109925	0.210120
686.312355	0.210332
686.514766	0.210430
686.717159	0.210262
686.919534	0.210261
687.121891	0.210582
687.324230	0.210724
687.526550	0.211013
687.728852	0.211129
687.931136	0.211272
688.133401	0.211235
688.335649	0.211276
688.537878	0.211485
688.740089	0.211578
688.942281	0.211864
689.144456	0.212358
689.346612	0.212314
689.548750	0.212312
689.750870	0.212378
689.952971	0.212595
690.155055	0.212661
690.357120	0.212831
690.559167	0.212942
690.761195	0.212702
690.963206	0.212773
691.165198	0.212884
691.367172	0.213011
691.569128	0.213287
691.771065	0.213387
691.972984	0.213834
692.174885	0.214001
692.376768	0.214179
692.578633	0.214390
692.780479	0.214179
692.982308	0.214205
693.184118	0.214317
693.385909	0.214349
693.587683	0.214256
693.789438	0.214137
693.991175	0.214219
694.192894	0.214182
694.394595	0.214182
694.596277	0.214276
694.797941	0.214427
694.999587	0.214491
695.201215	0.214397
695.402824	0.214771
695.604416	0.214729
695.805989	0.214743
696.007543	0.214908
696.209080	0.215083
696.410598	0.215130
696.612099	0.215328
696.813580	0.215457
697.015044	0.215599
697.216490	0.215567
697.417917	0.215582
697.619326	0.215849
697.820717	0.216080
698.022089	0.216083
698.223444	0.216316
698.424780	0.216394
698.626098	0.216429
698.827397	0.216621
699.028679	0.216691
699.229942	0.216958
699.431187	0.217035
699.632414	0.216741
699.833622	0.216894
700.034813	0.216915
700.235985	0.216931
700.437139	0.217041
700.638274	0.217150
700.839392	0.217190
701.040491	0.217131
701.241572	0.217107
701.442635	0.217455
701.643679	0.217331
701.844706	0.217373
702.045714	0.217404
702.246704	0.217212
702.447675	0.217090
702.648629	0.217334
702.849564	0.217577
703.050481	0.217621
703.251380	0.217603
703.452260	0.217834
703.653122	0.217805
703.853966	0.217840
704.054792	0.218121
704.255600	0.218050
704.456389	0.218191
704.657160	0.218167
704.857913	0.218120
705.058648	0.218213
705.259365	0.218102
705.460063	0.217975
705.660743	0.218239
705.861405	0.218132
706.062048	0.218199
706.262674	0.217891
706.463281	0.217813
706.663870	0.217934
706.864441	0.217759
707.064993	0.217803
707.265527	0.218100
707.466043	0.217820
707.666541	0.217802
707.867021	0.217756
708.067482	0.217818
708.267925	0.217884
708.468350	0.217944
708.668757	0.218150
708.869145	0.217947
709.069516	0.217802
709.269868	0.217907
709.470201	0.218028
709.670517	0.218223
709.870814	0.218356
710.071093	0.218311
710.271354	0.218267
710.471597	0.218358
710.671821	0.218455
710.872028	0.218581
711.072216	0.218583
711.272385	0.218506
711.472537	0.218397
711.672670	0.218150
711.872785	0.218065
712.072882	0.217696
712.272961	0.217452
712.473021	0.217645
712.673063	0.217395
712.873087	0.217536
713.073093	0.217627
713.273081	0.217662
713.473050	0.217670
713.673001	0.217674
713.872934	0.217889
714.072849	0.217768
714.272745	0.217430
714.472623	0.217560
714.672483	0.217317
714.872325	0.217273
715.072148	0.217342
715.271954	0.217467
715.471741	0.217529
715.671509	0.217481
715.871260	0.217422
716.070992	0.217508
716.270707	0.217384
716.470403	0.217497
716.670080	0.217428
716.869740	0.217279
717.069381	0.217248
717.269004	0.217302
717.468609	0.217196
717.668195	0.217241
717.867764	0.217138
718.067314	0.217121
718.266846	0.216914
718.466360	0.216748
718.665855	0.216933
718.865332	0.216767
719.064791	0.216606
719.264232	0.216735
719.463655	0.216862
719.663059	0.216781
719.862445	0.216812
720.061813	0.216694
720.261163	0.216787
720.460494	0.216750
720.659807	0.216659
720.859102	0.216613
721.058379	0.216250
721.257638	0.215934
721.456878	0.216002
721.656100	0.215927
721.855304	0.215807
722.054490	0.215701
722.253657	0.215335
722.452806	0.215106
722.651937	0.214788
722.851050	0.214824
723.050145	0.214763
723.249221	0.214635
723.448279	0.214452
723.647319	0.214351
723.846340	0.214368
724.045344	0.214179
724.244329	0.214239
724.443296	0.214349
724.642245	0.214275
724.841175	0.214345
725.040088	0.214386
725.238982	0.214351
725.437857	0.214396
725.636715	0.214197
725.835554	0.214157
726.034376	0.213955
726.233179	0.213923
726.431963	0.213656
726.630730	0.213432
726.829478	0.213222
727.028208	0.213241
727.226920	0.213183
727.425614	0.212989
727.624289	0.212815
727.822946	0.213086
728.021585	0.212942
728.220206	0.212906
728.418808	0.212871
728.617392	0.212717
728.815958	0.212587
729.014506	0.212578
729.213036	0.212283
729.411547	0.212216
729.610040	0.211930
729.808515	0.211687
730.006972	0.211547
730.205410	0.211317
730.403831	0.211240
730.602233	0.211078
730.800616	0.210833
730.998982	0.210913
731.197329	0.210941
731.395658	0.210739
731.593969	0.210550
731.792262	0.210547
731.990536	0.210299
732.188793	0.210083
732.387031	0.209699
732.585250	0.209663
732.783452	0.209498
732.981635	0.209279
733.179800	0.209059
733.377947	0.209292
733.576076	0.209159
733.774186	0.209139
733.972278	0.209043
734.170352	0.209115
734.368408	0.208650
734.566446	0.208686
734.764465	0.208732
734.962466	0.208785
735.160449	0.208564
735.358413	0.208570
735.556360	0.208452
735.754288	0.208591
735.952198	0.208280
736.150090	0.208582
736.347963	0.208320
736.545818	0.208114
736.743655	0.207822
736.941474	0.207491
737.139275	0.207224
737.337057	0.207097
737.534821	0.206973
737.732567	0.207171
737.930295	0.207033
738.128005	0.206761
738.325696	0.206568
738.523369	0.206561
738.721024	0.206547
738.918660	0.206462
739.116279	0.206329
739.313879	0.205899
739.511461	0.205385
739.709024	0.205033
739.906570	0.205087
740.104097	0.204981
740.301606	0.204978
740.499097	0.204638
740.696569	0.204409
740.894024	0.204212
741.091460	0.204103
741.288878	0.204303
741.486277	0.203935
741.683659	0.203687
741.881022	0.203510
742.078367	0.203045
742.275694	0.203065
742.473002	0.203083
742.670293	0.203043
742.867565	0.202872
743.064819	0.202840
743.262054	0.202771
743.459272	0.202809
743.656471	0.202658
743.853652	0.202909
744.050815	0.202744
744.247959	0.202557
744.445085	0.202196
744.642194	0.202221
744.839283	0.202152
745.036355	0.202326
745.233408	0.202224
745.430444	0.202190
745.627461	0.201831
745.824459	0.201475
746.021440	0.201174
746.218402	0.201386
746.415346	0.201166
746.612272	0.200743
746.809180	0.200305
747.006069	0.200079
747.202940	0.200086
747.399793	0.199808
747.596628	0.199962
747.793444	0.200090
747.990243	0.199759
748.187023	0.199775
748.383784	0.199653
748.580528	0.199832
748.777253	0.199793
748.973960	0.199493
749.170649	0.199683
749.367320	0.199655
749.563973	0.199463
749.760607	0.199646
749.957223	0.199418
750.153821	0.199280
750.350400	0.199152
750.546962	0.198902
750.743505	0.198652
750.940030	0.198514
751.136536	0.198232
751.333025	0.198108
751.529495	0.197615
751.725947	0.197506
751.922381	0.197217
752.118796	0.197146
752.315194	0.197181
752.511573	0.197248
752.707934	0.197103
752.904276	0.197042
753.100601	0.197023
753.296907	0.196888
753.493195	0.196849
753.689465	0.196896
753.885716	0.196686
754.081949	0.196538
754.278164	0.196339
754.474361	0.196015
754.670540	0.196118
754.866700	0.195790
755.062843	0.196076
755.258967	0.195966
755.455072	0.196155
755.651160	0.195996
755.847229	0.195586
756.043280	0.195410
756.239313	0.195499
756.435328	0.195079
756.631324	0.195149
756.827302	0.194985
757.023262	0.194619
757.219204	0.194246
757.415127	0.194237
757.611033	0.194474
757.806920	0.194755
758.002788	0.194618
758.198639	0.194700
758.394471	0.194548
758.590286	0.194591
758.786081	0.194771
758.981859	0.194708
759.177619	0.194693
759.373360	0.194540
759.569083	0.194026
759.764788	0.193918
759.960474	0.193919
760.156143	0.193899
760.351793	0.193721
760.547425	0.193739
760.743038	0.193738
760.938634	0.193478
761.134211	0.193562
761.329770	0.193572
761.525311	0.193670
761.720833	0.193461
761.916338	0.193603
762.111824	0.193205
762.307292	0.192764
762.502741	0.192898
762.698173	0.192878
762.893586	0.192701
763.088981	0.192730
763.284358	0.192668
763.479716	0.192667
763.675057	0.192395
763.870379	0.192547
764.065683	0.192776
764.260968	0.192532
764.456236	0.192448
764.651485	0.192267
764.846716	0.192272
765.041929	0.192126
765.237123	0.192051
765.432299	0.191957
765.627457	0.191735
765.822597	0.191886
766.017719	0.191991
766.212822	0.192171
766.407907	0.192323
766.602974	0.192148
766.798023	0.192066
766.993054	0.192023
767.188066	0.192077
767.383060	0.192401
767.578036	0.191756
767.772993	0.191581
767.967933	0.191202
768.162854	0.191077
768.357757	0.191005
768.552642	0.191177
768.747508	0.190787
768.942356	0.190782
769.137186	0.190670
769.331998	0.190855
769.526792	0.190803
769.721567	0.191050
769.916324	0.191041
770.111063	0.191185
770.305784	0.190818
770.500486	0.191153
770.695171	0.190748
770.889837	0.190456
771.084484	0.190530
771.279114	0.190557
771.473725	0.190467
771.668318	0.190590
771.862893	0.190484
772.057450	0.190407
772.251988	0.190329
772.446509	0.190437
772.641011	0.190524
772.835494	0.190303
773.029960	0.190127
773.224407	0.189856
773.418836	0.189505
773.613247	0.189435
773.807640	0.189519
774.002014	0.189442
774.196370	0.189581
774.390708	0.189773
774.585028	0.190107
774.779330	0.190146
774.973613	0.190421
775.167878	0.190449
775.362125	0.190610
775.556354	0.190702
775.750564	0.190765
775.944756	0.190619
776.138930	0.190424
776.333086	0.190321
776.527223	0.190141
776.721343	0.189995
776.915444	0.189990
777.109526	0.189826
777.303591	0.189721
777.497637	0.189487
777.691666	0.189690
777.885676	0.189605
778.079667	0.189592
778.273641	0.189589
778.467596	0.189631
778.661533	0.189625
778.855452	0.189591
779.049352	0.189605
779.243235	0.190017
779.437099	0.189656
779.630945	0.189912
779.824773	0.189694
780.018582	0.189891
780.212373	0.190045
780.406146	0.190044
780.599901	0.190038
780.793638	0.190448
780.987356	0.190409
781.181056	0.190762
781.374738	0.190692
781.568402	0.190900
781.762047	0.190818
781.955674	0.190640
782.149283	0.190622
782.342874	0.190990
782.536447	0.190620
782.730001	0.190432
782.923537	0.190447
783.117055	0.190347
783.310555	0.190520
783.504036	0.190463
783.697499	0.190463
783.890944	0.190604
784.084371	0.190281
784.277780	0.190316
784.471170	0.190584
784.664542	0.190435
784.857896	0.190586
785.051231	0.190717
785.244549	0.190864
785.437848	0.190946
785.631129	0.190792
785.824392	0.190922
786.017636	0.191114
786.210863	0.190978
786.404071	0.191371
786.597260	0.191332
786.790432	0.191348
786.983585	0.191263
787.176721	0.191426
787.369838	0.191471
787.562936	0.191518
787.756017	0.191711
787.949079	0.191793
788.142123	0.191573
788.335149	0.191780
788.528156	0.191603
788.721146	0.191969
788.914117	0.191979
789.107070	0.192422
789.300005	0.192420
789.492921	0.192269
789.685819	0.192382
789.878699	0.192621
790.071561	0.192635
790.264405	0.192695
790.457230	0.192755
790.650037	0.192805
790.842826	0.192794
791.035597	0.192936
791.228349	0.192713
791.421084	0.192695
791.613800	0.192615
791.806497	0.192566
791.999177	0.192696
792.191838	0.192639
792.384481	0.192532
792.577106	0.192550
792.769713	0.192271
792.962301	0.192764
793.154871	0.192691
793.347423	0.192916
793.539957	0.193309
793.732473	0.193393
793.924970	0.193301
794.117449	0.193590
794.309910	0.193597
794.502353	0.194160
794.694777	0.194042
794.887183	0.194358
795.079571	0.194244
795.271941	0.194127
795.464293	0.194475
795.656626	0.194782
795.848941	0.194949
796.041238	0.195003
796.233516	0.194909
796.425777	0.195181
796.618019	0.195164
796.810243	0.195506
797.002449	0.195544
797.194636	0.195663
797.386805	0.195797
797.578956	0.195764
797.771089	0.195898
797.963204	0.195942
798.155300	0.196318
798.347378	0.196591
798.539438	0.196758
798.731480	0.196708
798.923503	0.196683
799.115509	0.197026
799.307496	0.197219
799.499465	0.197437
799.691415	0.197532
799.883348	0.197526
800.075262	0.197621
800.267158	0.197769
800.459035	0.197957
800.650895	0.197825
800.842736	0.197619
801.034559	0.197692
801.226364	0.197903
801.418150	0.198152
801.609919	0.198166
801.801669	0.198296
801.993401	0.198106
802.185114	0.198360
802.376810	0.198918
802.568487	0.199040
802.760146	0.199290
802.951787	0.199368
803.143409	0.199471
803.335014	0.199704
803.526600	0.199943
803.718168	0.200089
803.909717	0.200336
804.101249	0.200106
804.292762	0.200459
804.484257	0.200523
804.675734	0.200852
804.867192	0.201035
805.058632	0.201118
805.250054	0.201159
805.441458	0.201424
805.632844	0.201629
805.824211	0.202016
806.015561	0.201933
806.206891	0.202146
806.398204	0.202027
806.589499	0.202367
806.780775	0.202453
806.972033	0.202468
807.163273	0.202647
807.354495	0.202603
807.545698	0.202794
807.736883	0.202710
807.928050	0.202769
808.119199	0.203063
808.310329	0.203217
808.501441	0.203540
808.692535	0.203921
808.883611	0.204357
809.074669	0.204845
809.265708	0.204811
809.456729	0.205233
809.647732	0.205436
809.838717	0.205521
810.029683	0.205571
810.220632	0.205745
810.411562	0.205687
810.602474	0.205489
810.793367	0.205479
810.984242	0.206005
811.175100	0.206687
811.365938	0.207067
811.556759	0.207395
811.747562	0.207657
811.938346	0.207529
812.129112	0.207887
812.319860	0.208309
812.510589	0.208498
812.701300	0.208286
812.891994	0.208002
813.082668	0.207986
813.273325	0.207987
813.463964	0.208314
813.654584	0.208308
813.845186	0.208597
814.035769	0.208642
814.226335	0.208761
814.416882	0.209012
814.607411	0.209326
814.797922	0.209846
814.988415	0.209958
815.178889	0.209975
815.369345	0.210671
815.559783	0.210780
815.750203	0.211069
815.940605	0.211265
816.130988	0.211515
816.321353	0.211745
816.511700	0.211738
816.702028	0.212107
816.892339	0.212645
817.082631	0.212654
817.272905	0.213089
817.463161	0.213227
817.653398	0.213541
817.843617	0.213743
818.033819	0.214136
818.224001	0.214218
818.414166	0.214411
818.604312	0.214325
818.794440	0.214594
818.984550	0.214622
819.174642	0.214905
819.364716	0.214962
819.554771	0.215214
819.744808	0.215255
819.934827	0.215571
820.124827	0.215859
820.314810	0.216219
820.504774	0.216597
820.694720	0.216814
820.884647	0.216978
821.074557	0.217182
821.264448	0.217227
821.454321	0.217578
821.644176	0.217908
821.834012	0.218307
822.023831	0.218255
822.213631	0.218463
822.403413	0.218472
822.593176	0.218875
822.782922	0.219281
822.972649	0.219598
823.162358	0.219639
823.352049	0.219728
823.541721	0.219737
823.731376	0.220047
823.921012	0.220265
824.110629	0.220741
824.300229	0.220915
824.489811	0.221119
824.679374	0.221204
824.868919	0.221367
825.058445	0.221651
825.247954	0.222006
825.437444	0.222336
825.626916	0.222647
825.816370	0.222742
826.005806	0.222924
826.195223	0.222973
826.384622	0.223436
826.574003	0.224110
826.763366	0.224341
826.952711	0.224417
827.142037	0.224702
827.331345	0.224770
827.520635	0.225176
827.709906	0.225371
827.899160	0.225582
828.088395	0.225858
828.277612	0.225892
828.466810	0.226024
828.655991	0.225980
828.845153	0.226104
829.034297	0.226273
829.223423	0.226620
829.412531	0.226851
829.601620	0.227255
829.790691	0.227689
829.979744	0.227800
830.168779	0.228014
830.357795	0.228632
830.546793	0.228697
830.735773	0.229019
830.924735	0.229103
831.113679	0.229431
831.302604	0.229987
831.491511	0.229916
831.680400	0.230500
831.869271	0.230639
832.058123	0.230900
832.246957	0.231217
832.435773	0.231509
832.624571	0.231432
832.813351	0.231721
833.002112	0.231750
833.190855	0.231890
833.379580	0.232381
833.568287	0.232987
833.756975	0.233419
833.945645	0.234062
834.134297	0.234298
834.322931	0.235184
834.511547	0.235367
834.700144	0.235705
834.888723	0.236068
835.077284	0.235801
835.265826	0.236103
835.454351	0.236166
835.642857	0.236032
835.831345	0.236379
836.019815	0.236490
836.208266	0.236721
836.396699	0.236746
836.585114	0.236943
836.773511	0.237324
836.961890	0.237757
837.150250	0.238218
837.338592	0.238869
837.526916	0.239175
837.715222	0.239366
837.903510	0.239597
838.091779	0.240027
838.280030	0.240514
838.468263	0.240812
838.656477	0.240694
838.844674	0.240783
839.032852	0.241031
839.221012	0.241114
839.409153	0.241345
839.597277	0.241689
839.785382	0.242018
839.973469	0.242245
840.161538	0.242419
840.349589	0.243003
840.537621	0.243377
840.725635	0.243754
840.913631	0.244363
841.101609	0.244354
841.289568	0.244541
841.477509	0.245236
841.665432	0.245465
841.853337	0.245772
842.041224	0.245699
842.229092	0.246064
842.416942	0.246262
842.604774	0.246202
842.792588	0.246944
842.980383	0.247567
843.168160	0.247442
843.355919	0.247450
843.543660	0.247715
843.731382	0.248572
843.919087	0.248925
844.106773	0.249134
844.294441	0.249389
844.482090	0.249492
844.669722	0.249303
844.857335	0.249868
845.044930	0.250628
845.232507	0.250503
845.420065	0.250499
845.607605	0.250637
845.795127	0.251182
845.982631	0.251608
846.170117	0.252043
846.357584	0.252541
846.545033	0.252754
846.732464	0.252810
846.919877	0.253757
847.107272	0.254132
847.294648	0.254373
847.482006	0.254432
847.669346	0.254778
847.856667	0.254887
848.043971	0.254817
848.231256	0.254851
848.418523	0.255234
848.605771	0.255582
848.793002	0.255923
848.980214	0.256279
849.167408	0.256602
849.354584	0.256725
849.541742	0.257340
849.728881	0.258191
849.916002	0.258636
850.103105	0.259026
850.290190	0.259413
850.477256	0.260057
850.664304	0.260473
850.851334	0.260802
851.038346	0.260918
851.225340	0.261039
851.412315	0.261932
851.599272	0.262348
851.786211	0.262830
851.973132	0.263007
852.160034	0.262387
852.346918	0.262866
852.533784	0.263063
852.720632	0.263658
852.907462	0.264140
853.094273	0.263941
853.281066	0.264278
853.467841	0.264660
853.654598	0.264667
853.841336	0.265379
854.028056	0.265418
854.214758	0.265921
854.401442	0.266226
854.588107	0.266667
854.774755	0.266895
854.961384	0.266718
855.147995	0.266925
855.334587	0.267414
855.521162	0.267686
855.707718	0.267651
855.894256	0.267895
856.080775	0.268348
856.267277	0.268218
856.453760	0.268620
856.640225	0.269517
856.826672	0.269795
857.013101	0.270290
857.199511	0.270876
857.385903	0.271716
857.572277	0.271702
857.758633	0.271834
857.944970	0.272260
858.131290	0.272382
858.317591	0.272270
858.503873	0.272441
858.690138	0.272638
858.876384	0.272851
859.062612	0.272893
859.248822	0.273155
859.435014	0.273388
859.621188	0.273415
859.807343	0.273651
859.993480	0.274094
860.179599	0.274309
860.365699	0.274595
860.551781	0.274583
860.737846	0.274891
860.923891	0.275283
861.109919	0.275675
861.295929	0.275865
861.481920	0.276075
861.667893	0.276502
861.853848	0.277100
862.039784	0.277525
862.225702	0.277799
862.411603	0.277828
862.597484	0.278345
862.783348	0.278698
862.969193	0.279138
863.155021	0.279657
863.340830	0.279577
863.526620	0.279600
863.712393	0.279473
863.898147	0.279897
864.083883	0.280316
864.269601	0.280452
864.455301	0.280702
864.640982	0.281108
864.826645	0.280982
865.012290	0.281375
865.197917	0.281294
865.383526	0.281333
865.569116	0.281532
865.754688	0.281688
865.940242	0.281950
866.125777	0.282306
866.311295	0.282591
866.496794	0.283135
866.682275	0.283501
866.867737	0.284292
867.053182	0.284837
867.238608	0.285051
867.424016	0.285382
867.609406	0.285484
867.794778	0.285823
867.980131	0.285992
868.165466	0.286031
868.350783	0.286169
868.536082	0.286552
868.721362	0.286564
868.906625	0.286631
869.091869	0.287134
869.277094	0.286992
869.462302	0.287142
869.647491	0.287271
869.832662	0.287679
870.017815	0.287703
870.202950	0.287600
870.388066	0.287947
870.573165	0.288379
870.758245	0.288515
870.943306	0.289244
871.128350	0.289198
871.313375	0.289409
871.498382	0.289781
871.683371	0.290069
871.868342	0.290632
872.053294	0.290495
872.238229	0.290755
872.423144	0.290633
872.608042	0.290681
872.792922	0.290535
872.977783	0.290604
873.162626	0.290306
873.347451	0.290575
873.532258	0.289828
873.717046	0.290689
873.901816	0.290251
874.086568	0.290814
874.271302	0.291131
874.456017	0.291412
874.640715	0.291535
874.825394	0.291737
875.010055	0.292046
875.194697	0.292526
875.379322	0.292369
875.563928	0.292791
875.748516	0.292545
875.933085	0.292530
876.117637	0.293088
876.302170	0.293318
876.486685	0.293259
876.671182	0.293503
876.855661	0.293802
877.040121	0.294144
877.224563	0.294767
877.408987	0.294807
877.593393	0.295157
877.777780	0.295737
877.962150	0.296258
878.146501	0.296659
878.330833	0.296304
878.515148	0.296501
878.699444	0.296143
878.883722	0.296261
879.067982	0.296581
879.252224	0.296753
879.436447	0.296390
879.620653	0.296049
879.804840	0.296320
879.989008	0.296797
880.173159	0.296597
880.357291	0.296954
880.541405	0.296736
880.725501	0.296802
880.909579	0.296755
881.093638	0.296832
881.277680	0.297707
881.461703	0.298014
881.645707	0.298440
881.829694	0.298657
882.013662	0.298817
882.197612	0.298912
882.381544	0.299188
882.565458	0.298968
882.749353	0.298699
882.933230	0.298242
883.117089	0.297763
883.300930	0.297469
883.484753	0.297502
883.668557	0.297741
883.852343	0.298026
884.036111	0.298099
884.219861	0.298350
884.403592	0.298607
884.587305	0.298841
884.771000	0.299040
884.954677	0.298827
885.138335	0.299481
885.321976	0.299660
885.505598	0.299828
885.689201	0.299585
885.872787	0.299722
886.056354	0.299939
886.239904	0.299738
886.423434	0.299465
886.606947	0.299572
886.790442	0.299032
886.973918	0.299301
887.157376	0.299242
887.340816	0.299457
887.524237	0.299669
887.707641	0.299286
887.891026	0.299418
888.074393	0.299837
888.257741	0.299788
888.441072	0.299799
888.624384	0.299252
888.807678	0.298801
888.990954	0.298733
889.174211	0.298488
889.357451	0.298845
889.540672	0.298683
889.723875	0.298675
889.907059	0.298790
890.090226	0.298912
890.273374	0.299434
890.456504	0.299831
890.639616	0.300180
890.822709	0.300387
891.005785	0.300004
891.188842	0.300328
891.371881	0.300630
891.554901	0.300611
891.737904	0.300683
891.920888	0.300284
892.103854	0.300433
892.286802	0.300125
892.469731	0.299841
892.652643	0.299909
892.835536	0.299895
893.018410	0.299352
893.201267	0.299399
893.384106	0.299647
893.566926	0.299330
893.749728	0.299222
893.932511	0.298933
894.115277	0.299345
894.298024	0.298853
894.480753	0.298426
894.663464	0.298370
894.846157	0.298209
895.028831	0.297936
895.211487	0.297989
895.394125	0.297571
895.576745	0.298013
895.759346	0.297373
895.941930	0.297719
896.124495	0.298048
896.307041	0.298387
896.489570	0.298275
896.672080	0.297627
896.854573	0.297548
897.037046	0.298030
897.219502	0.297903
897.401940	0.297525
897.584359	0.297807
897.766760	0.297597
897.949143	0.296979
898.131507	0.297115
898.313854	0.297176
898.496182	0.297579
898.678492	0.296300
898.860783	0.295621
899.043057	0.295648
899.225312	0.295880
899.407549	0.295126
899.589768	0.295720
899.771968	0.295466
899.954151	0.295866
900.136315	0.294638
900.318461	0.295228
900.500588	0.295093
900.682698	0.294869
900.864789	0.294251
901.046862	0.294669
901.228917	0.293394
901.410953	0.293142
901.592971	0.292632
901.774972	0.292895
901.956953	0.292938
902.138917	0.293071
902.320862	0.292989
902.502790	0.292756
902.684699	0.292685
902.866589	0.292780
903.048462	0.292431
903.230316	0.292348
903.412152	0.291535
903.593970	0.290596
903.775770	0.290242
903.957551	0.290311
904.139314	0.289993
904.321059	0.289183
904.502786	0.288707
904.684494	0.288401
904.866185	0.288161
905.047857	0.288393
905.229510	0.288715
905.411146	0.288470
905.592763	0.288117
905.774363	0.287884
905.955943	0.287579
906.137506	0.288015
906.319051	0.287825
906.500577	0.287176
906.682085	0.286468
906.863575	0.285565
907.045046	0.285423
907.226500	0.285058
907.407935	0.284407
907.589352	0.284170
907.770750	0.283599
907.952131	0.283278
908.133493	0.283250
908.314837	0.283185
908.496163	0.283348
908.677470	0.283025
908.858760	0.283075
909.040031	0.282611
909.221284	0.281963
909.402518	0.281594
909.583735	0.281367
909.764933	0.281654
909.946113	0.281320
910.127275	0.280482
910.308418	0.279815
910.489544	0.278686
910.670651	0.278361
910.851740	0.278407
911.032810	0.278051
911.213863	0.277330
911.394897	0.275999
911.575913	0.275839
911.756911	0.275826
911.937890	0.275167
912.118851	0.275166
912.299794	0.274542
912.480719	0.274322
912.661626	0.273883
912.842514	0.273400
913.023384	0.273652
913.204236	0.273297
913.385070	0.272999
913.565886	0.272896
913.746683	0.272767
913.927462	0.272926
914.108223	0.272385
914.288965	0.272043
914.469690	0.272058
914.650396	0.271683
914.831084	0.271550
915.011754	0.271137
915.192405	0.270869
915.373038	0.269865
915.553653	0.269079
915.734250	0.269388
915.914829	0.269350
916.095389	0.268557
916.275931	0.267634
916.456455	0.266591
916.636961	0.266372
916.817448	0.266311
916.997917	0.266403
917.178368	0.266803
917.358801	0.266112
917.539216	0.265522
917.719612	0.265319
917.899990	0.265075
918.080350	0.264927
918.260692	0.263935
918.441015	0.262983
918.621320	0.262458
918.801607	0.261212
918.981876	0.259676
919.162127	0.259254
919.342359	0.258968
919.522573	0.258456
919.702769	0.257872
919.882947	0.257378
920.063106	0.257139
920.243247	0.256539
920.423370	0.256226
920.603475	0.256545
920.783562	0.255218
920.963630	0.254694
921.143680	0.254442
921.323712	0.254172
921.503725	0.254044
921.683721	0.253193
921.863698	0.252344
922.043657	0.251947
922.223598	0.251297
922.403520	0.250859
922.583424	0.249694
922.763311	0.248825
922.943178	0.248378
923.123028	0.247239
923.302859	0.247144
923.482673	0.246440
923.662467	0.245791
923.842244	0.245547
924.022003	0.245150
924.201743	0.244932
924.381465	0.244611
924.561169	0.243322
924.740854	0.242575
924.920522	0.241649
925.100171	0.241845
925.279802	0.241257
925.459414	0.240253
925.639009	0.240082
925.818585	0.239475
925.998143	0.238360
926.177683	0.237927
926.357205	0.237837
926.536708	0.237226
926.716193	0.235680
926.895660	0.235257
927.075109	0.234987
927.254539	0.234376
927.433951	0.234605
927.613345	0.233395
927.792721	0.232994
927.972079	0.233363
928.151418	0.232967
928.330739	0.233018
928.510042	0.232270
928.689327	0.230553
928.868593	0.229181
929.047841	0.227785
929.227071	0.228346
929.406283	0.227976
929.585476	0.226041
929.764652	0.224560
929.943809	0.223639
930.122948	0.223795
930.302068	0.224237
930.481171	0.224183
930.660255	0.223570
930.839321	0.221433
931.018369	0.219812
931.197398	0.219203
931.376409	0.218608
931.555402	0.217416
931.734377	0.215441
931.913334	0.213614
932.092272	0.213570
932.271192	0.212276
932.450094	0.213054
932.628978	0.213753
932.807844	0.213154
932.986691	0.212265
933.165520	0.212237
933.344331	0.212294
933.523123	0.212646
933.701898	0.210609
933.880654	0.210172
934.059392	0.208953
934.238111	0.207269
934.416813	0.206201
934.595496	0.206379
934.774161	0.205612
934.952808	0.204636
935.131437	0.203434
935.310047	0.203434
935.488639	0.202816
935.667213	0.201880
935.845769	0.201216
936.024306	0.200961
936.202825	0.199872
936.381326	0.198292
936.559809	0.197063
936.738274	0.196100
936.916720	0.196049
937.095148	0.194775
937.273558	0.193553
937.451950	0.193147
937.630323	0.192102
937.808678	0.191505
937.987015	0.190473
938.165334	0.189653
938.343635	0.188418
938.521917	0.186611
938.700181	0.185760
938.878427	0.185610
939.056655	0.184092
939.234864	0.182317
939.413055	0.180270
939.591228	0.180805
939.769383	0.180755
939.947519	0.180198
940.125638	0.179177
940.303738	0.177635
940.481820	0.177200
940.659883	0.175794
940.837929	0.176504
941.015956	0.175917
941.193965	0.176487
941.371955	0.174932
941.549928	0.174109
941.727882	0.174240
941.905818	0.175057
942.083736	0.174292
942.261636	0.174252
942.439517	0.172883
942.617380	0.172441
942.795225	0.169177
942.973052	0.168339
943.150860	0.167703
943.328651	0.165198
943.506423	0.164360
943.684176	0.162554
943.861912	0.161545
944.039629	0.161833
944.217328	0.160879
944.395009	0.159965
944.572672	0.158621
944.750317	0.157877
944.927943	0.156811
945.105551	0.154424
945.283141	0.154440
945.460712	0.154370
945.638265	0.153180
945.815801	0.152814
945.993317	0.152788
946.170816	0.152154
946.348297	0.150430
946.525759	0.150690
946.703203	0.150233
946.880629	0.149069
947.058036	0.148205
947.235425	0.146220
947.412797	0.145694
947.590149	0.145582
947.767484	0.145032
947.944800	0.146116
948.122099	0.147007
948.299379	0.146945
948.476640	0.145581
948.653884	0.143410
948.831109	0.141681
949.008316	0.141717
949.185505	0.140397
949.362676	0.139630
949.539828	0.136558
949.716962	0.134448
949.894078	0.134140
950.071176	0.131812
950.248256	0.131971
950.425317	0.133064
950.602360	0.131144
950.779385	0.129006
950.956391	0.128342
951.133380	0.129998
951.310350	0.128466
951.487302	0.126273
951.664235	0.127703
951.841151	0.126884
952.018048	0.125096
952.194927	0.125071
952.371788	0.124552
952.548631	0.125317
952.725455	0.123406
952.902261	0.124838
953.079049	0.126486
953.255819	0.124320
953.432570	0.122315
953.609303	0.121555
953.786018	0.119887
953.962715	0.120346
954.139394	0.119341
954.316054	0.118307
954.492696	0.115231
954.669320	0.112185
954.845926	0.111832
955.022513	0.111792
955.199083	0.111116
955.375634	0.110111
955.552166	0.108861
955.728681	0.104443
955.905177	0.103649
956.081655	0.102671
956.258115	0.101942
956.434557	0.101335
956.610980	0.099991
956.787385	0.099352
956.963772	0.100096
957.140141	0.097775
957.316492	0.099536
957.492824	0.098907
957.669138	0.099792
957.845434	0.100636
958.021712	0.100694
958.197971	0.100896
958.374212	0.100355
958.550435	0.096878
958.726640	0.097178
958.902826	0.097195
959.078995	0.096981
959.255145	0.094982
959.431277	0.094996
959.607390	0.091894
959.783486	0.088935
959.959563	0.091027
960.135622	0.092748
960.311662	0.093307
960.487685	0.091655
960.663689	0.091144
960.839675	0.089537
961.015643	0.090085
961.191593	0.091692
961.367524	0.092235
961.543437	0.087618
961.719332	0.087764
961.895209	0.085891
962.071067	0.087130
962.246907	0.087396
962.422730	0.090149
962.598533	0.088202
962.774319	0.087387
962.950086	0.088599
963.125835	0.089544
963.301566	0.089984
963.477279	0.092844
963.652973	0.088475
963.828650	0.088270
964.004308	0.086358
964.179947	0.087196
964.355569	0.091460
964.531172	0.092660
964.706757	0.093195
964.882324	0.091711
965.057873	0.091493
965.233403	0.094177
965.408916	0.092910
965.584410	0.096078
965.759885	0.093536
965.935343	0.091650
966.110782	0.090432
966.286203	0.090622
966.461606	0.088023
966.636991	0.085640
966.812357	0.083799
966.987705	0.084111
967.163035	0.080926
967.338347	0.083601
967.513641	0.082696
967.688916	0.081475
967.864173	0.081366
968.039412	0.082539
968.214632	0.082606
968.389835	0.085739
968.565019	0.084422
968.740185	0.084438
968.915333	0.082414
969.090462	0.080067
969.265573	0.082904
969.440667	0.084443
969.615741	0.085401
969.790798	0.089026
969.965836	0.088196
970.140856	0.091173
970.315858	0.093446
970.490842	0.093077
970.665808	0.095630
970.840755	0.093888
971.015684	0.094600
971.190595	0.093488
971.365487	0.089254
971.540362	0.087983
971.715218	0.085663
971.890056	0.085693
972.064875	0.086605
972.239677	0.085883
972.414460	0.084278
972.589225	0.083178
972.763972	0.083045
972.938700	0.084542
973.113411	0.083460
973.288103	0.084363
973.462777	0.081618
973.637432	0.079527
973.812070	0.079214
973.986689	0.081613
974.161290	0.082003
974.335873	0.081971
974.510437	0.083232
974.684984	0.083697
974.859512	0.083327
975.034022	0.084797
975.208513	0.085315
975.382987	0.084811
975.557442	0.084349
975.731879	0.083069
975.906298	0.084572
976.080698	0.082923
976.255080	0.085264
976.429445	0.083325
976.603790	0.083069
976.778118	0.085341
976.952427	0.085728
977.126719	0.085646
977.300992	0.084764
977.475246	0.086179
977.649483	0.084653
977.823701	0.083643
977.997901	0.085054
978.172083	0.086351
978.346247	0.086923
978.520392	0.087651
978.694519	0.087926
978.868628	0.088495
979.042719	0.086918
979.216791	0.089359
979.390845	0.091690
979.564882	0.091465
979.738899	0.088977
979.912899	0.090050
980.086880	0.088757
980.260843	0.086057
980.434788	0.087759
980.608715	0.088570
980.782623	0.088846
980.956514	0.086601
981.130386	0.086657
981.304240	0.086301
981.478075	0.082675
981.651892	0.081798
981.825692	0.085106
981.999472	0.081309
982.173235	0.079514
982.346980	0.077480
982.520706	0.079107
982.694414	0.080030
982.868104	0.081804
983.041775	0.082969
983.215428	0.085067
983.389064	0.084536
983.562680	0.086364
983.736279	0.087056
983.909860	0.088574
984.083422	0.088483
984.256966	0.087406
984.430491	0.088367
984.603999	0.089096
984.777488	0.089541
984.950959	0.086847
985.124412	0.085090
985.297847	0.087581
985.471263	0.086138
985.644661	0.085419
985.818041	0.087831
985.991403	0.087702
986.164747	0.086494
986.338072	0.084557
986.511379	0.087600
986.684668	0.089897
986.857938	0.086096
987.031191	0.088275
987.204425	0.089503
987.377641	0.089613
987.550839	0.088050
987.724018	0.089026
987.897179	0.088800
988.070322	0.089095
988.243447	0.089048
988.416554	0.089576
988.589642	0.089706
988.762712	0.086976
988.935764	0.085255
989.108798	0.087651
989.281813	0.087828
989.454811	0.089089
989.627790	0.086997
989.800751	0.086626
989.973693	0.089007
990.146617	0.087103
990.319524	0.090107
990.492412	0.092139
990.665281	0.091673
990.838133	0.089729
991.010966	0.091006
991.183781	0.093202
991.356578	0.093379
991.529356	0.092080
991.702117	0.092829
991.874859	0.092136
992.047583	0.091595
992.220288	0.090675
992.392976	0.091855
992.565645	0.091998
992.738296	0.091367
992.910929	0.091551
993.083543	0.091576
993.256139	0.091334
993.428718	0.089826
993.601277	0.089014
993.773819	0.090978
993.946342	0.090778
994.118848	0.092138
994.291335	0.091055
994.463803	0.091009
994.636254	0.090091
994.808686	0.091208
994.981100	0.092602
995.153496	0.093280
995.325874	0.091792
995.498233	0.093540
995.670574	0.091140
995.842897	0.091275
996.015202	0.090918
996.187488	0.092188
996.359757	0.092141
996.532007	0.092246
996.704239	0.091191
996.876452	0.090890
997.048648	0.089262
997.220825	0.090632
997.392984	0.090148
997.565124	0.092225
997.737247	0.093029
997.909351	0.091819
998.081437	0.091811
998.253505	0.093360
998.425554	0.092941
998.597586	0.093939
998.769599	0.094042
998.941594	0.095368
999.113571	0.094450
999.285529	0.094001
999.457469	0.096826
999.629391	0.097243
999.801295	0.097470
999.973181	0.096087
1000.145048	0.095942
1000.316897	0.094264
1000.488728	0.093102
1000.660541	0.094256
1000.832335	0.093128
1001.004111	0.090580
1001.175869	0.088944
1001.347609	0.088432
1001.519331	0.089998
1001.691034	0.090145
1001.862719	0.091707
1002.034386	0.093857
1002.206035	0.091623
1002.377665	0.093099
1002.549277	0.093952
1002.720871	0.095512
1002.892447	0.094020
1003.064004	0.094925
1003.235544	0.092461
1003.407065	0.093165
1003.578568	0.092091
1003.750052	0.091700
1003.921519	0.092592
1004.092967	0.091297
1004.264397	0.089713
1004.435809	0.089159
1004.607202	0.088206
1004.778577	0.090239
1004.949934	0.088151
1005.121273	0.088363
1005.292594	0.089359
1005.463896	0.087135
1005.635180	0.089303
1005.806446	0.089016
1005.977694	0.089845
1006.148923	0.090014
1006.320135	0.087541
1006.491328	0.087465
1006.662503	0.087763
1006.833659	0.087548
1007.004798	0.089266
1007.175918	0.086817
1007.347020	0.086711
1007.518103	0.087757
1007.689169	0.090637
1007.860216	0.093639
1008.031245	0.094644
1008.202256	0.093769
1008.373248	0.095468
1008.544223	0.094398
1008.715179	0.096029
1008.886117	0.096776
1009.057036	0.097531
1009.227938	0.094093
1009.398821	0.092886
1009.569686	0.094130
1009.740533	0.094656
1009.911361	0.093278
1010.082172	0.093866
1010.252964	0.093982
1010.423738	0.095683
1010.594493	0.095389
1010.765231	0.095664
1010.935950	0.096359
1011.106651	0.096074
1011.277334	0.096606
1011.447998	0.097745
1011.618645	0.097510
1011.789273	0.095595
1011.959882	0.092214
1012.130474	0.091793
1012.301048	0.092421
1012.471603	0.092900
1012.642140	0.090766
1012.812658	0.089606
1012.983159	0.088752
1013.153641	0.088104
1013.324105	0.089518
1013.494551	0.093397
1013.664979	0.092309
1013.835388	0.092206
1014.005779	0.092497
1014.176152	0.093502
1014.346507	0.096905
1014.516843	0.097858
1014.687162	0.096669
1014.857462	0.096142
1015.027744	0.094650
1015.198007	0.096181
1015.368252	0.096102
1015.538480	0.093492
1015.708689	0.092850
1015.878879	0.090427
1016.049052	0.089504
1016.219206	0.092126
1016.389342	0.090785
1016.559460	0.091060
1016.729559	0.088881
1016.899641	0.089116
1017.069704	0.092148
1017.239749	0.092306
1017.409775	0.090950
1017.579784	0.090623
1017.749774	0.089533
1017.919746	0.093827
1018.089700	0.094585
1018.259635	0.097231
1018.429553	0.097827
1018.599452	0.096807
1018.769333	0.096955
1018.939195	0.100578
1019.109040	0.100176
1019.278866	0.099000
1019.448674	0.094275
1019.618464	0.091005
1019.788235	0.088080
1019.957989	0.085240
1020.127724	0.085932
1020.297441	0.084413
1020.467139	0.082802
1020.636820	0.085031
1020.806482	0.085235
1020.976126	0.086250
1021.145752	0.088263
1021.315359	0.091522
1021.484948	0.093638
1021.654519	0.093987
1021.824072	0.095101
1021.993607	0.095526
1022.163123	0.093405
1022.332621	0.094821
1022.502101	0.096750
1022.671563	0.096268
1022.841007	0.095926
1023.010432	0.096103
1023.179839	0.094895
1023.349228	0.094679
1023.518598	0.093652
1023.687951	0.094919
1023.857285	0.095636
1024.026601	0.094157
1024.195899	0.092744
1024.365178	0.092317
1024.534439	0.092038
1024.703682	0.090915
1024.872907	0.091849
1025.042114	0.090685
1025.211302	0.090519
1025.380472	0.089772
1025.549624	0.091455
1025.718758	0.093334
1025.887873	0.093802
1026.056970	0.091988
1026.226049	0.093933
1026.395110	0.094376
1026.564153	0.095864
1026.733177	0.092880
1026.902183	0.091354
1027.071171	0.090466
1027.240141	0.089616
1027.409092	0.088973
1027.578026	0.089900
1027.746940	0.088422
1027.915837	0.087498
1028.084716	0.084553
1028.253576	0.086948
1028.422418	0.087615
1028.591242	0.088141
1028.760048	0.088772
1028.928835	0.088951
1029.097604	0.088793
1029.266355	0.087641
1029.435088	0.086045
1029.603803	0.090118
1029.772499	0.089568
1029.941177	0.090847
1030.109837	0.090195
1030.278478	0.089392
1030.447102	0.088265
1030.615707	0.089883
1030.784294	0.091591
1030.952863	0.091863
1031.121413	0.088146
1031.289945	0.087483
1031.458460	0.086161
1031.626955	0.086643
1031.795433	0.086804
1031.963892	0.086894
1032.132334	0.086152
1032.300756	0.085806
1032.469161	0.087360
1032.637548	0.089921
1032.805916	0.091330
1032.974266	0.092212
1033.142598	0.091760
1033.310911	0.092621
1033.479207	0.092815
1033.647484	0.092940
1033.815743	0.094669
1033.983983	0.093886
1034.152206	0.092663
1034.320410	0.093348
1034.488596	0.092871
1034.656764	0.094451
1034.824914	0.093145
1034.993045	0.094045
1035.161158	0.092382
1035.329253	0.092643
1035.497330	0.092949
1035.665388	0.094225
1035.833428	0.094110
1036.001450	0.096190
1036.169454	0.094230
1036.337440	0.094938
1036.505407	0.095315
1036.673356	0.097338
1036.841287	0.097942
1037.009200	0.097699
1037.177094	0.096363
1037.344970	0.097038
1037.512828	0.095087
1037.680668	0.094924
1037.848489	0.096305
1038.016293	0.094794
1038.184078	0.093984
1038.351845	0.091204
1038.519593	0.092230
1038.687324	0.093389
1038.855036	0.093373
1039.022730	0.092657
1039.190406	0.093839
1039.358063	0.091630
1039.525702	0.093913
1039.693323	0.093197
1039.860926	0.095907
1040.028511	0.096493
1040.196077	0.095659
1040.363625	0.093403
1040.531155	0.092826
1040.698667	0.092603
1040.866161	0.093803
1041.033636	0.091722
1041.201093	0.092112
1041.368532	0.090877
1041.535952	0.091443
1041.703355	0.092989
1041.870739	0.092372
1042.038105	0.091309
1042.205452	0.090833
1042.372782	0.090620
1042.540093	0.091189
1042.707386	0.091596
1042.874661	0.091824
1043.041918	0.091514
1043.209156	0.090171
1043.376376	0.091845
1043.543578	0.095390
1043.710762	0.095720
1043.877927	0.095054
1044.045074	0.095456
1044.212203	0.095355
1044.379314	0.096344
1044.546407	0.095094
1044.713481	0.095095
1044.880537	0.096769
1045.047575	0.096906
1045.214595	0.098540
1045.381596	0.098903
1045.548579	0.098701
1045.715544	0.099465
1045.882491	0.096985
1046.049420	0.098518
1046.216330	0.100742
1046.383222	0.100277
1046.550096	0.098919
1046.716951	0.098031
1046.883789	0.099391
1047.050608	0.098349
1047.217409	0.098504
1047.384192	0.099921
1047.550956	0.100008
1047.717703	0.099211
1047.884431	0.097856
1048.051140	0.098572
1048.217832	0.098825
1048.384505	0.098359
1048.551161	0.097934
1048.717798	0.097843
1048.884416	0.096952
1049.051017	0.093374
1049.217599	0.091964
1049.384163	0.090639
1049.550709	0.087371
1049.717237	0.086138
1049.883746	0.084945
1050.050237	0.086961
1050.216710	0.086889
1050.383165	0.087363
1050.549601	0.088014
1050.716019	0.089675
1050.882420	0.089676
1051.048801	0.094543
1051.215165	0.095282
1051.381510	0.097311
1051.547837	0.098304
1051.714146	0.097300
1051.880437	0.097628
1052.046709	0.099575
1052.212964	0.098795
1052.379200	0.099135
1052.545417	0.099210
1052.711617	0.097855
1052.877798	0.096618
1053.043961	0.094455
1053.210106	0.095295
1053.376233	0.096382
1053.542341	0.097044
1053.708432	0.095471
1053.874504	0.094398
1054.040557	0.092319
1054.206593	0.090992
1054.372610	0.089789
1054.538609	0.090403
1054.704590	0.090417
1054.870553	0.090499
1055.036497	0.089659
1055.202424	0.090013
1055.368331	0.090989
1055.534221	0.090237
1055.700093	0.091323
1055.865946	0.091438
1056.031781	0.091052
1056.197598	0.090448
1056.363397	0.087480
1056.529177	0.088225
1056.694939	0.088477
1056.860683	0.092143
1057.026409	0.093466
1057.192116	0.093496
1057.357806	0.095899
1057.523477	0.095924
1057.689130	0.097037
1057.854764	0.098565
1058.020381	0.098430
1058.185979	0.100124
1058.351559	0.097198
1058.517120	0.097424
1058.682664	0.097542
1058.848189	0.096598
1059.013696	0.097163
1059.179185	0.096660
1059.344656	0.097509
1059.510108	0.098429
1059.675542	0.097438
1059.840958	0.097503
1060.006356	0.096543
1060.171735	0.097994
1060.337096	0.098362
1060.502439	0.097273
1060.667764	0.097092
1060.833071	0.097339
1060.998359	0.095006
1061.163629	0.095523
1061.328881	0.093834
1061.494115	0.093829
1061.659330	0.093778
1061.824527	0.093760
1061.989706	0.096457
1062.154867	0.098692
1062.320010	0.097073
1062.485134	0.097097
1062.650240	0.096103
1062.815328	0.097141
1062.980398	0.098039
1063.145449	0.096700
1063.310482	0.098403
1063.475497	0.095216
1063.640494	0.095755
1063.805473	0.097789
1063.970433	0.097449
1064.135375	0.096937
1064.300299	0.096654
1064.465204	0.095713
1064.630092	0.096897
1064.794961	0.095228
1064.959812	0.095476
1065.124645	0.094744
1065.289459	0.093967
1065.454256	0.093388
1065.619034	0.092583
1065.783793	0.093258
1065.948535	0.091110
1066.113258	0.092629
1066.277964	0.092639
1066.442651	0.093697
1066.607319	0.091546
1066.771970	0.089721
1066.936602	0.089884
1067.101216	0.091200
1067.265812	0.092922
1067.430389	0.096586
1067.594949	0.093144
1067.759490	0.092211
1067.924013	0.090963
1068.088518	0.089565
1068.253004	0.091262
1068.417472	0.093138
1068.581922	0.093401
1068.746354	0.091638
1068.910768	0.092378
1069.075163	0.093159
1069.239540	0.091791
1069.403899	0.094442
1069.568240	0.094619
1069.732562	0.093382
1069.896866	0.094420
1070.061152	0.094906
1070.225420	0.093418
1070.389670	0.091532
1070.553901	0.092631
1070.718114	0.091946
1070.882309	0.088705
1071.046486	0.088871
1071.210644	0.088091
1071.374784	0.084518
1071.538906	0.084047
1071.703010	0.085710
1071.867096	0.085787
1072.031163	0.084629
1072.195212	0.087677
1072.359243	0.090903
1072.523256	0.090938
1072.687250	0.091672
1072.851226	0.094293
1073.015184	0.094838
1073.179124	0.095385
1073.343045	0.094610
1073.506949	0.095466
1073.670834	0.096267
1073.834701	0.093903
1073.998549	0.095236
1074.162380	0.095422
1074.326192	0.092746
1074.489986	0.091485
1074.653761	0.093746
1074.817519	0.094699
1074.981258	0.095204
1075.144979	0.091742
1075.308682	0.091898
1075.472367	0.091837
1075.636033	0.091811
1075.799681	0.092104
1075.963311	0.091727
1076.126923	0.088651
1076.290516	0.088150
1076.454092	0.087119
1076.617649	0.092623
1076.781187	0.093631
1076.944708	0.093448
1077.108210	0.090294
1077.271695	0.090956
1077.435160	0.093239
1077.598608	0.098010
1077.762038	0.096240
1077.925449	0.096040
1078.088842	0.093437
1078.252217	0.095143
1078.415573	0.094851
1078.578912	0.099090
1078.742232	0.098319
1078.905534	0.097254
1079.068817	0.092421
1079.232083	0.094038
1079.395330	0.092395
1079.558559	0.093628
1079.721770	0.089936
1079.884962	0.089404
1080.048136	0.089910
1080.211293	0.091508
1080.374430	0.090589
1080.537550	0.091613
1080.700651	0.089362
1080.863735	0.091091
1081.026800	0.090956
1081.189846	0.093218
1081.352875	0.093313
1081.515885	0.093303
1081.678877	0.092430
1081.841851	0.095582
1082.004807	0.094755
1082.167744	0.098850
1082.330663	0.101739
1082.493564	0.098065
1082.656447	0.097859
1082.819312	0.099653
1082.982158	0.101091
1083.144986	0.101008
1083.307796	0.100247
1083.470587	0.099777
1083.633361	0.098058
1083.796116	0.095536
1083.958853	0.095335
1084.121571	0.095029
1084.284272	0.093975
1084.446954	0.088354
1084.609618	0.091174
1084.772264	0.091943
1084.934892	0.089114
1085.097501	0.088346
1085.260092	0.089336
1085.422665	0.091629
1085.585220	0.088817
1085.747756	0.089902
1085.910274	0.091996
1086.072774	0.092415
1086.235256	0.088574
1086.397720	0.092539
1086.560165	0.093959
1086.722592	0.094075
1086.885001	0.093881
1087.047392	0.099729
1087.209764	0.097115
1087.372119	0.098049
1087.534455	0.097021
1087.696772	0.099802
1087.859072	0.097491
1088.021353	0.093292
1088.183616	0.092503
1088.345861	0.090157
1088.508088	0.088384
1088.670296	0.091190
1088.832486	0.092453
1088.994658	0.091811
1089.156812	0.088238
1089.318948	0.091215
1089.481065	0.095369
1089.643164	0.094823
1089.805245	0.099446
1089.967308	0.097712
1090.129352	0.096882
1090.291378	0.095629
1090.453386	0.096052
1090.615376	0.099596
1090.777347	0.099976
1090.939301	0.101283
1091.101236	0.101032
1091.263153	0.098511
1091.425051	0.100813
1091.586932	0.100216
1091.748794	0.098135
1091.910638	0.098021
1092.072463	0.093771
1092.234271	0.092325
1092.396060	0.092161
1092.557831	0.093512
1092.719584	0.096740
1092.881319	0.095554
1093.043035	0.096238
1093.204733	0.095650
1093.366413	0.094339
1093.528075	0.099837
1093.689718	0.101245
1093.851343	0.101180
1094.012950	0.104190
1094.174539	0.101623
1094.336110	0.101449
1094.497662	0.101773
1094.659196	0.105833
1094.820712	0.105273
1094.982210	0.104552
1095.143689	0.100846
1095.305151	0.099301
1095.466594	0.097512
1095.628018	0.095929
1095.789425	0.094389
1095.950813	0.093254
1096.112183	0.091242
1096.273535	0.092729
1096.434869	0.087383
1096.596184	0.087102
1096.757482	0.092278
1096.918761	0.089432
1097.080021	0.089898
1097.241264	0.091345
1097.402488	0.093381
1097.563694	0.095144
1097.724882	0.092670
1097.886052	0.097663
1098.047203	0.096596
1098.208336	0.089884
1098.369451	0.090803
1098.530548	0.093802
1098.691627	0.090224
1098.852687	0.089427
1099.013729	0.088247
1099.174753	0.089590
1099.335758	0.089788
1099.496746	0.095016
1099.657715	0.096421
1099.818666	0.098324
1099.979599	0.097505
1100.140513	0.100767
1100.301409	0.099062
1100.462287	0.100872
1100.623147	0.106084
1100.783989	0.102438
1100.944812	0.101834
1101.105617	0.102335
1101.266404	0.102529
1101.427173	0.098717
1101.587923	0.098850
1101.748656	0.099938
1101.909370	0.100002
1102.070066	0.096297
1102.230743	0.097876
1102.391403	0.096815
1102.552044	0.096645
1102.712667	0.095633
1102.873271	0.097944
1103.033858	0.097511
1103.194426	0.093521
1103.354976	0.090267
1103.515508	0.091345
1103.676021	0.093472
1103.836517	0.092325
1103.996994	0.088353
1104.157453	0.087259
1104.317893	0.084861
1104.478316	0.082762
1104.638720	0.084581
1104.799106	0.086545
1104.959474	0.084745
1105.119823	0.081607
1105.280155	0.079666
1105.440468	0.083853
1105.600763	0.084596
1105.761039	0.087185
1105.921298	0.087411
1106.081538	0.090792
1106.241760	0.089875
1106.401964	0.088497
1106.562149	0.090438
1106.722316	0.093588
1106.882465	0.090546
1107.042596	0.088838
1107.202709	0.087781
1107.362803	0.090675
1107.522879	0.089464
1107.682937	0.088918
1107.842977	0.091418
1108.002999	0.092430
1108.163002	0.092918
1108.322987	0.096117
1108.482954	0.100505
1108.642902	0.101399
1108.802833	0.099018
1108.962745	0.100659
1109.122639	0.097823
1109.282515	0.097709
1109.442372	0.095550
1109.602211	0.091579
1109.762032	0.093481
1109.921835	0.088251
1110.081620	0.088486
1110.241386	0.089342
1110.401134	0.088949
1110.560864	0.097405
1110.720576	0.096112
1110.880269	0.097219
1111.039945	0.103938
1111.199602	0.102818
1111.359240	0.106303
1111.518861	0.106749
1111.678463	0.108432
1111.838047	0.108032
1111.997613	0.106890
1112.157161	0.107962
1112.316690	0.107988
1112.476202	0.107021
1112.635695	0.104232
1112.795169	0.103770
1112.954626	0.100055
1113.114064	0.099767
1113.273484	0.093215
1113.432886	0.090033
1113.592270	0.092453
1113.751635	0.097515
1113.910983	0.095148
1114.070312	0.095890
1114.229622	0.094959
1114.388915	0.095481
1114.548189	0.096110
1114.707445	0.106023
1114.866683	0.107521
1115.025903	0.102232
1115.185104	0.095930
1115.344287	0.094230
1115.503452	0.097650
1115.662599	0.095181
1115.821727	0.096904
1115.980838	0.094779
1116.139930	0.091428
1116.299004	0.090024
1116.458059	0.094621
1116.617097	0.093465
1116.776116	0.096493
1116.935117	0.094448
1117.094099	0.094349
1117.253064	0.097843
1117.412010	0.096471
1117.570938	0.094450
1117.729848	0.090800
1117.888740	0.089811
1118.047613	0.094171
1118.206468	0.092828
1118.365305	0.092652
1118.524124	0.100829
1118.682924	0.098043
1118.841707	0.099921
1119.000471	0.103261
1119.159216	0.106419
1119.317944	0.103839
1119.476653	0.104783
1119.635344	0.105099
1119.794017	0.102247
1119.952672	0.096854
1120.111308	0.094215
1120.269927	0.095350
1120.428527	0.096339
1120.587108	0.097802
1120.745672	0.097726
1120.904217	0.092322
1121.062744	0.091650
1121.221253	0.091057
1121.379744	0.087896
1121.538216	0.090228
1121.696671	0.090174
1121.855107	0.081625
1122.013524	0.079403
1122.171924	0.081462
1122.330305	0.088694
1122.488668	0.087167
1122.647013	0.090017
1122.805340	0.089557
1122.963648	0.088641
1123.121938	0.089091
1123.280210	0.097027
1123.438464	0.096623
1123.596700	0.093461
1123.754917	0.087588
1123.913116	0.090147
1124.071297	0.093752
1124.229459	0.095024
1124.387604	0.095007
1124.545730	0.092509
1124.703838	0.091437
1124.861928	0.093405
1125.019999	0.095524
1125.178052	0.095696
1125.336088	0.091925
1125.494104	0.088824
1125.652103	0.088942
1125.810083	0.085711
1125.968045	0.086994
1126.125989	0.087251
1126.283915	0.085427
1126.441823	0.081952
1126.599712	0.082892
1126.757583	0.089668
1126.915436	0.095424
1127.073270	0.094357
1127.231087	0.098392
1127.388885	0.095973
1127.546665	0.093462
1127.704426	0.094331
1127.862170	0.096981
1128.019895	0.092852
1128.177602	0.091450
1128.335291	0.086224
1128.492961	0.090353
1128.650614	0.091232
1128.808248	0.092953
1128.965864	0.094756
1129.123461	0.093820
1129.281041	0.096758
1129.438602	0.098679
1129.596145	0.095344
1129.753670	0.090527
1129.911176	0.087330
1130.068665	0.087245
1130.226135	0.091484
1130.383587	0.087871
1130.541020	0.090817
1130.698436	0.087730
1130.855833	0.091816
1131.013212	0.093730
1131.170573	0.097804
1131.327915	0.093720
1131.485239	0.093710
1131.642545	0.086518
1131.799833	0.088094
1131.957103	0.088992
1132.114354	0.088339
1132.271588	0.080319
1132.428803	0.076677
1132.585999	0.073250
1132.743178	0.082104
1132.900338	0.080678
1133.057480	0.086266
1133.214604	0.086548
1133.371710	0.080909
1133.528797	0.080373
1133.685866	0.083884
1133.842917	0.085979
1133.999950	0.089514
1134.156964	0.083017
1134.313960	0.085140
1134.470938	0.083746
1134.627898	0.087128
1134.784840	0.087878
1134.941763	0.089942
1135.098668	0.091355
1135.255555	0.096529
1135.412424	0.091317
1135.569274	0.096951
1135.726107	0.096663
1135.882921	0.097804
1136.039716	0.090074
1136.196494	0.092045
1136.353253	0.091241
1136.509995	0.094671
1136.666717	0.089056
1136.823422	0.090461
1136.980109	0.085700
1137.136777	0.082283
1137.293427	0.077044
1137.450059	0.083148
1137.606672	0.085537
1137.763267	0.077883
1137.919844	0.075211
1138.076403	0.078358
1138.232944	0.078999
1138.389466	0.082575
1138.545971	0.087787
1138.702457	0.088829
1138.858924	0.086800
1139.015374	0.080449
1139.171805	0.089113
1139.328218	0.089191
1139.484613	0.085101
1139.640990	0.086651
1139.797348	0.085902
1139.953688	0.084140
1140.110010	0.080247
1140.266314	0.083481
1140.422600	0.086129
1140.578867	0.084214
1140.735116	0.088061
1140.891347	0.091721
1141.047559	0.090956
1141.203754	0.089421
1141.359930	0.082637
1141.516088	0.087443
1141.672228	0.082575
1141.828349	0.085221
1141.984452	0.086310
1142.140537	0.081615
1142.296604	0.078287
1142.452653	0.081515
1142.608683	0.083520
1142.764695	0.089812
1142.920689	0.089251
1143.076665	0.087793
1143.232622	0.086885
1143.388562	0.090863
1143.544483	0.092824
1143.700385	0.095053
1143.856270	0.092060
1144.012136	0.090640
1144.167985	0.086726
1144.323814	0.088510
1144.479626	0.089418
1144.635420	0.090727
1144.791195	0.087163
1144.946952	0.084799
1145.102691	0.091486
1145.258411	0.093052
1145.414113	0.095239
1145.569798	0.097390
1145.725463	0.098274
1145.881111	0.096305
1146.036741	0.094266
1146.192352	0.096118
1146.347945	0.095865
1146.503519	0.084326
1146.659076	0.079076
1146.814614	0.073883
1146.970134	0.070212
1147.125636	0.065811
1147.281120	0.065651
1147.436585	0.065545
1147.592032	0.062817
1147.747461	0.067012
1147.902872	0.071283
1148.058265	0.076220
1148.213639	0.079441
1148.368995	0.083872
1148.524333	0.086291
1148.679653	0.093338
1148.834954	0.091784
1148.990237	0.091977
1149.145502	0.085863
1149.300749	0.093817
1149.455977	0.094069
1149.611188	0.094008
1149.766380	0.096343
1149.921553	0.088443
1150.076709	0.082859
1150.231846	0.079544
1150.386966	0.081249
1150.542066	0.084203
1150.697149	0.074347
1150.852214	0.074988
1151.007260	0.078941
1151.162288	0.076994
1151.317298	0.086977
1151.472289	0.089875
1151.627263	0.094557
1151.782218	0.095293
1151.937155	0.095173
1152.092073	0.095583
1152.246974	0.092160
1152.401856	0.092765
1152.556720	0.090144
1152.711566	0.090173
1152.866393	0.085814
1153.021203	0.076910
1153.175994	0.077716
1153.330767	0.075619
1153.485521	0.080507
1153.640258	0.086299
1153.794976	0.084097
1153.949676	0.078167
1154.104358	0.076639
1154.259021	0.079805
1154.413667	0.086229
1154.568294	0.079555
1154.722903	0.076954
1154.877493	0.074619
1155.032066	0.066626
1155.186620	0.063406
1155.341156	0.066392
1155.495674	0.061601
1155.650173	0.057949
1155.804654	0.060048
1155.959118	0.056092
1156.113562	0.052296
1156.267989	0.050652
1156.422397	0.052771
1156.576788	0.058592
1156.731160	0.060458
1156.885513	0.063630
1157.039849	0.067927
1157.194166	0.059538
1157.348465	0.064475
1157.502746	0.071667
1157.657009	0.070171
1157.811253	0.075129
1157.965479	0.072965
1158.119687	0.076323
1158.273877	0.072621
1158.428048	0.065667
1158.582201	0.077231
1158.736337	0.074049
1158.890453	0.075798
1159.044552	0.074651
1159.198632	0.063681
1159.352694	0.055487
1159.506738	0.048117
1159.660764	0.048055
1159.814771	0.055091
1159.968761	0.051693
1160.122732	0.054808
1160.276685	0.053704
1160.430619	0.060318
1160.584535	0.070392
1160.738434	0.080384
1160.892313	0.085599
1161.046175	0.091691
1161.200019	0.089678
1161.353844	0.087671
1161.507651	0.091729
1161.661440	0.088649
1161.815210	0.087835
1161.968962	0.084428
1162.122697	0.075331
1162.276412	0.073645
1162.430110	0.072009
1162.583789	0.065971
1162.737451	0.067367
1162.891094	0.066114
1163.044718	0.058914
1163.198325	0.059101
1163.351913	0.053597
1163.505483	0.054737
1163.659035	0.057922
1163.812569	0.055382
1163.966084	0.066146
1164.119581	0.063032
1164.273060	0.066216
1164.426521	0.076377
1164.579964	0.072832
1164.733388	0.075732
1164.886794	0.080851
1165.040182	0.082133
1165.193551	0.081054
1165.346903	0.078576
1165.500236	0.082065
1165.653551	0.073717
1165.806848	0.069190
1165.960126	0.067981
1166.113386	0.069287
1166.266628	0.060682
1166.419852	0.054088
1166.573058	0.055285
1166.726245	0.052452
1166.879414	0.048565
1167.032565	0.046025
1167.185698	0.049920
1167.338812	0.043647
1167.491909	0.045647
1167.644987	0.045096
1167.798046	0.049193
1167.951088	0.053354
1168.104111	0.054559
1168.257117	0.059690
1168.410103	0.063955
1168.563072	0.049792
1168.716023	0.055685
1168.868955	0.053724
1169.021869	0.060494
1169.174765	0.056455
1169.327642	0.052450
1169.480501	0.056754
1169.633343	0.052144
1169.786165	0.049726
1169.938970	0.064592
1170.091757	0.057832
1170.244525	0.051680
1170.397275	0.048214
1170.550007	0.052132
1170.702720	0.041267
1170.855415	0.035499
1171.008092	0.045027
1171.160751	0.055603
1171.313392	0.059479
1171.466014	0.071340
1171.618619	0.128800
1171.771205	0.128800
1171.923772	0.128800
