sample name	sample
index	1501
start time	 05-18-2021  02:31:24 PM


Wavelength (nm)	Absorbance
494.344910	-0.039051
494.563924	-0.039051
494.782919	-0.039051
495.001897	-0.247569
495.220856	-0.037407
495.439797	-0.056393
495.658719	-0.027344
495.877624	-0.027360
496.096510	0.014798
496.315378	0.004085
496.534227	0.024460
496.753059	-0.011594
496.971872	0.004395
497.190667	0.066679
497.409444	0.078058
497.628203	0.075190
497.846943	0.077214
498.065665	0.078928
498.284369	0.079204
498.503055	0.080131
498.721723	0.081909
498.940372	0.081609
499.159003	0.081793
499.377616	0.081828
499.596210	0.083671
499.814787	0.083053
500.033345	0.084181
500.251885	0.085274
500.470406	0.084089
500.688910	0.083325
500.907395	0.084009
501.125862	0.084845
501.344311	0.084215
501.562742	0.083920
501.781154	0.084147
501.999548	0.083012
502.217924	0.082677
502.436282	0.083087
502.654621	0.083267
502.872942	0.083100
503.091245	0.082888
503.309530	0.083974
503.527797	0.084303
503.746045	0.084686
503.964275	0.084411
504.182487	0.083307
504.400681	0.083375
504.618856	0.083076
504.837013	0.082950
505.055152	0.081732
505.273273	0.081029
505.491376	0.081066
505.709460	0.081539
505.927526	0.081788
506.145574	0.081986
506.363604	0.082499
506.581615	0.082468
506.799608	0.081719
507.017583	0.081562
507.235540	0.082307
507.453478	0.081550
507.671399	0.080766
507.889301	0.080660
508.107185	0.080889
508.325050	0.081054
508.542898	0.081440
508.760727	0.082408
508.978538	0.083721
509.196330	0.083315
509.414105	0.083848
509.631861	0.084483
509.849599	0.084510
510.067319	0.084568
510.285021	0.083543
510.502704	0.083375
510.720369	0.083351
510.938016	0.083935
511.155645	0.084215
511.373255	0.084695
511.590848	0.085234
511.808422	0.085485
512.025977	0.086404
512.243515	0.087441
512.461034	0.087778
512.678536	0.088203
512.896018	0.088048
513.113483	0.088196
513.330930	0.087447
513.548358	0.087082
513.765768	0.087338
513.983160	0.086797
514.200533	0.086202
514.417889	0.085685
514.635226	0.085097
514.852545	0.084789
515.069845	0.083741
515.287128	0.084175
515.504392	0.083764
515.721638	0.084070
515.938866	0.084506
516.156075	0.085240
516.373267	0.086191
516.590440	0.086844
516.807594	0.086929
517.024731	0.088131
517.241850	0.087529
517.458950	0.088079
517.676032	0.087786
517.893095	0.087191
518.110141	0.086832
518.327168	0.086292
518.544177	0.085655
518.761168	0.085306
518.978141	0.085477
519.195095	0.085746
519.412031	0.086106
519.628949	0.086465
519.845849	0.086819
520.062731	0.087468
520.279594	0.088113
520.496439	0.088958
520.713266	0.089273
520.930074	0.088836
521.146865	0.089272
521.363637	0.088703
521.580391	0.088793
521.797127	0.088639
522.013844	0.088875
522.230543	0.088895
522.447224	0.089059
522.663887	0.089220
522.880532	0.089585
523.097158	0.089576
523.313766	0.090170
523.530356	0.090046
523.746928	0.090169
523.963481	0.089696
524.180017	0.089943
524.396534	0.089812
524.613032	0.090120
524.829513	0.090945
525.045975	0.091449
525.262420	0.091491
525.478845	0.092116
525.695253	0.092236
525.911643	0.092743
526.128014	0.093281
526.344367	0.093392
526.560702	0.093268
526.777018	0.092941
526.993316	0.092917
527.209597	0.093426
527.425858	0.092987
527.642102	0.093613
527.858328	0.093690
528.074535	0.093330
528.290724	0.093888
528.506894	0.094080
528.723047	0.095020
528.939181	0.095154
529.155297	0.095149
529.371395	0.095355
529.587475	0.095026
529.803536	0.095179
530.019579	0.094771
530.235604	0.094510
530.451611	0.094257
530.667600	0.093687
530.883570	0.093511
531.099522	0.093446
531.315456	0.093645
531.531372	0.094373
531.747269	0.094363
531.963148	0.094929
532.179009	0.095457
532.394852	0.096566
532.610676	0.096855
532.826482	0.097576
533.042271	0.098269
533.258040	0.098810
533.473792	0.099020
533.689525	0.099638
533.905240	0.099967
534.120937	0.100229
534.336616	0.100240
534.552277	0.100402
534.767919	0.100699
534.983543	0.100414
535.199149	0.100465
535.414736	0.100557
535.630306	0.101255
535.845857	0.101417
536.061390	0.101474
536.276904	0.101765
536.492401	0.101553
536.707879	0.101924
536.923339	0.102241
537.138781	0.102643
537.354204	0.102457
537.569610	0.102237
537.784997	0.102296
538.000366	0.102188
538.215716	0.101861
538.431049	0.102550
538.646363	0.102242
538.861659	0.102515
539.076937	0.102685
539.292196	0.102992
539.507438	0.103095
539.722661	0.104167
539.937866	0.104040
540.153052	0.104662
540.368221	0.104574
540.583371	0.104391
540.798503	0.104502
541.013617	0.104584
541.228712	0.104683
541.443789	0.104680
541.658848	0.103826
541.873889	0.104497
542.088912	0.104364
542.303916	0.104231
542.518902	0.104981
542.733870	0.105204
542.948820	0.105230
543.163752	0.105437
543.378665	0.105118
543.593560	0.105867
543.808437	0.106203
544.023295	0.106892
544.238136	0.107227
544.452958	0.107305
544.667762	0.106936
544.882548	0.107044
545.097315	0.107435
545.312064	0.108010
545.526795	0.108172
545.741508	0.107730
545.956203	0.107251
546.170879	0.107748
546.385537	0.108108
546.600177	0.108515
546.814799	0.109184
547.029402	0.108962
547.243988	0.109339
547.458555	0.109131
547.673103	0.109807
547.887634	0.110024
548.102146	0.110206
548.316640	0.109414
548.531116	0.109747
548.745574	0.109461
548.960013	0.109901
549.174435	0.110058
549.388838	0.110543
549.603222	0.111076
549.817589	0.111373
550.031937	0.110974
550.246267	0.111661
550.460579	0.111902
550.674873	0.111844
550.889148	0.112068
551.103405	0.111655
551.317644	0.111965
551.531865	0.111681
551.746068	0.111838
551.960252	0.112246
552.174418	0.112268
552.388566	0.112403
552.602696	0.112648
552.816807	0.112619
553.030900	0.113032
553.244975	0.112789
553.459032	0.112724
553.673070	0.112816
553.887091	0.113083
554.101093	0.113447
554.315077	0.113261
554.529042	0.112918
554.742990	0.113034
554.956919	0.113081
555.170830	0.112915
555.384722	0.112654
555.598597	0.112506
555.812453	0.112158
556.026291	0.112117
556.240111	0.112574
556.453913	0.112851
556.667696	0.112573
556.881461	0.112632
557.095208	0.112882
557.308937	0.113258
557.522647	0.113471
557.736339	0.113592
557.950013	0.113837
558.163669	0.113366
558.377307	0.113782
558.590926	0.114125
558.804527	0.114319
559.018110	0.114328
559.231675	0.114385
559.445221	0.114803
559.658749	0.115196
559.872259	0.115171
560.085751	0.115381
560.299225	0.115070
560.512680	0.115490
560.726117	0.115783
560.939536	0.116131
561.152937	0.116526
561.366319	0.116072
561.579683	0.116074
561.793029	0.115882
562.006357	0.115694
562.219667	0.116159
562.432958	0.115628
562.646231	0.115540
562.859486	0.115212
563.072723	0.114670
563.285941	0.114842
563.499141	0.114898
563.712323	0.115155
563.925487	0.115753
564.138632	0.115593
564.351760	0.115939
564.564869	0.115598
564.777960	0.116026
564.991032	0.116326
565.204087	0.116333
565.417123	0.116526
565.630141	0.116399
565.843140	0.116411
566.056122	0.116342
566.269085	0.116304
566.482030	0.116566
566.694957	0.116272
566.907866	0.116488
567.120756	0.116697
567.333628	0.116611
567.546482	0.116632
567.759318	0.116259
567.972135	0.116290
568.184935	0.116290
568.397716	0.116347
568.610478	0.116909
568.823223	0.116993
569.035949	0.117235
569.248657	0.117223
569.461347	0.117512
569.674019	0.117850
569.886672	0.118477
570.099308	0.118610
570.311925	0.118511
570.524523	0.117985
570.737104	0.118072
570.949666	0.117692
571.162210	0.117578
571.374736	0.117568
571.587244	0.117694
571.799733	0.117481
572.012205	0.117833
572.224658	0.118099
572.437092	0.118238
572.649509	0.118129
572.861907	0.118170
573.074287	0.118412
573.286649	0.118386
573.498993	0.118536
573.711318	0.118494
573.923625	0.118400
574.135914	0.118440
574.348185	0.118391
574.560438	0.118514
574.772672	0.118919
574.984888	0.118704
575.197086	0.118959
575.409266	0.118972
575.621427	0.119034
575.833570	0.119050
576.045695	0.119111
576.257802	0.119361
576.469890	0.119414
576.681961	0.119219
576.894013	0.119556
577.106046	0.119865
577.318062	0.119765
577.530059	0.120185
577.742039	0.120489
577.954000	0.120783
578.165942	0.121027
578.377867	0.120922
578.589773	0.121281
578.801661	0.121811
579.013531	0.121814
579.225382	0.121927
579.437216	0.121879
579.649031	0.121849
579.860828	0.121727
580.072606	0.121857
580.284367	0.122152
580.496109	0.122272
580.707833	0.121888
580.919539	0.121565
581.131227	0.121601
581.342896	0.121372
581.554547	0.121568
581.766180	0.121593
581.977795	0.121680
582.189391	0.122071
582.400969	0.121771
582.612529	0.121575
582.824071	0.121966
583.035595	0.121979
583.247100	0.122568
583.458587	0.122349
583.670056	0.122545
583.881506	0.122393
584.092939	0.121924
584.304353	0.122430
584.515749	0.122991
584.727127	0.122682
584.938486	0.123054
585.149828	0.122814
585.361151	0.123387
585.572456	0.123410
585.783742	0.123392
585.995011	0.123865
586.206261	0.124135
586.417493	0.123975
586.628706	0.124506
586.839902	0.124527
587.051079	0.124651
587.262238	0.124535
587.473379	0.124558
587.684502	0.124572
587.895606	0.124258
588.106692	0.123936
588.317760	0.124226
588.528810	0.124153
588.739841	0.123939
588.950855	0.124156
589.161850	0.124089
589.372827	0.124091
589.583785	0.124442
589.794726	0.124749
590.005648	0.124902
590.216552	0.124814
590.427437	0.125154
590.638305	0.125477
590.849154	0.125487
591.059985	0.125354
591.270798	0.125794
591.481592	0.125829
591.692369	0.126104
591.903127	0.126286
592.113867	0.126464
592.324588	0.126397
592.535292	0.126748
592.745977	0.126623
592.956644	0.126763
593.167293	0.126619
593.377923	0.126640
593.588536	0.126612
593.799130	0.126543
594.009706	0.126700
594.220263	0.126712
594.430803	0.126650
594.641324	0.126980
594.851827	0.127211
595.062312	0.127088
595.272778	0.127237
595.483227	0.127183
595.693657	0.127542
595.904069	0.127562
596.114462	0.127757
596.324838	0.127862
596.535195	0.127821
596.745534	0.127770
596.955855	0.128228
597.166157	0.128673
597.376441	0.128710
597.586707	0.128827
597.796955	0.128854
598.007185	0.129245
598.217396	0.129256
598.427589	0.129416
598.637764	0.129767
598.847921	0.129670
599.058060	0.129691
599.268180	0.129670
599.478282	0.129473
599.688366	0.129348
599.898431	0.128798
600.108479	0.128864
600.318508	0.128562
600.528519	0.128434
600.738511	0.128642
600.948486	0.128496
601.158442	0.128710
601.368380	0.128986
601.578300	0.129412
601.788202	0.129540
601.998085	0.129474
602.207950	0.130039
602.417797	0.130262
602.627626	0.130561
602.837436	0.130547
603.047228	0.131050
603.257002	0.131255
603.466758	0.131353
603.676496	0.131707
603.886215	0.132314
604.095916	0.132343
604.305599	0.132460
604.515264	0.132545
604.724910	0.132874
604.934538	0.132923
605.144148	0.133167
605.353740	0.133271
605.563314	0.133339
605.772869	0.133180
605.982406	0.133303
606.191925	0.133526
606.401425	0.133657
606.610908	0.133735
606.820372	0.133596
607.029818	0.133381
607.239246	0.133196
607.448655	0.133498
607.658047	0.133882
607.867420	0.133960
608.076775	0.134046
608.286111	0.134189
608.495430	0.134492
608.704730	0.134480
608.914012	0.134504
609.123275	0.134779
609.332521	0.134584
609.541748	0.134270
609.750957	0.134378
609.960148	0.134636
610.169321	0.134870
610.378475	0.135063
610.587611	0.135221
610.796729	0.135643
611.005829	0.135896
611.214910	0.136007
611.423974	0.136199
611.633019	0.136324
611.842045	0.136108
612.051054	0.135752
612.260044	0.135651
612.469017	0.135712
612.677970	0.135430
612.886906	0.135683
613.095824	0.135723
613.304723	0.135688
613.513604	0.135778
613.722467	0.136028
613.931311	0.135944
614.140138	0.135696
614.348946	0.136284
614.557736	0.136674
614.766507	0.136517
614.975261	0.137112
615.183996	0.137554
615.392713	0.137754
615.601412	0.138040
615.810092	0.138662
616.018754	0.138905
616.227399	0.138677
616.436024	0.138577
616.644632	0.138809
616.853222	0.138704
617.061793	0.138683
617.270346	0.138810
617.478880	0.138690
617.687397	0.138552
617.895895	0.138857
618.104375	0.139301
618.312837	0.139281
618.521281	0.139488
618.729706	0.139321
618.938113	0.139340
619.146502	0.139427
619.354873	0.139923
619.563226	0.140135
619.771560	0.140385
619.979876	0.140248
620.188174	0.140630
620.396453	0.140759
620.604715	0.141192
620.812958	0.141507
621.021183	0.141516
621.229390	0.141355
621.437578	0.141665
621.645748	0.141601
621.853900	0.141575
622.062034	0.141683
622.270150	0.141689
622.478247	0.141736
622.686326	0.141788
622.894387	0.142169
623.102430	0.142239
623.310454	0.142281
623.518461	0.142493
623.726449	0.142785
623.934418	0.142716
624.142370	0.142903
624.350303	0.142979
624.558218	0.143251
624.766115	0.143145
624.973994	0.143157
625.181855	0.143060
625.389697	0.143045
625.597521	0.143165
625.805327	0.143255
626.013114	0.143430
626.220883	0.143276
626.428634	0.143054
626.636367	0.143294
626.844082	0.143365
627.051778	0.143352
627.259457	0.143321
627.467117	0.143394
627.674758	0.143583
627.882382	0.143504
628.089987	0.143947
628.297574	0.144116
628.505143	0.144266
628.712694	0.144539
628.920226	0.144773
629.127740	0.145136
629.335236	0.145394
629.542714	0.145465
629.750174	0.145589
629.957615	0.145503
630.165038	0.145543
630.372443	0.145476
630.579829	0.145605
630.787198	0.145557
630.994548	0.145517
631.201880	0.145600
631.409194	0.145771
631.616489	0.145995
631.823766	0.146391
632.031025	0.146590
632.238266	0.146509
632.445489	0.146623
632.652693	0.146764
632.859879	0.146940
633.067047	0.146881
633.274197	0.146924
633.481329	0.146967
633.688442	0.146994
633.895537	0.147017
634.102614	0.147404
634.309672	0.147422
634.516713	0.147697
634.723735	0.147856
634.930739	0.148123
635.137724	0.148478
635.344692	0.148597
635.551641	0.148297
635.758572	0.148649
635.965485	0.148506
636.172379	0.148612
636.379256	0.148655
636.586114	0.148470
636.792954	0.148208
636.999775	0.148140
637.206579	0.148140
637.413364	0.148413
637.620131	0.148309
637.826880	0.148346
638.033610	0.148293
638.240323	0.148267
638.447017	0.148543
638.653692	0.148672
638.860350	0.148635
639.066990	0.148658
639.273611	0.148817
639.480214	0.149190
639.686798	0.149589
639.893365	0.149794
640.099913	0.150414
640.306443	0.150395
640.512955	0.150800
640.719449	0.151001
640.925924	0.151068
641.132381	0.151398
641.338820	0.151506
641.545241	0.151647
641.751644	0.151820
641.958028	0.151737
642.164394	0.152009
642.370742	0.151926
642.577071	0.152164
642.783383	0.152585
642.989676	0.152672
643.195951	0.152565
643.402207	0.152482
643.608446	0.152608
643.814666	0.152579
644.020868	0.152594
644.227052	0.152925
644.433218	0.152984
644.639365	0.153053
644.845494	0.153082
645.051605	0.153342
645.257698	0.153589
645.463772	0.153769
645.669828	0.154009
645.875866	0.154133
646.081886	0.154256
646.287888	0.154462
646.493871	0.154555
646.699836	0.154557
646.905783	0.154385
647.111712	0.154638
647.317622	0.154428
647.523514	0.154425
647.729388	0.154620
647.935244	0.154747
648.141082	0.154732
648.346901	0.154683
648.552702	0.154740
648.758485	0.155061
648.964250	0.154796
649.169996	0.155132
649.375724	0.155292
649.581434	0.155323
649.787126	0.155151
649.992800	0.155420
650.198455	0.155906
650.404092	0.156081
650.609711	0.156207
650.815311	0.156327
651.020894	0.156469
651.226458	0.156461
651.432004	0.156758
651.637532	0.156974
651.843041	0.157047
652.048532	0.156542
652.254006	0.156470
652.459460	0.156508
652.664897	0.156657
652.870315	0.156707
653.075716	0.156800
653.281097	0.156841
653.486461	0.156981
653.691807	0.156974
653.897134	0.157197
654.102443	0.157489
654.307734	0.157952
654.513006	0.158466
654.718261	0.158574
654.923497	0.158977
655.128715	0.159185
655.333915	0.159304
655.539096	0.159554
655.744259	0.159852
655.949404	0.160222
656.154531	0.159970
656.359640	0.159925
656.564730	0.160308
656.769802	0.160434
656.974856	0.160495
657.179892	0.160676
657.384909	0.160820
657.589908	0.161014
657.794889	0.161190
657.999852	0.161382
658.204797	0.161516
658.409723	0.161420
658.614631	0.161228
658.819521	0.161270
659.024393	0.161149
659.229246	0.161090
659.434081	0.161290
659.638898	0.161219
659.843697	0.161290
660.048478	0.161143
660.253240	0.161201
660.457984	0.161518
660.662710	0.161727
660.867417	0.162155
661.072107	0.162450
661.276778	0.162679
661.481431	0.162861
661.686066	0.163151
661.890682	0.163548
662.095281	0.163807
662.299861	0.163813
662.504422	0.164120
662.708966	0.164263
662.913491	0.164447
663.117999	0.164472
663.322488	0.164527
663.526958	0.164666
663.731411	0.164667
663.935845	0.164815
664.140261	0.165212
664.344659	0.165035
664.549038	0.165085
664.753400	0.165260
664.957743	0.165549
665.162068	0.165650
665.366375	0.165641
665.570663	0.165678
665.774933	0.165754
665.979185	0.165781
666.183419	0.165918
666.387635	0.166144
666.591832	0.166254
666.796011	0.166264
667.000172	0.166588
667.204315	0.166690
667.408439	0.167059
667.612545	0.167640
667.816634	0.167880
668.020703	0.168187
668.224755	0.168233
668.428788	0.168192
668.632803	0.168206
668.836800	0.168242
669.040779	0.168307
669.244739	0.168335
669.448681	0.168021
669.652605	0.167942
669.856511	0.168094
670.060399	0.168393
670.264268	0.168687
670.468119	0.168770
670.671952	0.168823
670.875767	0.169348
671.079563	0.169543
671.283341	0.169929
671.487101	0.170269
671.690843	0.170304
671.894567	0.170404
672.098272	0.170504
672.301959	0.170859
672.505628	0.171296
672.709278	0.171412
672.912911	0.171618
673.116525	0.171520
673.320121	0.171647
673.523699	0.171995
673.727258	0.172003
673.930799	0.172170
674.134322	0.172093
674.337827	0.172012
674.541314	0.171992
674.744782	0.171932
674.948232	0.172148
675.151664	0.172348
675.355078	0.172279
675.558474	0.172394
675.761851	0.172453
675.965210	0.172623
676.168551	0.172632
676.371873	0.172849
676.575178	0.173065
676.778464	0.173282
676.981732	0.173257
677.184981	0.173547
677.388213	0.173801
677.591426	0.173995
677.794621	0.174325
677.997798	0.174686
678.200956	0.174744
678.404097	0.174985
678.607219	0.175360
678.810323	0.175588
679.013408	0.175682
679.216476	0.175940
679.419525	0.176082
679.622556	0.176084
679.825569	0.176187
680.028563	0.176111
680.231540	0.176212
680.434498	0.175963
680.637438	0.175898
680.840359	0.175857
681.043263	0.175700
681.246148	0.175594
681.449015	0.175565
681.651864	0.175414
681.854694	0.175695
682.057506	0.175937
682.260301	0.176135
682.463076	0.176338
682.665834	0.176504
682.868573	0.176698
683.071295	0.177149
683.273998	0.177426
683.476682	0.177736
683.679349	0.177835
683.881997	0.177754
684.084627	0.177727
684.287239	0.177871
684.489833	0.177979
684.692408	0.177906
684.894965	0.177782
685.097504	0.177871
685.300025	0.178030
685.502527	0.178084
685.705012	0.178183
685.907478	0.178479
686.109925	0.178427
686.312355	0.178355
686.514766	0.178677
686.717159	0.178852
686.919534	0.178775
687.121891	0.178684
687.324230	0.178714
687.526550	0.178724
687.728852	0.178461
687.931136	0.178639
688.133401	0.178920
688.335649	0.178734
688.537878	0.178876
688.740089	0.178999
688.942281	0.179088
689.144456	0.179282
689.346612	0.179530
689.548750	0.179748
689.750870	0.179720
689.952971	0.179891
690.155055	0.180289
690.357120	0.180168
690.559167	0.180339
690.761195	0.180574
690.963206	0.180589
691.165198	0.180486
691.367172	0.180612
691.569128	0.180627
691.771065	0.180801
691.972984	0.180756
692.174885	0.180950
692.376768	0.181025
692.578633	0.181021
692.780479	0.181123
692.982308	0.181387
693.184118	0.181412
693.385909	0.181762
693.587683	0.181533
693.789438	0.181567
693.991175	0.181728
694.192894	0.181567
694.394595	0.181909
694.596277	0.181978
694.797941	0.182114
694.999587	0.182334
695.201215	0.182329
695.402824	0.182470
695.604416	0.182585
695.805989	0.182557
696.007543	0.182790
696.209080	0.182780
696.410598	0.182941
696.612099	0.183079
696.813580	0.183247
697.015044	0.183513
697.216490	0.183751
697.417917	0.183865
697.619326	0.183887
697.820717	0.183891
698.022089	0.183851
698.223444	0.183944
698.424780	0.183669
698.626098	0.183747
698.827397	0.183584
699.028679	0.183445
699.229942	0.183541
699.431187	0.183704
699.632414	0.184063
699.833622	0.184158
700.034813	0.184256
700.235985	0.184446
700.437139	0.184435
700.638274	0.184730
700.839392	0.185139
701.040491	0.185319
701.241572	0.185165
701.442635	0.185138
701.643679	0.185197
701.844706	0.185505
702.045714	0.185632
702.246704	0.185742
702.447675	0.185711
702.648629	0.185866
702.849564	0.186022
703.050481	0.186304
703.251380	0.186672
703.452260	0.186675
703.653122	0.186402
703.853966	0.186458
704.054792	0.186409
704.255600	0.186273
704.456389	0.186203
704.657160	0.186031
704.857913	0.185886
705.058648	0.185659
705.259365	0.185511
705.460063	0.185324
705.660743	0.185308
705.861405	0.185244
706.062048	0.185336
706.262674	0.185114
706.463281	0.184947
706.663870	0.184978
706.864441	0.184840
707.064993	0.184968
707.265527	0.185226
707.466043	0.185163
707.666541	0.185256
707.867021	0.185270
708.067482	0.185298
708.267925	0.185228
708.468350	0.185256
708.668757	0.185172
708.869145	0.185065
709.069516	0.184970
709.269868	0.185040
709.470201	0.185109
709.670517	0.185231
709.870814	0.185305
710.071093	0.185438
710.271354	0.185807
710.471597	0.186080
710.671821	0.186179
710.872028	0.186233
711.072216	0.186484
711.272385	0.186359
711.472537	0.186353
711.672670	0.186240
711.872785	0.186323
712.072882	0.186282
712.272961	0.186177
712.473021	0.186227
712.673063	0.186160
712.873087	0.185963
713.073093	0.186159
713.273081	0.186217
713.473050	0.186348
713.673001	0.186267
713.872934	0.186172
714.072849	0.186230
714.272745	0.186160
714.472623	0.186431
714.672483	0.186307
714.872325	0.186285
715.072148	0.186371
715.271954	0.186210
715.471741	0.186528
715.671509	0.186554
715.871260	0.186617
716.070992	0.186792
716.270707	0.186745
716.470403	0.186877
716.670080	0.186713
716.869740	0.186427
717.069381	0.186604
717.269004	0.186424
717.468609	0.186442
717.668195	0.186356
717.867764	0.186356
718.067314	0.186181
718.266846	0.186413
718.466360	0.186616
718.665855	0.186580
718.865332	0.186389
719.064791	0.186586
719.264232	0.186609
719.463655	0.186574
719.663059	0.186541
719.862445	0.186510
720.061813	0.186172
720.261163	0.185970
720.460494	0.186041
720.659807	0.185997
720.859102	0.185836
721.058379	0.185609
721.257638	0.185742
721.456878	0.185648
721.656100	0.185614
721.855304	0.185615
722.054490	0.185451
722.253657	0.185320
722.452806	0.185240
722.651937	0.185033
722.851050	0.184943
723.050145	0.184563
723.249221	0.184488
723.448279	0.184276
723.647319	0.184297
723.846340	0.184522
724.045344	0.184594
724.244329	0.184694
724.443296	0.184486
724.642245	0.184281
724.841175	0.184080
725.040088	0.183866
725.238982	0.183793
725.437857	0.183245
725.636715	0.183014
725.835554	0.182814
726.034376	0.182507
726.233179	0.182589
726.431963	0.182412
726.630730	0.182601
726.829478	0.182529
727.028208	0.182444
727.226920	0.182497
727.425614	0.182319
727.624289	0.182091
727.822946	0.181980
728.021585	0.181648
728.220206	0.181815
728.418808	0.181498
728.617392	0.181531
728.815958	0.181566
729.014506	0.181658
729.213036	0.181424
729.411547	0.181316
729.610040	0.181310
729.808515	0.181451
730.006972	0.181419
730.205410	0.181483
730.403831	0.181271
730.602233	0.181087
730.800616	0.180948
730.998982	0.180882
731.197329	0.180800
731.395658	0.180850
731.593969	0.180750
731.792262	0.180513
731.990536	0.180452
732.188793	0.180592
732.387031	0.180573
732.585250	0.180480
732.783452	0.180493
732.981635	0.180542
733.179800	0.180349
733.377947	0.180292
733.576076	0.180236
733.774186	0.180116
733.972278	0.179903
734.170352	0.180046
734.368408	0.179895
734.566446	0.179858
734.764465	0.179707
734.962466	0.179513
735.160449	0.179290
735.358413	0.179257
735.556360	0.179188
735.754288	0.179196
735.952198	0.178820
736.150090	0.178971
736.347963	0.178658
736.545818	0.178572
736.743655	0.178736
736.941474	0.178759
737.139275	0.178668
737.337057	0.178594
737.534821	0.178192
737.732567	0.178225
737.930295	0.177872
738.128005	0.178017
738.325696	0.177844
738.523369	0.177602
738.721024	0.177405
738.918660	0.177252
739.116279	0.177211
739.313879	0.177398
739.511461	0.177129
739.709024	0.177151
739.906570	0.177075
740.104097	0.177010
740.301606	0.176891
740.499097	0.176884
740.696569	0.176850
740.894024	0.176574
741.091460	0.176364
741.288878	0.176537
741.486277	0.176375
741.683659	0.176361
741.881022	0.176251
742.078367	0.176246
742.275694	0.175883
742.473002	0.175545
742.670293	0.175390
742.867565	0.175123
743.064819	0.174856
743.262054	0.174948
743.459272	0.174516
743.656471	0.174156
743.853652	0.173988
744.050815	0.174029
744.247959	0.173828
744.445085	0.173634
744.642194	0.173721
744.839283	0.173562
745.036355	0.173202
745.233408	0.173324
745.430444	0.173472
745.627461	0.173427
745.824459	0.173434
746.021440	0.173518
746.218402	0.173647
746.415346	0.173465
746.612272	0.173173
746.809180	0.173346
747.006069	0.173310
747.202940	0.173465
747.399793	0.173299
747.596628	0.173291
747.793444	0.173277
747.990243	0.173326
748.187023	0.173326
748.383784	0.173750
748.580528	0.173659
748.777253	0.173491
748.973960	0.173110
749.170649	0.172995
749.367320	0.172907
749.563973	0.172700
749.760607	0.172467
749.957223	0.172064
750.153821	0.171573
750.350400	0.171237
750.546962	0.170794
750.743505	0.170833
750.940030	0.170659
751.136536	0.170383
751.333025	0.170320
751.529495	0.170085
751.725947	0.170125
751.922381	0.170021
752.118796	0.169957
752.315194	0.169894
752.511573	0.169625
752.707934	0.169551
752.904276	0.169336
753.100601	0.169182
753.296907	0.169214
753.493195	0.169081
753.689465	0.169030
753.885716	0.168747
754.081949	0.168724
754.278164	0.168781
754.474361	0.168560
754.670540	0.168468
754.866700	0.168256
755.062843	0.167993
755.258967	0.167957
755.455072	0.167661
755.651160	0.167585
755.847229	0.167570
756.043280	0.167448
756.239313	0.167317
756.435328	0.167094
756.631324	0.166960
756.827302	0.166873
757.023262	0.166720
757.219204	0.166653
757.415127	0.166633
757.611033	0.166456
757.806920	0.166343
758.002788	0.166486
758.198639	0.166437
758.394471	0.166358
758.590286	0.166240
758.786081	0.166162
758.981859	0.166102
759.177619	0.165930
759.373360	0.165877
759.569083	0.165521
759.764788	0.165282
759.960474	0.165128
760.156143	0.165029
760.351793	0.164802
760.547425	0.164481
760.743038	0.164366
760.938634	0.164284
761.134211	0.164100
761.329770	0.164065
761.525311	0.163688
761.720833	0.163841
761.916338	0.163780
762.111824	0.163957
762.307292	0.164212
762.502741	0.163956
762.698173	0.163980
762.893586	0.163943
763.088981	0.163877
763.284358	0.164086
763.479716	0.164025
763.675057	0.164033
763.870379	0.163917
764.065683	0.163839
764.260968	0.163986
764.456236	0.163908
764.651485	0.163761
764.846716	0.163607
765.041929	0.163466
765.237123	0.163168
765.432299	0.163156
765.627457	0.162988
765.822597	0.162837
766.017719	0.162798
766.212822	0.162474
766.407907	0.162362
766.602974	0.162450
766.798023	0.162235
766.993054	0.162193
767.188066	0.162200
767.383060	0.162109
767.578036	0.161848
767.772993	0.161669
767.967933	0.161597
768.162854	0.161626
768.357757	0.161523
768.552642	0.161645
768.747508	0.161659
768.942356	0.161252
769.137186	0.161207
769.331998	0.161126
769.526792	0.161115
769.721567	0.161001
769.916324	0.160654
770.111063	0.160442
770.305784	0.160392
770.500486	0.160140
770.695171	0.160274
770.889837	0.159960
771.084484	0.159963
771.279114	0.159898
771.473725	0.160294
771.668318	0.160381
771.862893	0.160362
772.057450	0.160356
772.251988	0.160367
772.446509	0.160410
772.641011	0.160529
772.835494	0.160621
773.029960	0.160744
773.224407	0.160464
773.418836	0.160671
773.613247	0.160775
773.807640	0.160752
774.002014	0.160788
774.196370	0.160735
774.390708	0.160735
774.585028	0.160683
774.779330	0.160501
774.973613	0.160556
775.167878	0.160468
775.362125	0.160447
775.556354	0.160298
775.750564	0.160245
775.944756	0.160201
776.138930	0.160358
776.333086	0.160086
776.527223	0.160122
776.721343	0.159906
776.915444	0.159808
777.109526	0.159632
777.303591	0.159644
777.497637	0.159917
777.691666	0.159856
777.885676	0.159615
778.079667	0.159735
778.273641	0.159480
778.467596	0.159535
778.661533	0.159581
778.855452	0.159686
779.049352	0.159729
779.243235	0.159503
779.437099	0.159384
779.630945	0.159512
779.824773	0.159602
780.018582	0.159791
780.212373	0.159816
780.406146	0.159877
780.599901	0.159824
780.793638	0.159781
780.987356	0.159787
781.181056	0.159846
781.374738	0.159787
781.568402	0.159888
781.762047	0.159963
781.955674	0.160058
782.149283	0.160093
782.342874	0.160353
782.536447	0.160459
782.730001	0.160580
782.923537	0.160714
783.117055	0.160623
783.310555	0.160339
783.504036	0.160167
783.697499	0.160161
783.890944	0.160104
784.084371	0.160032
784.277780	0.160024
784.471170	0.160026
784.664542	0.160104
784.857896	0.160730
785.051231	0.160933
785.244549	0.161023
785.437848	0.161197
785.631129	0.161450
785.824392	0.161450
786.017636	0.161656
786.210863	0.161820
786.404071	0.162002
786.597260	0.161739
786.790432	0.161908
786.983585	0.162199
787.176721	0.162126
787.369838	0.161970
787.562936	0.161969
787.756017	0.162043
787.949079	0.162043
788.142123	0.161940
788.335149	0.161870
788.528156	0.161905
788.721146	0.161802
788.914117	0.161893
789.107070	0.162041
789.300005	0.162510
789.492921	0.162602
789.685819	0.162805
789.878699	0.162917
790.071561	0.163011
790.264405	0.163272
790.457230	0.163534
790.650037	0.163699
790.842826	0.163804
791.035597	0.163723
791.228349	0.163702
791.421084	0.163857
791.613800	0.163985
791.806497	0.164448
791.999177	0.164533
792.191838	0.164573
792.384481	0.164937
792.577106	0.165239
792.769713	0.165521
792.962301	0.165732
793.154871	0.165761
793.347423	0.165982
793.539957	0.166132
793.732473	0.166123
793.924970	0.166471
794.117449	0.166519
794.309910	0.166543
794.502353	0.166757
794.694777	0.166596
794.887183	0.166532
795.079571	0.166618
795.271941	0.166468
795.464293	0.166696
795.656626	0.166639
795.848941	0.166758
796.041238	0.166711
796.233516	0.166387
796.425777	0.166634
796.618019	0.166613
796.810243	0.166634
797.002449	0.166800
797.194636	0.166848
797.386805	0.166997
797.578956	0.166954
797.771089	0.167294
797.963204	0.167404
798.155300	0.167595
798.347378	0.168122
798.539438	0.168349
798.731480	0.168306
798.923503	0.168362
799.115509	0.168324
799.307496	0.168348
799.499465	0.168364
799.691415	0.168874
799.883348	0.168917
800.075262	0.168890
800.267158	0.169010
800.459035	0.169487
800.650895	0.169707
800.842736	0.170041
801.034559	0.170474
801.226364	0.170739
801.418150	0.170697
801.609919	0.170817
801.801669	0.170999
801.993401	0.171169
802.185114	0.171285
802.376810	0.171617
802.568487	0.171742
802.760146	0.171565
802.951787	0.171639
803.143409	0.171683
803.335014	0.171967
803.526600	0.172294
803.718168	0.172274
803.909717	0.172333
804.101249	0.172188
804.292762	0.172282
804.484257	0.172492
804.675734	0.172792
804.867192	0.173154
805.058632	0.173564
805.250054	0.173648
805.441458	0.174065
805.632844	0.174130
805.824211	0.174603
806.015561	0.174993
806.206891	0.175401
806.398204	0.175792
806.589499	0.175955
806.780775	0.175887
806.972033	0.176020
807.163273	0.176042
807.354495	0.176406
807.545698	0.176565
807.736883	0.176777
807.928050	0.176830
808.119199	0.176859
808.310329	0.177004
808.501441	0.177341
808.692535	0.177572
808.883611	0.177935
809.074669	0.178059
809.265708	0.178319
809.456729	0.178471
809.647732	0.178645
809.838717	0.178540
810.029683	0.178755
810.220632	0.178950
810.411562	0.179088
810.602474	0.179174
810.793367	0.179203
810.984242	0.179392
811.175100	0.179446
811.365938	0.179735
811.556759	0.180141
811.747562	0.180178
811.938346	0.180520
812.129112	0.180659
812.319860	0.180731
812.510589	0.181140
812.701300	0.181357
812.891994	0.181659
813.082668	0.181730
813.273325	0.181909
813.463964	0.182224
813.654584	0.182314
813.845186	0.182739
814.035769	0.182960
814.226335	0.182837
814.416882	0.182817
814.607411	0.183014
814.797922	0.183466
814.988415	0.183700
815.178889	0.184059
815.369345	0.184401
815.559783	0.184408
815.750203	0.184717
815.940605	0.185076
816.130988	0.185581
816.321353	0.185816
816.511700	0.185999
816.702028	0.186289
816.892339	0.186186
817.082631	0.186113
817.272905	0.186350
817.463161	0.186876
817.653398	0.187042
817.843617	0.186985
818.033819	0.187405
818.224001	0.187708
818.414166	0.187696
818.604312	0.188042
818.794440	0.188281
818.984550	0.188555
819.174642	0.188383
819.364716	0.188936
819.554771	0.189502
819.744808	0.189578
819.934827	0.189783
820.124827	0.190088
820.314810	0.190449
820.504774	0.190892
820.694720	0.191196
820.884647	0.191661
821.074557	0.191688
821.264448	0.191742
821.454321	0.191889
821.644176	0.192112
821.834012	0.192362
822.023831	0.192438
822.213631	0.192639
822.403413	0.192657
822.593176	0.192721
822.782922	0.193212
822.972649	0.193154
823.162358	0.193572
823.352049	0.193554
823.541721	0.193760
823.731376	0.194069
823.921012	0.194245
824.110629	0.194593
824.300229	0.195123
824.489811	0.195167
824.679374	0.195586
824.868919	0.195818
825.058445	0.196160
825.247954	0.196807
825.437444	0.197090
825.626916	0.197363
825.816370	0.197878
826.005806	0.198000
826.195223	0.198302
826.384622	0.198607
826.574003	0.198703
826.763366	0.198979
826.952711	0.199276
827.142037	0.199785
827.331345	0.200126
827.520635	0.200188
827.709906	0.200385
827.899160	0.200913
828.088395	0.201291
828.277612	0.201788
828.466810	0.202346
828.655991	0.202384
828.845153	0.202658
829.034297	0.203063
829.223423	0.203342
829.412531	0.203933
829.601620	0.203960
829.790691	0.204427
829.979744	0.204399
830.168779	0.204510
830.357795	0.204631
830.546793	0.204808
830.735773	0.204922
830.924735	0.205507
831.113679	0.205396
831.302604	0.205819
831.491511	0.206070
831.680400	0.206604
831.869271	0.207035
832.058123	0.207382
832.246957	0.207729
832.435773	0.207781
832.624571	0.207712
832.813351	0.208103
833.002112	0.208375
833.190855	0.208425
833.379580	0.209003
833.568287	0.209079
833.756975	0.209498
833.945645	0.209753
834.134297	0.210279
834.322931	0.210519
834.511547	0.210885
834.700144	0.210848
834.888723	0.211208
835.077284	0.211204
835.265826	0.211922
835.454351	0.212209
835.642857	0.212518
835.831345	0.212904
836.019815	0.213500
836.208266	0.213871
836.396699	0.214681
836.585114	0.214995
836.773511	0.215243
836.961890	0.215111
837.150250	0.215610
837.338592	0.216153
837.526916	0.216560
837.715222	0.216862
837.903510	0.217516
838.091779	0.217515
838.280030	0.217944
838.468263	0.218703
838.656477	0.219534
838.844674	0.219703
839.032852	0.220003
839.221012	0.220404
839.409153	0.220800
839.597277	0.221049
839.785382	0.222061
839.973469	0.222476
840.161538	0.222579
840.349589	0.222812
840.537621	0.223095
840.725635	0.223664
840.913631	0.224033
841.101609	0.224297
841.289568	0.224731
841.477509	0.224875
841.665432	0.225396
841.853337	0.225793
842.041224	0.226119
842.229092	0.226761
842.416942	0.226633
842.604774	0.227149
842.792588	0.227692
842.980383	0.227923
843.168160	0.228423
843.355919	0.228894
843.543660	0.229552
843.731382	0.229995
843.919087	0.230553
844.106773	0.230657
844.294441	0.230694
844.482090	0.231247
844.669722	0.231833
844.857335	0.232138
845.044930	0.232067
845.232507	0.232498
845.420065	0.232636
845.607605	0.232761
845.795127	0.233517
845.982631	0.233986
846.170117	0.234144
846.357584	0.234465
846.545033	0.234652
846.732464	0.235475
846.919877	0.235587
847.107272	0.236300
847.294648	0.236715
847.482006	0.237175
847.669346	0.237739
847.856667	0.238260
848.043971	0.238352
848.231256	0.238775
848.418523	0.238812
848.605771	0.239307
848.793002	0.239479
848.980214	0.239970
849.167408	0.240754
849.354584	0.240872
849.541742	0.240950
849.728881	0.241723
849.916002	0.242089
850.103105	0.242449
850.290190	0.242335
850.477256	0.242811
850.664304	0.242989
850.851334	0.243211
851.038346	0.243595
851.225340	0.244075
851.412315	0.244309
851.599272	0.244788
851.786211	0.245211
851.973132	0.245893
852.160034	0.246272
852.346918	0.246750
852.533784	0.246547
852.720632	0.246976
852.907462	0.247246
853.094273	0.247385
853.281066	0.247435
853.467841	0.247627
853.654598	0.247803
853.841336	0.247886
854.028056	0.247849
854.214758	0.248338
854.401442	0.248426
854.588107	0.248623
854.774755	0.248568
854.961384	0.248668
855.147995	0.249034
855.334587	0.249348
855.521162	0.249798
855.707718	0.249806
855.894256	0.250175
856.080775	0.250601
856.267277	0.251008
856.453760	0.251623
856.640225	0.252104
856.826672	0.252524
857.013101	0.252650
857.199511	0.252734
857.385903	0.253439
857.572277	0.253638
857.758633	0.253895
857.944970	0.253952
858.131290	0.253976
858.317591	0.254234
858.503873	0.254323
858.690138	0.254468
858.876384	0.254778
859.062612	0.255102
859.248822	0.255422
859.435014	0.255971
859.621188	0.256329
859.807343	0.256925
859.993480	0.257341
860.179599	0.258019
860.365699	0.258259
860.551781	0.258675
860.737846	0.259050
860.923891	0.259335
861.109919	0.259371
861.295929	0.259515
861.481920	0.259518
861.667893	0.259572
861.853848	0.259448
862.039784	0.260058
862.225702	0.260492
862.411603	0.260954
862.597484	0.261204
862.783348	0.261836
862.969193	0.262339
863.155021	0.262911
863.340830	0.263656
863.526620	0.263982
863.712393	0.264617
863.898147	0.264405
864.083883	0.264605
864.269601	0.264621
864.455301	0.264606
864.640982	0.265086
864.826645	0.265298
865.012290	0.265652
865.197917	0.265938
865.383526	0.266014
865.569116	0.267029
865.754688	0.267277
865.940242	0.267838
866.125777	0.267946
866.311295	0.268024
866.496794	0.268007
866.682275	0.267881
866.867737	0.268524
867.053182	0.268569
867.238608	0.268386
867.424016	0.268435
867.609406	0.268408
867.794778	0.268675
867.980131	0.268930
868.165466	0.269305
868.350783	0.269390
868.536082	0.268888
868.721362	0.269128
868.906625	0.269100
869.091869	0.269203
869.277094	0.269658
869.462302	0.269892
869.647491	0.270134
869.832662	0.270716
870.017815	0.271218
870.202950	0.271528
870.388066	0.271755
870.573165	0.271756
870.758245	0.272368
870.943306	0.272465
871.128350	0.272650
871.313375	0.272973
871.498382	0.273055
871.683371	0.273214
871.868342	0.274126
872.053294	0.274531
872.238229	0.275134
872.423144	0.274999
872.608042	0.275308
872.792922	0.275676
872.977783	0.275450
873.162626	0.275303
873.347451	0.274990
873.532258	0.274764
873.717046	0.274882
873.901816	0.274757
874.086568	0.274695
874.271302	0.274969
874.456017	0.275054
874.640715	0.275477
874.825394	0.275529
875.010055	0.276322
875.194697	0.276445
875.379322	0.276373
875.563928	0.276928
875.748516	0.277196
875.933085	0.277674
876.117637	0.277867
876.302170	0.277980
876.486685	0.278646
876.671182	0.278608
876.855661	0.278664
877.040121	0.279152
877.224563	0.279279
877.408987	0.279854
877.593393	0.279799
877.777780	0.280222
877.962150	0.280710
878.146501	0.280722
878.330833	0.281140
878.515148	0.281685
878.699444	0.281486
878.883722	0.281951
879.067982	0.281647
879.252224	0.281703
879.436447	0.281586
879.620653	0.281584
879.804840	0.281511
879.989008	0.281272
880.173159	0.281445
880.357291	0.281523
880.541405	0.281308
880.725501	0.281388
880.909579	0.281181
881.093638	0.281228
881.277680	0.280999
881.461703	0.280739
881.645707	0.281083
881.829694	0.280883
882.013662	0.280882
882.197612	0.280757
882.381544	0.281059
882.565458	0.281335
882.749353	0.280945
882.933230	0.281182
883.117089	0.281321
883.300930	0.280813
883.484753	0.280640
883.668557	0.281210
883.852343	0.281223
884.036111	0.281624
884.219861	0.281427
884.403592	0.281498
884.587305	0.281190
884.771000	0.281657
884.954677	0.282082
885.138335	0.282197
885.321976	0.282004
885.505598	0.282074
885.689201	0.281693
885.872787	0.281909
886.056354	0.282153
886.239904	0.282614
886.423434	0.282633
886.606947	0.282846
886.790442	0.283203
886.973918	0.282988
887.157376	0.282978
887.340816	0.282770
887.524237	0.282409
887.707641	0.282713
887.891026	0.282435
888.074393	0.282067
888.257741	0.281491
888.441072	0.281160
888.624384	0.280932
888.807678	0.281014
888.990954	0.280925
889.174211	0.281187
889.357451	0.281039
889.540672	0.281164
889.723875	0.281322
889.907059	0.281560
890.090226	0.281836
890.273374	0.281874
890.456504	0.281482
890.639616	0.281639
890.822709	0.281915
891.005785	0.282328
891.188842	0.282183
891.371881	0.282425
891.554901	0.282305
891.737904	0.281880
891.920888	0.282424
892.103854	0.282890
892.286802	0.282706
892.469731	0.282263
892.652643	0.281724
892.835536	0.282031
893.018410	0.281911
893.201267	0.281948
893.384106	0.282069
893.566926	0.281256
893.749728	0.281114
893.932511	0.281207
894.115277	0.281237
894.298024	0.281613
894.480753	0.281546
894.663464	0.281434
894.846157	0.281517
895.028831	0.281455
895.211487	0.281918
895.394125	0.281842
895.576745	0.281699
895.759346	0.281862
895.941930	0.281098
896.124495	0.281220
896.307041	0.280965
896.489570	0.280280
896.672080	0.280193
896.854573	0.279767
897.037046	0.279229
897.219502	0.279444
897.401940	0.278656
897.584359	0.278527
897.766760	0.277733
897.949143	0.276924
898.131507	0.276913
898.313854	0.276112
898.496182	0.276322
898.678492	0.276270
898.860783	0.275570
899.043057	0.275734
899.225312	0.275488
899.407549	0.275491
899.589768	0.275716
899.771968	0.275876
899.954151	0.276412
900.136315	0.275938
900.318461	0.275654
900.500588	0.275665
900.682698	0.275433
900.864789	0.275545
901.046862	0.275035
901.228917	0.274534
901.410953	0.274105
901.592971	0.273657
901.774972	0.272888
901.956953	0.272976
902.138917	0.272742
902.320862	0.272532
902.502790	0.272535
902.684699	0.272050
902.866589	0.272064
903.048462	0.271689
903.230316	0.270887
903.412152	0.271088
903.593970	0.270706
903.775770	0.270336
903.957551	0.270277
904.139314	0.269420
904.321059	0.269592
904.502786	0.269397
904.684494	0.269317
904.866185	0.269394
905.047857	0.269060
905.229510	0.268544
905.411146	0.268418
905.592763	0.267996
905.774363	0.268158
905.955943	0.267626
906.137506	0.267283
906.319051	0.267024
906.500577	0.267161
906.682085	0.266800
906.863575	0.266605
907.045046	0.265721
907.226500	0.265206
907.407935	0.264535
907.589352	0.264321
907.770750	0.263977
907.952131	0.263651
908.133493	0.262686
908.314837	0.262662
908.496163	0.262624
908.677470	0.262660
908.858760	0.262427
909.040031	0.262228
909.221284	0.261692
909.402518	0.261492
909.583735	0.260890
909.764933	0.260789
909.946113	0.260203
910.127275	0.259727
910.308418	0.259284
910.489544	0.259255
910.670651	0.258689
910.851740	0.258749
911.032810	0.258428
911.213863	0.258394
911.394897	0.258269
911.575913	0.257853
911.756911	0.257143
911.937890	0.257399
912.118851	0.256801
912.299794	0.256459
912.480719	0.255863
912.661626	0.255210
912.842514	0.254097
913.023384	0.253700
913.204236	0.253467
913.385070	0.253611
913.565886	0.252547
913.746683	0.251815
913.927462	0.251696
914.108223	0.251095
914.288965	0.250785
914.469690	0.250670
914.650396	0.249634
914.831084	0.248464
915.011754	0.247428
915.192405	0.247155
915.373038	0.246535
915.553653	0.245584
915.734250	0.245443
915.914829	0.244680
916.095389	0.244501
916.275931	0.244152
916.456455	0.244089
916.636961	0.243221
916.817448	0.242554
916.997917	0.242282
917.178368	0.241768
917.358801	0.240380
917.539216	0.240473
917.719612	0.239201
917.899990	0.238148
918.080350	0.237198
918.260692	0.236675
918.441015	0.236198
918.621320	0.235287
918.801607	0.234671
918.981876	0.234814
919.162127	0.233250
919.342359	0.232631
919.522573	0.232167
919.702769	0.231641
919.882947	0.231153
920.063106	0.230165
920.243247	0.230076
920.423370	0.229801
920.603475	0.228824
920.783562	0.228480
920.963630	0.228063
921.143680	0.227512
921.323712	0.226863
921.503725	0.226212
921.683721	0.225618
921.863698	0.224569
922.043657	0.223322
922.223598	0.222523
922.403520	0.222341
922.583424	0.222225
922.763311	0.221689
922.943178	0.220935
923.123028	0.220111
923.302859	0.219301
923.482673	0.218546
923.662467	0.217912
923.842244	0.217651
924.022003	0.216424
924.201743	0.215197
924.381465	0.214347
924.561169	0.213838
924.740854	0.213668
924.920522	0.212798
925.100171	0.211822
925.279802	0.211042
925.459414	0.210162
925.639009	0.209717
925.818585	0.208694
925.998143	0.207699
926.177683	0.206959
926.357205	0.205985
926.536708	0.205666
926.716193	0.204403
926.895660	0.203520
927.075109	0.202176
927.254539	0.201112
927.433951	0.200574
927.613345	0.200043
927.792721	0.200005
927.972079	0.199267
928.151418	0.197789
928.330739	0.197153
928.510042	0.197307
928.689327	0.197269
928.868593	0.196785
929.047841	0.195653
929.227071	0.194829
929.406283	0.193556
929.585476	0.192500
929.764652	0.192281
929.943809	0.192103
930.122948	0.190694
930.302068	0.189789
930.481171	0.188721
930.660255	0.188602
930.839321	0.188348
931.018369	0.187293
931.197398	0.186277
931.376409	0.184812
931.555402	0.184607
931.734377	0.183881
931.913334	0.183308
932.092272	0.182498
932.271192	0.181202
932.450094	0.180161
932.628978	0.179443
932.807844	0.179426
932.986691	0.179165
933.165520	0.177722
933.344331	0.176709
933.523123	0.175390
933.701898	0.174643
933.880654	0.174383
934.059392	0.174419
934.238111	0.174342
934.416813	0.173805
934.595496	0.173675
934.774161	0.174323
934.952808	0.173908
935.131437	0.173258
935.310047	0.172330
935.488639	0.171132
935.667213	0.169412
935.845769	0.167671
936.024306	0.166583
936.202825	0.165375
936.381326	0.162903
936.559809	0.162551
936.738274	0.161132
936.916720	0.160839
937.095148	0.160138
937.273558	0.158958
937.451950	0.157729
937.630323	0.156698
937.808678	0.155952
937.987015	0.155141
938.165334	0.153612
938.343635	0.153919
938.521917	0.154178
938.700181	0.152388
938.878427	0.151494
939.056655	0.150648
939.234864	0.149340
939.413055	0.149242
939.591228	0.148839
939.769383	0.148022
939.947519	0.146945
940.125638	0.145014
940.303738	0.144925
940.481820	0.144928
940.659883	0.144194
940.837929	0.143297
941.015956	0.141278
941.193965	0.139742
941.371955	0.138768
941.549928	0.137055
941.727882	0.134765
941.905818	0.134635
942.083736	0.132634
942.261636	0.131484
942.439517	0.130082
942.617380	0.130066
942.795225	0.129375
942.973052	0.127534
943.150860	0.127285
943.328651	0.128065
943.506423	0.126833
943.684176	0.126827
943.861912	0.127143
944.039629	0.127225
944.217328	0.126011
944.395009	0.125366
944.572672	0.125380
944.750317	0.124728
944.927943	0.123502
945.105551	0.122812
945.283141	0.121441
945.460712	0.120886
945.638265	0.119406
945.815801	0.118474
945.993317	0.117804
946.170816	0.117136
946.348297	0.116033
946.525759	0.115528
946.703203	0.115662
946.880629	0.115313
947.058036	0.112887
947.235425	0.112624
947.412797	0.111093
947.590149	0.110158
947.767484	0.108770
947.944800	0.107795
948.122099	0.106999
948.299379	0.104670
948.476640	0.104139
948.653884	0.104550
948.831109	0.103585
949.008316	0.103474
949.185505	0.103391
949.362676	0.104135
949.539828	0.103722
949.716962	0.102372
949.894078	0.102023
950.071176	0.102109
950.248256	0.103198
950.425317	0.103345
950.602360	0.103041
950.779385	0.102954
950.956391	0.101007
951.133380	0.100069
951.310350	0.099514
951.487302	0.099761
951.664235	0.097490
951.841151	0.095356
952.018048	0.095955
952.194927	0.095696
952.371788	0.095393
952.548631	0.096548
952.725455	0.097625
952.902261	0.098282
953.079049	0.095776
953.255819	0.097379
953.432570	0.096949
953.609303	0.096146
953.786018	0.095390
953.962715	0.094083
954.139394	0.092357
954.316054	0.091288
954.492696	0.089445
954.669320	0.090403
954.845926	0.088606
955.022513	0.087602
955.199083	0.087272
955.375634	0.086713
955.552166	0.085609
955.728681	0.085144
955.905177	0.084216
956.081655	0.084738
956.258115	0.085109
956.434557	0.083636
956.610980	0.081837
956.787385	0.079989
956.963772	0.077915
957.140141	0.078109
957.316492	0.079189
957.492824	0.078679
957.669138	0.077617
957.845434	0.076653
958.021712	0.079243
958.197971	0.080277
958.374212	0.080611
958.550435	0.082643
958.726640	0.081885
958.902826	0.081077
959.078995	0.083032
959.255145	0.084280
959.431277	0.084984
959.607390	0.083785
959.783486	0.086586
959.959563	0.086498
960.135622	0.086219
960.311662	0.087145
960.487685	0.085902
960.663689	0.085382
960.839675	0.083991
961.015643	0.080925
961.191593	0.079453
961.367524	0.076327
961.543437	0.076019
961.719332	0.075629
961.895209	0.075078
962.071067	0.075215
962.246907	0.075581
962.422730	0.078587
962.598533	0.082019
962.774319	0.084605
962.950086	0.085694
963.125835	0.085182
963.301566	0.084942
963.477279	0.087132
963.652973	0.088840
963.828650	0.085688
964.004308	0.081678
964.179947	0.079515
964.355569	0.076414
964.531172	0.077344
964.706757	0.077381
964.882324	0.077994
965.057873	0.075827
965.233403	0.074657
965.408916	0.075427
965.584410	0.076471
965.759885	0.077907
965.935343	0.079032
966.110782	0.078698
966.286203	0.079330
966.461606	0.079967
966.636991	0.080201
966.812357	0.082194
966.987705	0.082125
967.163035	0.082208
967.338347	0.081934
967.513641	0.083094
967.688916	0.082658
967.864173	0.082558
968.039412	0.083111
968.214632	0.082603
968.389835	0.079945
968.565019	0.079064
968.740185	0.081005
968.915333	0.080292
969.090462	0.079961
969.265573	0.080306
969.440667	0.078434
969.615741	0.077519
969.790798	0.078884
969.965836	0.079425
970.140856	0.082030
970.315858	0.081072
970.490842	0.081908
970.665808	0.083643
970.840755	0.083653
971.015684	0.085955
971.190595	0.085940
971.365487	0.085570
971.540362	0.084820
971.715218	0.084283
971.890056	0.081099
972.064875	0.079882
972.239677	0.076853
972.414460	0.076304
972.589225	0.074759
972.763972	0.073555
972.938700	0.072726
973.113411	0.072759
973.288103	0.071204
973.462777	0.074572
973.637432	0.076166
973.812070	0.078003
973.986689	0.078522
974.161290	0.079193
974.335873	0.079458
974.510437	0.079654
974.684984	0.080007
974.859512	0.080972
975.034022	0.079572
975.208513	0.080803
975.382987	0.080644
975.557442	0.078531
975.731879	0.077921
975.906298	0.077216
976.080698	0.079336
976.255080	0.078791
976.429445	0.077463
976.603790	0.079498
976.778118	0.075823
976.952427	0.075098
977.126719	0.075810
977.300992	0.077274
977.475246	0.078849
977.649483	0.078454
977.823701	0.079144
977.997901	0.078401
978.172083	0.077125
978.346247	0.079145
978.520392	0.077049
978.694519	0.078684
978.868628	0.077694
979.042719	0.077050
979.216791	0.073974
979.390845	0.074565
979.564882	0.075374
979.738899	0.074167
979.912899	0.073133
980.086880	0.074700
980.260843	0.074130
980.434788	0.075477
980.608715	0.077191
980.782623	0.079721
980.956514	0.079234
981.130386	0.079034
981.304240	0.079616
981.478075	0.077392
981.651892	0.078632
981.825692	0.077135
981.999472	0.076581
982.173235	0.074760
982.346980	0.074129
982.520706	0.073834
982.694414	0.076026
982.868104	0.076934
983.041775	0.078642
983.215428	0.078423
983.389064	0.079284
983.562680	0.079654
983.736279	0.078964
983.909860	0.078280
984.083422	0.079164
984.256966	0.079163
984.430491	0.077869
984.603999	0.078040
984.777488	0.077313
984.950959	0.078211
985.124412	0.075164
985.297847	0.075922
985.471263	0.076483
985.644661	0.072744
985.818041	0.071078
985.991403	0.071698
986.164747	0.071918
986.338072	0.072399
986.511379	0.071554
986.684668	0.073193
986.857938	0.072911
987.031191	0.073247
987.204425	0.075682
987.377641	0.077208
987.550839	0.076147
987.724018	0.076804
987.897179	0.074996
988.070322	0.076573
988.243447	0.077657
988.416554	0.077069
988.589642	0.075006
988.762712	0.073663
988.935764	0.072711
989.108798	0.072757
989.281813	0.072398
989.454811	0.073537
989.627790	0.072194
989.800751	0.070679
989.973693	0.071053
990.146617	0.073402
990.319524	0.074510
990.492412	0.073198
990.665281	0.073336
990.838133	0.074047
991.010966	0.073131
991.183781	0.072571
991.356578	0.073879
991.529356	0.072607
991.702117	0.071296
991.874859	0.072499
992.047583	0.074675
992.220288	0.075148
992.392976	0.073829
992.565645	0.074717
992.738296	0.073609
992.910929	0.074319
993.083543	0.074794
993.256139	0.075687
993.428718	0.075046
993.601277	0.072818
993.773819	0.073591
993.946342	0.074971
994.118848	0.075317
994.291335	0.076647
994.463803	0.076026
994.636254	0.078136
994.808686	0.076323
994.981100	0.075807
995.153496	0.077680
995.325874	0.077276
995.498233	0.076370
995.670574	0.075446
995.842897	0.075125
996.015202	0.072914
996.187488	0.071305
996.359757	0.072356
996.532007	0.073784
996.704239	0.072630
996.876452	0.072774
997.048648	0.074030
997.220825	0.074485
997.392984	0.074214
997.565124	0.077267
997.737247	0.077619
997.909351	0.078063
998.081437	0.077792
998.253505	0.077334
998.425554	0.076420
998.597586	0.075812
998.769599	0.075511
998.941594	0.075347
999.113571	0.073065
999.285529	0.074107
999.457469	0.073419
999.629391	0.073601
999.801295	0.074866
999.973181	0.074978
1000.145048	0.073330
1000.316897	0.072888
1000.488728	0.073598
1000.660541	0.072025
1000.832335	0.071415
1001.004111	0.070932
1001.175869	0.068834
1001.347609	0.068862
1001.519331	0.069539
1001.691034	0.069973
1001.862719	0.070439
1002.034386	0.071330
1002.206035	0.072829
1002.377665	0.071512
1002.549277	0.070875
1002.720871	0.073849
1002.892447	0.074358
1003.064004	0.073049
1003.235544	0.073584
1003.407065	0.073079
1003.578568	0.069564
1003.750052	0.070203
1003.921519	0.072360
1004.092967	0.073001
1004.264397	0.072600
1004.435809	0.071850
1004.607202	0.073833
1004.778577	0.072497
1004.949934	0.072425
1005.121273	0.074176
1005.292594	0.073631
1005.463896	0.072572
1005.635180	0.072257
1005.806446	0.070595
1005.977694	0.068715
1006.148923	0.068068
1006.320135	0.066560
1006.491328	0.067051
1006.662503	0.068176
1006.833659	0.069212
1007.004798	0.070379
1007.175918	0.070555
1007.347020	0.070955
1007.518103	0.071840
1007.689169	0.072362
1007.860216	0.074248
1008.031245	0.072992
1008.202256	0.071972
1008.373248	0.072315
1008.544223	0.069673
1008.715179	0.069140
1008.886117	0.069176
1009.057036	0.069106
1009.227938	0.067181
1009.398821	0.067107
1009.569686	0.067891
1009.740533	0.067049
1009.911361	0.065754
1010.082172	0.066843
1010.252964	0.068094
1010.423738	0.068781
1010.594493	0.070451
1010.765231	0.070008
1010.935950	0.071638
1011.106651	0.069905
1011.277334	0.071233
1011.447998	0.073175
1011.618645	0.073831
1011.789273	0.073733
1011.959882	0.074402
1012.130474	0.074079
1012.301048	0.075013
1012.471603	0.074405
1012.642140	0.076830
1012.812658	0.074305
1012.983159	0.073084
1013.153641	0.072283
1013.324105	0.072825
1013.494551	0.070416
1013.664979	0.069748
1013.835388	0.068881
1014.005779	0.068303
1014.176152	0.067694
1014.346507	0.069470
1014.516843	0.069999
1014.687162	0.069334
1014.857462	0.068607
1015.027744	0.067640
1015.198007	0.067730
1015.368252	0.066532
1015.538480	0.065449
1015.708689	0.065977
1015.878879	0.065877
1016.049052	0.065694
1016.219206	0.065879
1016.389342	0.064560
1016.559460	0.066084
1016.729559	0.065179
1016.899641	0.066500
1017.069704	0.067214
1017.239749	0.065833
1017.409775	0.068205
1017.579784	0.065959
1017.749774	0.064349
1017.919746	0.065998
1018.089700	0.065470
1018.259635	0.065689
1018.429553	0.068052
1018.599452	0.067268
1018.769333	0.067615
1018.939195	0.065463
1019.109040	0.066763
1019.278866	0.068752
1019.448674	0.069038
1019.618464	0.071077
1019.788235	0.072800
1019.957989	0.073153
1020.127724	0.074451
1020.297441	0.074497
1020.467139	0.074100
1020.636820	0.074929
1020.806482	0.073996
1020.976126	0.073700
1021.145752	0.072470
1021.315359	0.071658
1021.484948	0.070285
1021.654519	0.070273
1021.824072	0.069994
1021.993607	0.070740
1022.163123	0.070289
1022.332621	0.070600
1022.502101	0.069057
1022.671563	0.068947
1022.841007	0.068825
1023.010432	0.068105
1023.179839	0.067192
1023.349228	0.066945
1023.518598	0.067213
1023.687951	0.067430
1023.857285	0.067148
1024.026601	0.064858
1024.195899	0.063517
1024.365178	0.064442
1024.534439	0.062694
1024.703682	0.063319
1024.872907	0.064519
1025.042114	0.063830
1025.211302	0.063729
1025.380472	0.064785
1025.549624	0.066299
1025.718758	0.066999
1025.887873	0.064661
1026.056970	0.065909
1026.226049	0.066206
1026.395110	0.065676
1026.564153	0.064615
1026.733177	0.064559
1026.902183	0.065486
1027.071171	0.064416
1027.240141	0.062627
1027.409092	0.063981
1027.578026	0.064290
1027.746940	0.062792
1027.915837	0.063686
1028.084716	0.063467
1028.253576	0.062578
1028.422418	0.062298
1028.591242	0.065283
1028.760048	0.066359
1028.928835	0.065939
1029.097604	0.066229
1029.266355	0.066601
1029.435088	0.065261
1029.603803	0.065893
1029.772499	0.065462
1029.941177	0.065484
1030.109837	0.064712
1030.278478	0.064722
1030.447102	0.063496
1030.615707	0.063283
1030.784294	0.063362
1030.952863	0.063748
1031.121413	0.064519
1031.289945	0.065323
1031.458460	0.063973
1031.626955	0.063360
1031.795433	0.064252
1031.963892	0.065400
1032.132334	0.065176
1032.300756	0.064300
1032.469161	0.064296
1032.637548	0.063193
1032.805916	0.063906
1032.974266	0.064956
1033.142598	0.066097
1033.310911	0.065498
1033.479207	0.063865
1033.647484	0.064346
1033.815743	0.065849
1033.983983	0.066820
1034.152206	0.065914
1034.320410	0.065262
1034.488596	0.063973
1034.656764	0.063051
1034.824914	0.063973
1034.993045	0.065671
1035.161158	0.065372
1035.329253	0.064767
1035.497330	0.062805
1035.665388	0.064865
1035.833428	0.065747
1036.001450	0.065773
1036.169454	0.066020
1036.337440	0.065789
1036.505407	0.064052
1036.673356	0.064599
1036.841287	0.065269
1037.009200	0.067304
1037.177094	0.067026
1037.344970	0.065568
1037.512828	0.066181
1037.680668	0.066405
1037.848489	0.066553
1038.016293	0.070620
1038.184078	0.070598
1038.351845	0.070078
1038.519593	0.069508
1038.687324	0.070232
1038.855036	0.070756
1039.022730	0.070774
1039.190406	0.070581
1039.358063	0.069380
1039.525702	0.067346
1039.693323	0.066937
1039.860926	0.067551
1040.028511	0.067727
1040.196077	0.066932
1040.363625	0.065505
1040.531155	0.065801
1040.698667	0.066379
1040.866161	0.066971
1041.033636	0.065020
1041.201093	0.065006
1041.368532	0.063774
1041.535952	0.065643
1041.703355	0.064914
1041.870739	0.065746
1042.038105	0.065450
1042.205452	0.065084
1042.372782	0.065049
1042.540093	0.065540
1042.707386	0.066306
1042.874661	0.067541
1043.041918	0.066148
1043.209156	0.066182
1043.376376	0.066795
1043.543578	0.067116
1043.710762	0.065070
1043.877927	0.065188
1044.045074	0.066502
1044.212203	0.063990
1044.379314	0.062279
1044.546407	0.062134
1044.713481	0.062753
1044.880537	0.062125
1045.047575	0.060450
1045.214595	0.060538
1045.381596	0.061590
1045.548579	0.061568
1045.715544	0.063331
1045.882491	0.063574
1046.049420	0.063162
1046.216330	0.063856
1046.383222	0.064366
1046.550096	0.065613
1046.716951	0.068099
1046.883789	0.067279
1047.050608	0.065852
1047.217409	0.066575
1047.384192	0.068406
1047.550956	0.067177
1047.717703	0.066693
1047.884431	0.066313
1048.051140	0.066440
1048.217832	0.065051
1048.384505	0.065770
1048.551161	0.067171
1048.717798	0.066523
1048.884416	0.065016
1049.051017	0.066395
1049.217599	0.067226
1049.384163	0.066785
1049.550709	0.066860
1049.717237	0.068238
1049.883746	0.068209
1050.050237	0.067801
1050.216710	0.067235
1050.383165	0.069472
1050.549601	0.066785
1050.716019	0.064373
1050.882420	0.064514
1051.048801	0.064810
1051.215165	0.062887
1051.381510	0.061233
1051.547837	0.060551
1051.714146	0.058759
1051.880437	0.058130
1052.046709	0.059164
1052.212964	0.059747
1052.379200	0.060966
1052.545417	0.059687
1052.711617	0.063249
1052.877798	0.063881
1053.043961	0.064596
1053.210106	0.065915
1053.376233	0.065030
1053.542341	0.065999
1053.708432	0.066900
1053.874504	0.066605
1054.040557	0.065766
1054.206593	0.061340
1054.372610	0.060704
1054.538609	0.060971
1054.704590	0.060624
1054.870553	0.062884
1055.036497	0.065515
1055.202424	0.065055
1055.368331	0.064798
1055.534221	0.064771
1055.700093	0.067165
1055.865946	0.066901
1056.031781	0.066775
1056.197598	0.067943
1056.363397	0.066570
1056.529177	0.063905
1056.694939	0.064544
1056.860683	0.064628
1057.026409	0.065079
1057.192116	0.065202
1057.357806	0.065027
1057.523477	0.065213
1057.689130	0.062837
1057.854764	0.061837
1058.020381	0.062933
1058.185979	0.060743
1058.351559	0.059086
1058.517120	0.058947
1058.682664	0.058902
1058.848189	0.057040
1059.013696	0.057029
1059.179185	0.058256
1059.344656	0.056440
1059.510108	0.053636
1059.675542	0.057330
1059.840958	0.056838
1060.006356	0.059516
1060.171735	0.060994
1060.337096	0.064580
1060.502439	0.064130
1060.667764	0.063205
1060.833071	0.062827
1060.998359	0.064870
1061.163629	0.063700
1061.328881	0.064533
1061.494115	0.063315
1061.659330	0.061207
1061.824527	0.060881
1061.989706	0.060463
1062.154867	0.062453
1062.320010	0.064676
1062.485134	0.064549
1062.650240	0.063192
1062.815328	0.064229
1062.980398	0.063515
1063.145449	0.062082
1063.310482	0.059859
1063.475497	0.059441
1063.640494	0.059226
1063.805473	0.059650
1063.970433	0.059988
1064.135375	0.061542
1064.300299	0.060542
1064.465204	0.061234
1064.630092	0.062467
1064.794961	0.062438
1064.959812	0.063313
1065.124645	0.063671
1065.289459	0.063217
1065.454256	0.063241
1065.619034	0.060715
1065.783793	0.060815
1065.948535	0.059654
1066.113258	0.059236
1066.277964	0.060806
1066.442651	0.061993
1066.607319	0.062076
1066.771970	0.061956
1066.936602	0.063741
1067.101216	0.067292
1067.265812	0.067427
1067.430389	0.068715
1067.594949	0.069003
1067.759490	0.067719
1067.924013	0.067215
1068.088518	0.066648
1068.253004	0.067002
1068.417472	0.062506
1068.581922	0.059129
1068.746354	0.060779
1068.910768	0.060060
1069.075163	0.060240
1069.239540	0.060816
1069.403899	0.059462
1069.568240	0.059751
1069.732562	0.058628
1069.896866	0.061496
1070.061152	0.063157
1070.225420	0.061902
1070.389670	0.061673
1070.553901	0.062658
1070.718114	0.064538
1070.882309	0.064621
1071.046486	0.064542
1071.210644	0.065334
1071.374784	0.064261
1071.538906	0.064606
1071.703010	0.065070
1071.867096	0.064954
1072.031163	0.063611
1072.195212	0.061270
1072.359243	0.062418
1072.523256	0.062877
1072.687250	0.063841
1072.851226	0.064603
1073.015184	0.063348
1073.179124	0.063645
1073.343045	0.065535
1073.506949	0.066293
1073.670834	0.069498
1073.834701	0.068654
1073.998549	0.067860
1074.162380	0.067771
1074.326192	0.066404
1074.489986	0.068107
1074.653761	0.067045
1074.817519	0.064836
1074.981258	0.065659
1075.144979	0.064939
1075.308682	0.065158
1075.472367	0.063815
1075.636033	0.062872
1075.799681	0.065450
1075.963311	0.065854
1076.126923	0.067833
1076.290516	0.069175
1076.454092	0.068752
1076.617649	0.068157
1076.781187	0.069713
1076.944708	0.070956
1077.108210	0.070982
1077.271695	0.068708
1077.435160	0.066967
1077.598608	0.067093
1077.762038	0.065876
1077.925449	0.064669
1078.088842	0.066780
1078.252217	0.065242
1078.415573	0.065826
1078.578912	0.067340
1078.742232	0.066244
1078.905534	0.068045
1079.068817	0.065530
1079.232083	0.065374
1079.395330	0.066938
1079.558559	0.063776
1079.721770	0.063590
1079.884962	0.064443
1080.048136	0.063664
1080.211293	0.064055
1080.374430	0.062331
1080.537550	0.063283
1080.700651	0.063960
1080.863735	0.062732
1081.026800	0.064236
1081.189846	0.060850
1081.352875	0.059848
1081.515885	0.060329
1081.678877	0.062505
1081.841851	0.062789
1082.004807	0.061318
1082.167744	0.063048
1082.330663	0.063746
1082.493564	0.062459
1082.656447	0.064608
1082.819312	0.065468
1082.982158	0.062920
1083.144986	0.062020
1083.307796	0.060192
1083.470587	0.062177
1083.633361	0.059621
1083.796116	0.058531
1083.958853	0.059751
1084.121571	0.064712
1084.284272	0.065717
1084.446954	0.068236
1084.609618	0.069157
1084.772264	0.070866
1084.934892	0.069301
1085.097501	0.068649
1085.260092	0.069073
1085.422665	0.069807
1085.585220	0.064847
1085.747756	0.063552
1085.910274	0.062881
1086.072774	0.061959
1086.235256	0.060862
1086.397720	0.062628
1086.560165	0.064280
1086.722592	0.065055
1086.885001	0.063291
1087.047392	0.064357
1087.209764	0.066039
1087.372119	0.067036
1087.534455	0.067438
1087.696772	0.069213
1087.859072	0.066763
1088.021353	0.067228
1088.183616	0.067945
1088.345861	0.071929
1088.508088	0.072327
1088.670296	0.067029
1088.832486	0.063999
1088.994658	0.060750
1089.156812	0.058964
1089.318948	0.062619
1089.481065	0.062119
1089.643164	0.063020
1089.805245	0.058872
1089.967308	0.061016
1090.129352	0.063725
1090.291378	0.065369
1090.453386	0.066123
1090.615376	0.069133
1090.777347	0.067933
1090.939301	0.067838
1091.101236	0.066337
1091.263153	0.065176
1091.425051	0.060782
1091.586932	0.060878
1091.748794	0.060968
1091.910638	0.063764
1092.072463	0.058753
1092.234271	0.057596
1092.396060	0.054921
1092.557831	0.054052
1092.719584	0.056303
1092.881319	0.055003
1093.043035	0.054152
1093.204733	0.056373
1093.366413	0.057002
1093.528075	0.060836
1093.689718	0.060802
1093.851343	0.063524
1094.012950	0.062906
1094.174539	0.063154
1094.336110	0.064467
1094.497662	0.068735
1094.659196	0.065669
1094.820712	0.065564
1094.982210	0.063305
1095.143689	0.059438
1095.305151	0.059415
1095.466594	0.062048
1095.628018	0.059720
1095.789425	0.059703
1095.950813	0.059183
1096.112183	0.061493
1096.273535	0.059017
1096.434869	0.064827
1096.596184	0.068133
1096.757482	0.066851
1096.918761	0.065822
1097.080021	0.068234
1097.241264	0.069817
1097.402488	0.067365
1097.563694	0.064582
1097.724882	0.063997
1097.886052	0.057013
1098.047203	0.059514
1098.208336	0.062553
1098.369451	0.063760
1098.530548	0.061628
1098.691627	0.062996
1098.852687	0.064824
1099.013729	0.066242
1099.174753	0.068257
1099.335758	0.071976
1099.496746	0.073410
1099.657715	0.072108
1099.818666	0.067798
1099.979599	0.064673
1100.140513	0.064631
1100.301409	0.061457
1100.462287	0.060170
1100.623147	0.058194
1100.783989	0.056078
1100.944812	0.051566
1101.105617	0.052775
1101.266404	0.053173
1101.427173	0.055528
1101.587923	0.056063
1101.748656	0.057401
1101.909370	0.056642
1102.070066	0.059664
1102.230743	0.058522
1102.391403	0.055292
1102.552044	0.051767
1102.712667	0.053921
1102.873271	0.050090
1103.033858	0.049983
1103.194426	0.048688
1103.354976	0.051196
1103.515508	0.049954
1103.676021	0.051935
1103.836517	0.056657
1103.996994	0.059388
1104.157453	0.061380
1104.317893	0.064711
1104.478316	0.065387
1104.638720	0.067727
1104.799106	0.069695
1104.959474	0.067371
1105.119823	0.066921
1105.280155	0.067732
1105.440468	0.066645
1105.600763	0.067742
1105.761039	0.072056
1105.921298	0.072195
1106.081538	0.070499
1106.241760	0.065599
1106.401964	0.067352
1106.562149	0.069872
1106.722316	0.069141
1106.882465	0.068581
1107.042596	0.067210
1107.202709	0.063887
1107.362803	0.063038
1107.522879	0.059913
1107.682937	0.061220
1107.842977	0.066050
1108.002999	0.067240
1108.163002	0.067539
1108.322987	0.070454
1108.482954	0.067989
1108.642902	0.068464
1108.802833	0.066463
1108.962745	0.071584
1109.122639	0.070555
1109.282515	0.066262
1109.442372	0.061741
1109.602211	0.060978
1109.762032	0.058036
1109.921835	0.057624
1110.081620	0.059197
1110.241386	0.058934
1110.401134	0.060225
1110.560864	0.060866
1110.720576	0.057805
1110.880269	0.060152
1111.039945	0.059094
1111.199602	0.060433
1111.359240	0.057685
1111.518861	0.056822
1111.678463	0.062704
1111.838047	0.056481
1111.997613	0.054350
1112.157161	0.056763
1112.316690	0.051108
1112.476202	0.052634
1112.635695	0.050232
1112.795169	0.051686
1112.954626	0.052407
1113.114064	0.046257
1113.273484	0.043813
1113.432886	0.047764
1113.592270	0.050274
1113.751635	0.053963
1113.910983	0.052953
1114.070312	0.055447
1114.229622	0.060104
1114.388915	0.065181
1114.548189	0.069098
1114.707445	0.077370
1114.866683	0.074547
1115.025903	0.075540
1115.185104	0.074883
1115.344287	0.075168
1115.503452	0.074615
1115.662599	0.073744
1115.821727	0.068350
1115.980838	0.065902
1116.139930	0.061398
1116.299004	0.055528
1116.458059	0.054040
1116.617097	0.059702
1116.776116	0.060905
1116.935117	0.066096
1117.094099	0.063475
1117.253064	0.063915
1117.412010	0.065225
1117.570938	0.071015
1117.729848	0.077605
1117.888740	0.079029
1118.047613	0.080423
1118.206468	0.079899
1118.365305	0.074430
1118.524124	0.080748
1118.682924	0.082097
1118.841707	0.080552
1119.000471	0.075705
1119.159216	0.079089
1119.317944	0.077621
1119.476653	0.069474
1119.635344	0.071807
1119.794017	0.075417
1119.952672	0.073568
1120.111308	0.071460
1120.269927	0.082873
1120.428527	0.077752
1120.587108	0.075436
1120.745672	0.076313
1120.904217	0.078828
1121.062744	0.077741
1121.221253	0.077618
1121.379744	0.074126
1121.538216	0.074747
1121.696671	0.063191
1121.855107	0.072169
1122.013524	0.078830
1122.171924	0.074113
1122.330305	0.070344
1122.488668	0.067168
1122.647013	0.064091
1122.805340	0.060365
1122.963648	0.059396
1123.121938	0.055756
1123.280210	0.053960
1123.438464	0.047607
1123.596700	0.052731
1123.754917	0.056682
1123.913116	0.058778
1124.071297	0.062453
1124.229459	0.068082
1124.387604	0.067452
1124.545730	0.067384
1124.703838	0.064110
1124.861928	0.068679
1125.019999	0.064841
1125.178052	0.062949
1125.336088	0.064780
1125.494104	0.064823
1125.652103	0.064765
1125.810083	0.069085
1125.968045	0.072658
1126.125989	0.074640
1126.283915	0.065627
1126.441823	0.070150
1126.599712	0.075775
1126.757583	0.075842
1126.915436	0.074343
1127.073270	0.072030
1127.231087	0.059574
1127.388885	0.063472
1127.546665	0.062887
1127.704426	0.071563
1127.862170	0.068999
1128.019895	0.065407
1128.177602	0.064761
1128.335291	0.063010
1128.492961	0.063085
1128.650614	0.076801
1128.808248	0.068924
1128.965864	0.069707
1129.123461	0.070872
1129.281041	0.068872
1129.438602	0.068492
1129.596145	0.060961
1129.753670	0.059060
1129.911176	0.057169
1130.068665	0.058355
1130.226135	0.069854
1130.383587	0.066505
1130.541020	0.066102
1130.698436	0.062510
1130.855833	0.066299
1131.013212	0.069843
1131.170573	0.072881
1131.327915	0.068225
1131.485239	0.059887
1131.642545	0.051947
1131.799833	0.059011
1131.957103	0.062311
1132.114354	0.068737
1132.271588	0.062577
1132.428803	0.064361
1132.585999	0.062155
1132.743178	0.075188
1132.900338	0.077046
1133.057480	0.077627
1133.214604	0.077319
1133.371710	0.062345
1133.528797	0.057292
1133.685866	0.063496
1133.842917	0.065369
1133.999950	0.059655
1134.156964	0.046754
1134.313960	0.050724
1134.470938	0.052583
1134.627898	0.052071
1134.784840	0.056179
1134.941763	0.053669
1135.098668	0.046940
1135.255555	0.050196
1135.412424	0.058085
1135.569274	0.061315
1135.726107	0.054740
1135.882921	0.049210
1136.039716	0.051732
1136.196494	0.056363
1136.353253	0.060188
1136.509995	0.065457
1136.666717	0.052827
1136.823422	0.054133
1136.980109	0.058689
1137.136777	0.067576
1137.293427	0.071688
1137.450059	0.064181
1137.606672	0.057586
1137.763267	0.057796
1137.919844	0.054318
1138.076403	0.062099
1138.232944	0.055358
1138.389466	0.063810
1138.545971	0.062415
1138.702457	0.063871
1138.858924	0.072440
1139.015374	0.067943
1139.171805	0.069641
1139.328218	0.069377
1139.484613	0.062887
1139.640990	0.071154
1139.797348	0.055842
1139.953688	0.056282
1140.110010	0.054116
1140.266314	0.050202
1140.422600	0.053024
1140.578867	0.051767
1140.735116	0.050220
1140.891347	0.056225
1141.047559	0.053635
1141.203754	0.059037
1141.359930	0.066364
1141.516088	0.071183
1141.672228	0.066614
1141.828349	0.072492
1141.984452	0.073385
1142.140537	0.072706
1142.296604	0.077336
1142.452653	0.078377
1142.608683	0.076362
1142.764695	0.058991
1142.920689	0.050116
1143.076665	0.054130
1143.232622	0.056473
1143.388562	0.051783
1143.544483	0.060512
1143.700385	0.059683
1143.856270	0.050790
1144.012136	0.055629
1144.167985	0.067678
1144.323814	0.072766
1144.479626	0.065834
1144.635420	0.063713
1144.791195	0.069165
1144.946952	0.075901
1145.102691	0.073999
1145.258411	0.094943
1145.414113	0.083927
1145.569798	0.077097
1145.725463	0.080287
1145.881111	0.077344
1146.036741	0.082194
1146.192352	0.083089
1146.347945	0.074614
1146.503519	0.079517
1146.659076	0.061000
1146.814614	0.067522
1146.970134	0.072726
1147.125636	0.061016
1147.281120	0.069938
1147.436585	0.074319
1147.592032	0.069737
1147.747461	0.066343
1147.902872	0.065928
1148.058265	0.070936
1148.213639	0.072289
1148.368995	0.069129
1148.524333	0.081815
1148.679653	0.082146
1148.834954	0.073271
1148.990237	0.073833
1149.145502	0.072412
1149.300749	0.068262
1149.455977	0.077490
1149.611188	0.094299
1149.766380	0.080704
1149.921553	0.081459
1150.076709	0.071223
1150.231846	0.077307
1150.386966	0.086607
1150.542066	0.086937
1150.697149	0.089624
1150.852214	0.077256
1151.007260	0.056339
1151.162288	0.066763
1151.317298	0.068132
1151.472289	0.073186
1151.627263	0.073923
1151.782218	0.069018
1151.937155	0.073231
1152.092073	0.071196
1152.246974	0.073858
1152.401856	0.084076
1152.556720	0.073927
1152.711566	0.066858
1152.866393	0.068123
1153.021203	0.055511
1153.175994	0.063414
1153.330767	0.068681
1153.485521	0.067151
1153.640258	0.057025
1153.794976	0.050219
1153.949676	0.068183
1154.104358	0.078147
1154.259021	0.079663
1154.413667	0.084513
1154.568294	0.087846
1154.722903	0.085398
1154.877493	0.081588
1155.032066	0.080505
1155.186620	0.101124
1155.341156	0.090392
1155.495674	0.078620
1155.650173	0.080918
1155.804654	0.076318
1155.959118	0.071049
1156.113562	0.062342
1156.267989	0.069544
1156.422397	0.077323
1156.576788	0.063159
1156.731160	0.054941
1156.885513	0.050489
1157.039849	0.041125
1157.194166	0.053438
1157.348465	0.047688
1157.502746	0.060441
1157.657009	0.057503
1157.811253	0.079905
1157.965479	0.089984
1158.119687	0.096963
1158.273877	0.102082
1158.428048	0.120659
1158.582201	0.117409
1158.736337	0.115766
1158.890453	0.110327
1159.044552	0.108220
1159.198632	0.080828
1159.352694	0.070314
1159.506738	0.076333
1159.660764	0.083020
1159.814771	0.088283
1159.968761	0.089578
1160.122732	0.093226
1160.276685	0.081982
1160.430619	0.088650
1160.584535	0.100530
1160.738434	0.104525
1160.892313	0.102739
1161.046175	0.090314
1161.200019	0.091289
1161.353844	0.076020
1161.507651	0.081933
1161.661440	0.096092
1161.815210	0.092743
1161.968962	0.088193
1162.122697	0.077463
1162.276412	0.076502
1162.430110	0.095243
1162.583789	0.080165
1162.737451	0.100499
1162.891094	0.101163
1163.044718	0.108851
1163.198325	0.106092
1163.351913	0.092667
1163.505483	0.098943
1163.659035	0.098525
1163.812569	0.085706
1163.966084	0.074390
1164.119581	0.062153
1164.273060	0.049130
1164.426521	0.042426
1164.579964	0.034267
1164.733388	0.050032
1164.886794	0.049683
1165.040182	0.058607
1165.193551	0.065373
1165.346903	0.074069
1165.500236	0.079309
1165.653551	0.082633
1165.806848	0.077589
1165.960126	0.096915
1166.113386	0.092189
1166.266628	0.102859
1166.419852	0.109957
1166.573058	0.110235
1166.726245	0.111733
1166.879414	0.099133
1167.032565	0.099356
1167.185698	0.095817
1167.338812	0.073783
1167.491909	0.066407
1167.644987	0.048277
1167.798046	0.033721
1167.951088	0.031085
1168.104111	0.030802
1168.257117	0.053736
1168.410103	0.025704
1168.563072	0.040980
1168.716023	0.041115
1168.868955	0.054371
1169.021869	0.070487
1169.174765	0.088632
1169.327642	0.081927
1169.480501	0.077907
1169.633343	0.057243
1169.786165	0.096822
1169.938970	0.070513
1170.091757	0.087866
1170.244525	0.085188
1170.397275	0.085845
1170.550007	0.084979
1170.702720	0.079534
1170.855415	0.084013
1171.008092	0.085219
1171.160751	0.073133
1171.313392	0.077761
1171.466014	0.057804
1171.618619	0.040159
1171.771205	0.040159
1171.923772	0.040159
