sample name	sample
index	848
start time	 04-08-2021  10:35:43 AM
880	0.401753
Peak Time (s)	102.035
Peak Height 	0.4018
calc peak height	100,103
Baseline Time (s)	9.036
Baseline Value 	-0.00199
subtract baseline	10,4
Abs	0.301536
Peak Time (s)	101.037
Peak Height 	0.3015
calc peak height	100,103
Baseline Time (s)	11.037
Baseline Value 	0.001356
subtract baseline	10,3
PK_550	0.167705
Peak Time (s)	102.541
Peak Height 	0.1677
calc peak height	100,103
Baseline Time (s)	11.037
Baseline Value 	2.1682E-4
subtract baseline	10,2
PK_880	0.290144
Peak Time (s)	102.541
Peak Height 	0.2901
calc peak height	100,103
Baseline Time (s)	8.536
Baseline Value 	7.6638E-4
subtract baseline	10,1


Time (s)	A880-A510	A880-A775	A880-A975	A880	I510	I775	I975	I880	
0.099500	-0.001721	0.000003	0.001177	0.003982	6813.151663	42310.165045	3814.363434	22493.579071
0.537000	-0.003792	-0.000700	-0.001725	0.004472	6788.965040	42201.631373	3805.459251	22471.281538
1.037500	-0.004116	-0.001013	-0.004619	0.002949	6800.267075	42311.768492	3801.877530	22540.776299
1.535000	-0.002692	-0.000563	0.000030	0.006091	6784.070886	42067.104101	3805.814026	22397.643195
2.035500	-0.000940	0.000007	0.001785	0.000412	6854.577142	42637.380970	3825.430167	22657.089392
2.546500	-0.000317	0.000202	-0.001490	0.000461	6860.088655	42650.849683	3816.619970	22654.868483
3.035500	0.000838	-0.000193	0.002684	-0.000215	6877.662797	42676.659572	3829.499571	22685.954706
3.536000	-0.001509	0.000362	-0.002190	0.003261	6822.005114	42408.831092	3807.411946	22526.511822
4.035500	-0.001387	-0.000078	-0.001723	0.000415	6850.283696	42629.268460	3816.125075	22656.981251
4.575500	-0.000326	0.000101	-0.000889	0.000760	6857.122320	42614.031046	3817.414265	22641.085895
5.036500	-0.000879	0.000012	-0.006865	0.000899	6850.511617	42593.068927	3801.366780	22634.710672
5.533500	0.000742	-0.000126	-0.001348	0.000502	6869.848307	42616.857538	3816.885028	22652.975175
6.038000	-0.001020	-0.000349	-0.004840	0.000209	6855.768479	42623.315604	3808.467185	22666.458727
6.535000	-0.001217	-0.001070	-0.002804	-0.000387	6859.591853	42611.870953	3815.389978	22693.900411
7.035500	-0.000433	0.000086	-0.001040	0.000463	6858.951816	42639.966291	3817.803383	22654.764764
7.535500	-0.001004	0.000420	0.001821	0.000656	6851.638624	42652.889675	3824.878242	22645.881771
8.035500	0.001892	0.000702	-0.000469	0.000415	6881.743490	42701.003692	3819.441049	22656.959025
8.535500	0.000000	-0.000301	-0.001500	0.000070	6866.867149	42640.450773	3817.625324	22672.816208
9.036000	-0.001803	0.000104	0.005117	0.000000	6850.275049	42684.219667	3835.438649	22676.060132
9.536500	-0.001137	-0.000589	-0.005795	-0.000585	6862.248397	42674.302310	3808.043141	22703.024227
10.037000	-0.001261	0.000190	0.000031	0.000104	6854.460489	42682.469276	3821.589310	22671.258903
10.537000	0.000003	0.000723	-0.004406	0.000480	6862.966796	42696.983070	3808.893260	22653.998244
11.037500	0.000811	0.000000	0.000000	-0.000423	6879.401727	42713.501976	3822.904959	22695.519924
11.535000	0.001067	-0.000225	0.003466	-0.000417	6881.821901	42692.306523	3832.132434	22695.285235
12.035000	-0.000461	0.000712	-0.001921	0.000783	6855.617585	42668.115333	3814.630833	22640.061955
12.535500	-0.000061	0.000567	-0.000103	0.000512	6862.048046	42679.680211	3820.154285	22652.524417
13.036000	-0.000641	0.000046	0.003511	-0.000115	6862.493760	42689.425905	3831.444452	22681.358685
13.536000	0.000101	0.000477	0.005982	-0.001071	6878.811197	42817.342364	3840.650444	22725.438988
14.069000	-0.000316	0.000367	0.003260	0.001538	6849.786548	42567.095614	3826.362413	22605.403322
14.536500	-0.001268	0.000898	-0.000796	0.002947	6827.273982	42486.493234	3811.894653	22540.848192
15.039500	-0.000378	0.000216	0.003154	0.002263	6842.270485	42486.790252	3824.149910	22572.166455
15.546000	-0.000226	0.000481	0.003197	-0.000902	6874.044714	42802.063714	3832.709904	22717.640645
16.037500	-0.000296	0.000508	0.002332	0.002439	6841.370806	42497.380617	3821.499454	22564.093356
16.535000	0.000541	0.000884	0.000718	-0.000682	6879.295054	42818.914299	3825.502448	22707.471802
17.035500	0.002524	-0.000004	0.004996	-0.001236	6903.793741	42788.046450	3838.436289	22733.012808
17.536000	0.000474	0.000293	0.001199	-0.000759	6879.393180	42771.469464	3826.988409	22711.011234
18.036000	0.000906	0.000130	-0.000472	0.002237	6854.787919	42481.243105	3814.618508	22573.365684
18.536000	0.000063	0.000643	-0.000972	0.001477	6853.991553	42597.894999	3815.303651	22608.166624
19.036500	-0.001427	-0.000449	0.000995	0.000818	6846.042178	42558.204827	3822.253555	22638.431917
19.539500	0.000340	0.000040	0.005941	0.001166	6859.622881	42571.112226	3834.521430	22622.448301
20.036500	0.000223	0.000138	0.000715	0.001231	6857.872636	42574.160789	3820.413179	22619.456694
20.534500	-0.000933	0.000309	0.000236	0.001844	6840.967979	42533.622924	3817.523969	22591.363040
21.035000	-0.001361	0.000334	-0.002996	0.000932	6845.592018	42619.653285	3811.408932	22633.211451
21.534500	-0.001125	-0.000647	-0.002826	0.001081	6846.417386	42515.975551	3811.462949	22626.352949
22.035500	0.000271	0.001524	0.000774	0.002587	6845.372150	42576.900085	3816.981580	22557.324222
22.536000	-0.001484	-0.000452	0.000015	0.001005	6843.711779	42540.800564	3819.160499	22629.844438
23.036000	-0.001393	-0.000347	0.001453	0.001156	6843.149115	42536.566110	3822.573094	22622.922552
23.536500	-0.000928	0.000071	-0.000321	0.001501	6844.292476	42543.261867	3816.960390	22607.103420
24.036500	-0.002300	0.000031	0.001686	0.001393	6832.240816	42549.490611	3822.559203	22612.029845
24.533500	-0.000193	0.000463	0.000465	0.001949	6847.026444	42538.119075	3817.851323	22586.530977
25.045500	-0.000168	-0.000169	0.000904	0.001778	6848.907028	42495.884177	3819.466216	22594.389092
25.537500	-0.000352	0.000380	0.000787	0.001755	6847.357480	42548.249055	3819.216323	22595.418179
26.047000	0.000204	0.000448	0.000733	0.001881	6851.472315	42542.908929	3818.741189	22589.639783
26.535500	-0.000949	0.000761	0.001539	0.001935	6839.950511	42566.830402	3820.735197	22587.206648
27.038500	0.000499	0.000582	0.003756	0.001536	6857.599210	42586.943016	3827.687598	22605.462162
27.536000	-0.001083	0.000646	0.002275	0.001298	6844.755829	42614.677193	3824.377923	22616.414969
28.039000	0.001466	0.000916	0.001002	-0.000308	6884.609724	42787.447344	3825.265552	22690.264837
28.536500	-0.000985	-0.000060	0.004234	-0.001273	6870.311659	42786.367746	3836.486451	22734.737600
29.037000	0.001337	0.000041	-0.001094	-0.001357	6893.486693	42803.458109	3822.480312	22738.626696
29.537000	0.000671	0.000878	-0.003084	-0.000733	6881.043422	42823.097868	3815.562477	22709.825156
30.034500	-0.000726	0.000439	-0.001328	0.002653	6835.231065	42471.432261	3811.268881	22554.313994
30.535000	0.001773	0.000437	-0.001470	-0.001263	6896.794787	42831.328042	3821.234087	22734.293371
31.035000	0.001182	0.000326	0.002210	-0.000937	6887.936741	42790.958562	3830.163368	22719.254591
31.535500	0.000859	0.001325	-0.001574	0.003528	6841.996861	42472.445428	3808.327512	22514.324178
32.035500	0.000202	-0.000403	0.003083	0.002160	6848.793438	42439.556209	3824.235635	22576.883250
32.536000	-0.000897	-0.000122	-0.001223	-0.000978	6868.327218	42753.476805	3821.134987	22721.146151
33.039000	0.001667	0.000453	0.000575	-0.000772	6891.030599	42787.530767	3825.362999	22711.649183
33.539500	0.000870	0.000461	0.000648	0.000150	6874.458263	42703.177664	3823.106171	22669.147724
34.040000	0.001790	0.000376	0.005683	0.001426	6871.040928	42578.124868	3833.132451	22610.519679
34.536500	0.001074	0.000916	0.004992	-0.001581	6893.114154	42904.993677	3839.357036	22748.980447
35.037500	0.002224	0.000648	0.001044	0.002135	6868.397477	42538.055537	3818.893703	22578.043941
35.535500	-0.001903	0.000421	-0.000992	0.001628	6833.783200	42563.765084	3814.851875	22601.258936
36.035000	-0.001720	-0.000179	0.004567	0.001231	6839.315020	42545.112912	3830.669608	22619.486382
36.535500	-0.000724	0.000697	-0.000730	0.001814	6843.248525	42572.049659	3815.055032	22592.747017
37.036000	0.000094	-0.000260	-0.002554	0.001436	6854.672846	42518.847892	3811.245212	22610.048674
37.538500	0.000863	0.001124	-0.000240	0.002671	6850.227667	42532.564457	3814.085897	22553.507055
38.039000	-0.000952	0.001200	0.001319	0.002393	6835.558446	42565.072705	3818.937357	22566.219787
38.536500	-0.000406	0.000469	0.000761	0.002227	6842.342621	42513.179583	3817.900296	22573.797639
39.037000	-0.000082	0.000617	0.000303	0.002107	6846.583299	42537.763244	3817.006833	22579.309642
39.537000	0.000062	0.000322	0.000832	0.001919	6849.749442	42528.002023	3818.903773	22587.919322
40.035000	-0.001203	0.000327	0.000573	0.001978	6837.123014	42523.054679	3818.060935	22585.220818
40.535000	-0.002121	-0.000050	0.000635	0.001616	6831.822327	42521.639208	3819.184547	22601.819607
41.035500	0.000564	0.000389	0.001606	0.001979	6853.985229	42528.593988	3820.794860	22585.177199
41.535500	0.000529	0.000273	0.006115	0.002292	6850.648874	42489.275945	3831.969782	22570.822575
42.035000	-0.002824	-0.000118	0.000269	0.001372	6827.456497	42537.806292	3818.860653	22613.021905
42.539000	0.000061	0.000465	0.000372	0.001956	6849.389897	42537.691081	3817.589485	22586.222653
43.036500	0.000053	0.001398	0.000515	0.002562	6843.524768	42567.690235	3816.366171	22558.482178
43.537000	-0.002456	0.000066	0.001317	0.001768	6827.183664	42518.281579	3820.586143	22594.834947
44.037000	-0.001676	0.000186	0.004860	0.001757	6834.717761	42530.335755	3830.046539	22595.343460
44.537000	-0.001284	0.000127	0.002077	0.001594	6840.002637	42539.860915	3823.066940	22602.823100
45.035000	0.003528	0.001289	0.006417	-0.001807	6919.072020	42960.422939	3843.811203	22759.396167
45.535500	0.001826	0.001179	0.001549	-0.000124	6886.298357	42794.623646	3826.229351	22681.755208
46.035500	-0.000289	-0.000019	0.002272	0.001270	6852.602583	42556.155972	3824.444197	22617.679318
46.535500	0.001501	0.001127	0.002134	-0.000205	6883.950171	42797.326210	3828.006242	22685.498412
47.036000	-0.000371	0.000278	0.001473	-0.001172	6875.249441	42808.235401	3828.824051	22730.103260
47.536500	0.001389	-0.000029	0.007920	-0.001163	6892.119216	42779.094085	3846.136249	22729.664593
48.036500	0.000057	0.000751	0.002260	0.002421	6844.910724	42521.260250	3821.356029	22564.924544
48.537000	-0.001553	0.000561	0.000517	0.002970	6824.346581	42453.538279	3815.293426	22539.803402
49.034500	0.000302	0.000573	0.000657	0.001199	6858.946035	42617.047217	3820.347595	22620.957084
49.537500	0.000301	0.000594	0.005650	-0.000426	6874.526398	42768.490224	3838.014948	22695.660671
50.035000	0.001206	0.000478	0.000046	0.002506	6855.086840	42488.482415	3815.274422	22561.050523
50.535500	0.000406	0.000255	-0.002056	-0.001685	6887.667020	42853.494638	3820.799215	22753.768142
51.035500	0.000968	0.000308	0.002327	0.000241	6874.526150	42680.818111	3827.331772	22664.968503
51.536000	0.000668	-0.000368	0.001354	-0.002711	6900.109550	42890.758828	3832.617570	22801.237056
52.036000	0.007286	0.004149	-0.004126	-0.008335	7020.236962	43839.792519	3833.006309	23063.449496
52.536500	-0.069832	-0.021884	0.041391	0.303595	4462.852373	21604.298277	3299.531653	12621.655342
53.036500	-0.070334	-0.015641	0.007805	0.118218	5399.190662	32077.072671	3563.111304	17912.125347
53.537000	-0.045733	-0.031871	-0.008764	-0.189705	8506.326052	60184.186426	4417.324002	33626.479167
54.037500	-0.050159	-0.127614	-0.027824	-0.324114	10532.808820	65535.000000	4949.031991	44849.866124
54.534500	-0.018565	-0.145508	0.000289	-0.342008	11478.395878	65535.000000	5203.764488	46623.435343
55.035000	-0.015757	-0.081506	0.001113	-0.277908	10322.730801	65520.750740	4860.166611	40594.206507
55.535500	-0.013356	-0.048863	0.000397	-0.233890	9626.020886	63897.204866	4645.755442	36940.188444
56.035500	-0.005116	-0.029219	0.005762	-0.202336	9263.930749	62242.438956	4530.104007	34539.624544
56.539000	0.010163	-0.018824	0.013071	-0.186495	9255.444402	61500.725266	4493.908821	33398.656829
57.036000	0.028778	-0.004589	0.020978	-0.159967	9137.045891	59860.123160	4417.340079	31578.706982
57.536000	0.044034	0.007161	0.037907	-0.126517	8872.869323	57075.247008	4352.098636	29436.778965
58.036500	0.056509	0.017295	0.044974	-0.088482	8519.974198	53693.196734	4236.298974	27193.584462
58.537000	0.066249	0.026016	0.053881	-0.051008	8159.815931	50427.729159	4136.555145	25167.454770
59.037500	0.076937	0.033243	0.069546	-0.017117	7875.697865	47586.847728	4076.262006	23479.725859
59.535000	0.086280	0.038963	0.082496	-0.000639	7791.331797	46489.110874	4064.882723	22705.505304
60.035000	0.097497	0.047886	0.095059	0.019906	7683.100903	45333.415194	4039.471154	21780.457716
60.535500	0.105140	0.054443	0.113292	0.065302	7268.074303	41687.932926	3956.408639	19885.192057
61.039000	0.110235	0.060330	0.122654	0.112686	6844.082342	38137.061054	3848.535315	18107.317368
61.536000	0.122241	0.067670	0.139301	0.140087	6699.697406	36538.321774	3819.699807	17164.335863
62.036000	0.133606	0.075586	0.154301	0.153594	6680.002604	36105.750709	3823.659817	16720.922979
62.536500	0.139733	0.079533	0.159715	0.169427	6592.011488	35204.509280	3796.303746	16218.459239
63.036500	0.145970	0.086861	0.168618	0.194811	6424.076458	33881.620736	3754.343702	15450.101253
63.537000	0.152934	0.090742	0.173906	0.201691	6424.793918	33667.211938	3750.372795	15249.477510
64.038000	0.156757	0.092724	0.169799	0.207006	6412.016941	33430.602872	3727.177189	15096.635677
64.540000	0.162368	0.094918	0.175218	0.209914	6435.204723	33380.136884	3733.309284	15013.816037
65.043000	0.163302	0.096779	0.176217	0.220477	6353.254037	32771.925050	3710.137950	14717.558493
65.536000	0.172124	0.100128	0.185174	0.222990	6406.744121	32829.838650	3725.695049	14648.132914
66.035500	0.174974	0.100261	0.186480	0.229991	6371.467079	32357.442867	3711.935790	14456.833298
66.542000	0.179359	0.103434	0.192463	0.234794	6367.935808	32246.403782	3714.772206	14327.364560
67.039500	0.181974	0.106345	0.194301	0.242218	6327.518656	31941.210019	3701.412049	14130.031550
67.537000	0.186316	0.108346	0.197509	0.248146	6314.296164	31678.192687	3694.970863	13974.873354
68.037000	0.187683	0.108213	0.196064	0.255085	6268.195361	31210.412862	3675.363966	13795.916212
68.537000	0.192817	0.110973	0.202478	0.259052	6277.800957	31131.353725	3681.046317	13694.882569
69.034500	0.193928	0.111546	0.202218	0.262754	6256.515746	30927.445369	3671.862633	13601.450996
69.535000	0.196180	0.113217	0.207231	0.267511	6236.045182	30727.746968	3672.454150	13482.528139
70.038000	0.196082	0.114713	0.206833	0.274992	6174.840363	30344.395282	3654.421436	13298.110427
70.535500	0.199608	0.116412	0.213136	0.278115	6178.066587	30253.940164	3661.660376	13222.068826
71.036000	0.199333	0.117125	0.217540	0.288085	6096.944233	29673.339185	3649.025779	12982.925158
71.536500	0.207599	0.119541	0.212776	0.288683	6157.480062	29786.341468	3637.004646	12968.752310
72.036500	0.207412	0.120547	0.218963	0.293654	6116.649707	29540.394431	3639.720618	12851.727175
72.537500	0.211205	0.123246	0.226903	0.299486	6100.637465	29347.637810	3644.440289	12716.110319
73.037000	0.210140	0.123449	0.224061	0.309921	6011.721274	28727.671015	3615.087128	12477.962018
73.535000	0.216634	0.125179	0.225168	0.308995	6068.815013	28887.176104	3619.521447	12498.854608
74.036000	0.218245	0.125518	0.229966	0.312785	6051.952501	28680.087824	3621.732074	12413.600426
74.535500	0.218940	0.126962	0.235843	0.317435	6021.551234	28489.163882	3624.423550	12309.975067
75.038500	0.220645	0.129173	0.234738	0.328896	5947.727299	27946.086756	3597.190403	12059.295566
75.536000	0.224732	0.129722	0.239038	0.326656	5995.414459	28108.631820	3611.267307	12107.779643
76.036000	0.221683	0.129320	0.237833	0.332261	5930.361265	27759.879681	3596.613982	11986.937159
76.536500	0.227800	0.132700	0.247598	0.334505	5959.311259	27825.448884	3612.807905	11938.999799
77.036500	0.225772	0.131794	0.239267	0.341824	5889.885812	27354.497942	3579.422366	11784.361671
77.537000	0.232451	0.133170	0.242601	0.340294	5950.778864	27519.850820	3589.671049	11816.465250
78.037500	0.231422	0.134895	0.246514	0.345648	5903.329012	27313.555283	3586.622921	11704.588415
78.535000	0.235164	0.137134	0.250266	0.348102	5912.849428	27301.404207	3589.367966	11653.774745
79.035500	0.232919	0.136662	0.255497	0.356011	5838.566982	26831.564101	3583.713191	11491.915970
79.538500	0.239151	0.137428	0.258314	0.352123	5912.601842	27091.322589	3597.936241	11571.115167
80.036000	0.239770	0.138425	0.255981	0.356918	5881.836484	26879.117208	3582.823842	11473.538392
80.536000	0.245269	0.140134	0.264306	0.357974	5914.573536	26915.454767	3598.238342	11452.193899
81.036500	0.241278	0.142110	0.260769	0.365999	5826.801348	26580.795130	3573.838960	11291.673802
81.536500	0.245900	0.142400	0.265154	0.362073	5888.991865	26813.565711	3591.311418	11369.836931
82.036000	0.245907	0.142379	0.266083	0.365090	5866.952978	26645.609933	3586.890096	11309.707290
82.537000	0.251612	0.144982	0.266011	0.366173	5900.854192	26729.524293	3584.454296	11288.224968
83.037500	0.248136	0.144822	0.267193	0.372829	5827.008023	26355.646589	3572.994401	11157.376675
83.535000	0.251703	0.146720	0.268695	0.368370	5885.368002	26704.204818	3585.482629	11244.830265
84.038000	0.251216	0.146511	0.263378	0.371541	5858.635707	26518.229483	3567.752928	11182.543451
84.536000	0.256060	0.149084	0.267504	0.371987	5890.802339	26635.019714	3575.395859	11173.819496
85.035500	0.251467	0.148588	0.272510	0.377543	5817.059384	26304.135373	3574.250162	11065.916795
85.535500	0.255988	0.149354	0.275091	0.372320	5887.827703	26631.614587	3590.654764	11167.318863
86.042000	0.258663	0.150642	0.278008	0.376064	5879.984111	26496.807106	3588.901921	11094.517337
86.536500	0.259578	0.152966	0.277932	0.375497	5890.855601	26655.514454	3589.941150	11105.488375
87.037000	0.259041	0.151858	0.271935	0.382095	5838.834282	26234.603062	3563.631900	10978.525444
87.537500	0.263603	0.151222	0.275782	0.375282	5922.181350	26571.458369	3585.851158	11109.667053
88.034500	0.264145	0.154332	0.281096	0.377444	5910.177715	26623.570230	3592.524283	11067.826104
88.535500	0.268914	0.154445	0.282709	0.378231	5939.767251	26586.500902	3594.283289	11052.654727
89.035500	0.267869	0.154777	0.279744	0.378001	5933.687097	26617.400886	3588.478324	11057.094208
89.535500	0.267809	0.156428	0.286850	0.380000	5918.382878	26598.218125	3599.346168	11018.632094
90.036000	0.268802	0.155743	0.284169	0.379975	5925.940790	26561.975726	3593.678329	11019.117686
90.536000	0.270635	0.157111	0.280076	0.381330	5929.500570	26562.728167	3582.157273	10993.162676
91.036500	0.274506	0.158081	0.286059	0.382407	5950.348763	26556.855475	3592.525643	10972.585543
91.537000	0.275711	0.159437	0.283816	0.384481	5943.848982	26517.484019	3583.395752	10933.098191
92.037000	0.273892	0.158587	0.286161	0.386398	5916.046155	26366.363921	3584.296067	10896.770268
92.537500	0.274391	0.158156	0.287591	0.383722	5939.660825	26488.890228	3592.987626	10947.528710
93.038000	0.277399	0.160425	0.285770	0.386171	5943.836186	26479.034817	3583.952411	10901.068338
93.535000	0.275832	0.160245	0.284020	0.386755	5927.800524	26437.281965	3579.049258	10890.016746
94.035500	0.276467	0.161293	0.289282	0.390945	5901.471106	26266.278247	3581.296171	10811.231219
94.536000	0.276894	0.160445	0.294032	0.388190	5925.026091	26369.926007	3597.191521	10862.960335
95.036000	0.279251	0.161185	0.293542	0.389506	5932.771805	26338.594129	3593.341575	10838.211436
95.536500	0.279667	0.161462	0.289544	0.390017	5932.061707	26325.842902	3583.799140	10828.615386
96.036500	0.279977	0.162415	0.293467	0.390886	5927.897612	26330.407974	3590.251445	10812.334879
96.537000	0.281455	0.163005	0.290997	0.392108	5929.807397	26296.101270	3582.456896	10789.506509
97.037500	0.276901	0.162421	0.285047	0.398350	5850.462462	25928.451009	3557.184396	10673.851367
97.537500	0.281937	0.163190	0.288269	0.393093	5926.066189	26252.713678	3574.685636	10771.146466
98.038000	0.284338	0.164300	0.298395	0.397088	5914.243586	26096.895005	3587.555993	10697.109408
98.535500	0.284241	0.164167	0.291857	0.394949	5929.394787	26205.120746	3578.303420	10736.661374
99.036000	0.283552	0.164941	0.297730	0.402657	5867.529525	25833.154493	3574.471497	10595.022795
99.536000	0.286261	0.166503	0.301142	0.397917	5922.351810	26170.997991	3591.617582	10681.823757
100.036000	0.287923	0.167062	0.299865	0.398730	5928.656032	26157.243009	3587.191302	10666.863308
100.536500	0.288055	0.165958	0.296424	0.397877	5935.998473	26143.763475	3581.739150	10682.568915
101.037000	0.286354	0.165494	0.301536	0.398414	5919.351037	26089.810951	3591.398503	10672.677532
101.537500	0.289624	0.167261	0.299031	0.400179	5930.536715	26089.915212	3582.379744	10640.276635
102.034500	0.289559	0.167119	0.294436	0.401753	5918.358816	25997.776043	3569.504120	10611.504484
102.540500	0.290144	0.167705	0.293316	0.400816	5929.664063	26079.490961	3569.124246	10628.617744
103.038000	0.290813	0.169067	0.302376	0.402865	5919.418529	26042.634276	3583.766829	10591.236217
103.535000	0.292238	0.169838	0.297648	0.403846	5922.708242	26031.339114	3571.826240	10573.396389
104.036000	0.290897	0.169349	0.299896	0.403333	5916.573046	26032.638623	3577.582438	10582.722946
104.536000	0.292971	0.170853	0.302532	0.405268	5917.595703	26009.489897	3579.048208	10547.600837
105.036500	0.287914	0.169615	0.301961	0.410974	5838.791148	25640.071264	3565.997003	10444.972112
105.536500	0.292519	0.169521	0.302236	0.405528	5912.321054	25924.256710	3577.884023	10542.900378
106.034500	0.292417	0.168405	0.294913	0.406738	5902.623607	25800.301950	3560.209011	10521.028063
106.534500	0.292715	0.171857	0.307483	0.408490	5891.921786	25890.868213	3582.676957	10489.495833
107.038000	0.291330	0.170398	0.296348	0.411792	5857.637212	25638.239574	3552.820551	10430.376872
