sample name	sample
index	864
start time	 04-08-2021  12:39:11 PM
880	0.463773
Peak Time (s)	101.535
Peak Height 	0.4638
calc peak height	100,103
Baseline Time (s)	10.034
Baseline Value 	-0.003841
subtract baseline	10,4
Abs	0.353001
Peak Time (s)	100.535
Peak Height 	0.353
calc peak height	100,103
Baseline Time (s)	10.034
Baseline Value 	0.004313
subtract baseline	10,3
PK_550	0.181731
Peak Time (s)	102.036
Peak Height 	0.1817
calc peak height	100,103
Baseline Time (s)	11.536
Baseline Value 	9.7006E-4
subtract baseline	10,2
PK_880	0.327267
Peak Time (s)	102.036
Peak Height 	0.3273
calc peak height	100,103
Baseline Time (s)	11.036
Baseline Value 	0.002651
subtract baseline	10,1


Time (s)	A880-A510	A880-A775	A880-A975	A880	I510	I775	I975	I880	
0.035000	-0.004149	-0.000461	-0.003504	0.008384	6797.742896	42024.011347	3884.460332	22484.151621
0.535500	-0.003209	0.000200	-0.001562	0.006125	6828.046236	42289.216677	3896.270716	22587.429758
1.035500	-0.004030	-0.000934	-0.008069	0.004230	6838.272501	42358.620337	3883.312604	22674.454939
1.535500	-0.002442	0.000110	-0.004051	0.002938	6865.815193	42572.412595	3898.243397	22733.997887
2.035500	-0.005736	-0.001058	-0.007228	0.006776	6797.937071	42115.652704	3878.557231	22557.603461
2.536500	-0.000322	-0.000079	-0.002177	0.002609	6889.386829	42585.200938	3904.491651	22749.186495
3.039000	-0.000507	-0.000181	-0.001692	-0.000410	6916.829222	42853.848839	3914.496828	22889.164203
3.536500	-0.001257	-0.000514	-0.002022	0.000727	6898.539152	42718.325649	3910.298492	22836.346410
4.037000	-0.004093	-0.000554	-0.004894	0.003750	6842.250820	42437.141799	3893.570306	22696.555748
4.537500	-0.003142	-0.000901	-0.001925	-0.000121	6888.517191	42760.800637	3913.000641	22875.726102
5.035000	0.000207	-0.000376	-0.001557	0.000523	6914.699175	42749.809506	3912.210770	22845.793382
5.535000	-0.001461	-0.000298	-0.001476	0.000310	6900.594445	42776.544323	3913.053161	22855.676280
6.035500	-0.001619	-0.000643	-0.005993	-0.000083	6902.866888	42781.021265	3901.297912	22873.933481
6.536000	-0.000723	-0.000149	-0.000831	0.000293	6907.911491	42791.933496	3914.950479	22856.502083
7.036000	-0.003577	-0.001447	-0.004818	-0.000700	6889.901814	42763.755523	3906.393101	22902.641468
7.539500	-0.003326	-0.000419	-0.004146	-0.000173	6887.241366	42810.019594	3906.806559	22878.129909
8.037000	-0.001483	-0.000117	-0.001405	0.000048	6902.916445	42817.509083	3914.006889	22867.849130
8.534500	-0.001514	-0.001174	-0.000681	-0.000359	6906.560763	42757.472598	3917.250738	22886.780314
9.037000	0.000127	-0.000156	-0.002404	0.000207	6916.990442	42799.176743	3910.690984	22860.463944
9.537500	0.000177	0.000111	0.001202	0.000352	6916.060723	42810.404082	3920.623587	22853.726575
10.034500	-0.001406	-0.000667	0.000000	0.000000	6904.128632	42771.185392	3918.177424	22870.097449
10.535000	-0.000205	0.000070	0.001076	0.000205	6913.787193	42820.305013	3920.686400	22860.590462
11.036000	0.000000	0.000090	0.003040	-0.000151	6919.237094	42855.047274	3927.388151	22877.132915
11.536000	0.000927	0.000000	-0.000790	-0.000604	6932.668436	42888.564714	3917.641801	22898.192303
12.036500	-0.000761	-0.001517	-0.005225	-0.000778	6917.928066	42764.506187	3905.457326	22906.276470
12.536500	-0.001296	0.000321	-0.003596	0.000074	6904.475578	42855.493797	3907.669158	22866.635495
13.036500	-0.001268	-0.000131	-0.002595	0.001013	6895.663185	42727.281969	3907.847975	22823.091652
13.538000	-0.000104	-0.000553	0.000259	0.001090	6906.184863	42681.282945	3915.791286	22819.517744
14.037500	-0.002717	-0.000683	-0.004900	0.002777	6864.718869	42514.377706	3896.297467	22741.426477
14.540000	-0.002835	-0.000444	-0.001103	0.002415	6867.066413	42569.531483	3908.104098	22758.176637
15.038000	-0.002734	-0.000883	-0.001354	0.004841	6844.805830	42307.504339	3900.493013	22646.355090
15.535500	-0.000635	-0.000585	0.000554	0.001177	6900.200709	42670.353027	3916.388070	22815.463956
16.036000	-0.001389	-0.000409	-0.004619	0.001225	6892.448029	42682.149572	3901.489053	22813.254985
16.536000	-0.004502	-0.001250	0.002238	0.000192	6872.405540	42699.689975	3924.074053	22861.156433
17.036500	-0.002098	-0.000503	-0.001892	0.003779	6861.058444	42439.250091	3901.979060	22695.237974
17.536500	-0.000838	-0.000536	0.000803	0.001964	6890.633009	42602.508686	3914.846043	22779.036889
18.037000	-0.002392	-0.000154	0.000841	0.002452	6870.966469	42592.755704	3913.555940	22756.465136
18.537500	-0.001695	-0.000634	-0.003242	0.001989	6882.127196	42591.198125	3903.226870	22777.853155
19.037500	-0.005538	-0.000804	-0.001021	0.002886	6836.707488	42493.380411	3906.994843	22736.407705
19.535000	-0.000799	0.000072	0.000237	0.002828	6882.675976	42579.019436	3910.749442	22739.080762
20.035500	-0.002591	-0.000784	-0.002512	0.001909	6874.274464	42584.848952	3905.532310	22781.578700
20.535500	-0.002861	-0.000780	-0.005097	0.001795	6872.771014	42595.587670	3898.518387	22786.823981
21.036000	-0.002459	-0.000918	-0.002265	0.003081	6864.277059	42465.015174	3902.899584	22727.386012
21.539000	-0.002293	-0.000916	-0.003300	0.001948	6876.762377	42569.067198	3903.180134	22779.765893
22.036500	-0.003945	-0.000763	-0.001543	0.002170	6858.774291	42562.776711	3907.546234	22769.482050
22.537000	-0.000601	0.000142	-0.002632	0.002278	6889.881359	42635.947354	3904.138907	22764.482770
23.037000	-0.002079	-0.000728	-0.001699	0.003514	6863.776057	42442.853742	3903.279389	22707.448485
23.537500	-0.001921	-0.001349	-0.004916	0.001602	6883.675558	42561.119466	3899.576999	22795.763914
24.034500	-0.001779	-0.000055	-0.002126	0.001977	6881.429450	42645.488425	3906.435327	22778.423365
24.535000	-0.002384	-0.000282	-0.000865	0.001824	6877.085805	42638.667752	3910.469649	22785.505245
25.035500	-0.002166	-0.000667	-0.005289	0.001824	6879.174547	42603.309613	3897.892976	22785.487441
25.535500	-0.002532	-0.000931	0.001004	0.001283	6880.864267	42628.774328	3917.376209	22810.576849
26.038500	-0.000079	0.000304	-0.001940	0.002686	6890.984353	42613.317864	3904.945682	22745.624349
26.536000	-0.002989	-0.001669	-0.000647	0.001056	6878.655165	42581.893370	3913.291330	22821.096106
27.039500	-0.003824	-0.000671	-0.003909	0.001352	6867.777993	42646.326139	3903.140990	22807.345826
27.537500	-0.001078	-0.000452	-0.002943	0.000274	6904.647223	42765.742140	3908.963169	22857.364227
28.034500	-0.001553	-0.000422	-0.006198	0.002324	6880.268055	42579.908749	3893.915167	22762.378869
28.537500	-0.000296	0.000708	-0.003119	0.001696	6898.455306	42741.621813	3904.411555	22791.428962
29.036000	-0.001194	-0.000624	-0.002835	0.000423	6902.081096	42736.127583	3908.843413	22850.425316
29.535000	-0.000952	0.000046	-0.000370	0.001265	6896.281383	42720.249937	3913.483143	22811.374164
30.035500	-0.000265	0.000058	-0.001358	0.002480	6891.178330	42609.637564	3907.190564	22755.158856
30.535500	0.000348	-0.000154	-0.002597	0.001175	6909.741481	42710.181920	3907.378624	22815.564879
31.036500	-0.002793	-0.000049	-0.000815	0.003652	6855.613682	42492.376364	3905.400228	22701.061438
31.536500	0.000668	0.000092	-0.001549	0.001304	6911.586887	42720.969070	3910.000075	22809.575013
32.036500	-0.002009	0.000188	-0.004651	0.001762	6881.285079	42687.625746	3899.874075	22788.378308
32.537000	-0.000880	-0.000338	-0.000454	0.000773	6901.740128	42730.204866	3914.653628	22834.200488
33.037500	-0.001275	0.000151	0.002292	0.001310	6892.728718	42725.828285	3921.003616	22809.307298
33.537500	-0.002629	-0.001183	-0.001161	0.000595	6886.562247	42668.872022	3913.138059	22842.471188
34.035000	-0.001083	-0.001232	-0.002871	0.002711	6881.065903	42470.263143	3902.232792	22744.508781
34.535500	-0.002524	-0.000242	0.000175	0.002933	6865.071201	42540.490839	3910.271295	22734.214498
35.035500	-0.001520	-0.000403	0.000700	0.002657	6877.377413	42551.084995	3912.563894	22746.972444
35.536000	-0.003062	-0.000748	-0.000942	0.002109	6867.823499	42569.729495	3909.435825	22772.325328
36.036500	-0.001761	-0.000245	0.002049	0.003322	6868.669668	42504.636443	3914.523578	22716.301662
36.537000	-0.002769	-0.000544	-0.005042	0.002470	6867.170121	42555.339298	3896.764338	22755.628532
37.037000	-0.003580	-0.000331	-0.002423	0.004458	6840.395138	42392.924569	3898.549871	22663.974665
37.540000	-0.002986	-0.000522	-0.001121	0.002441	6865.373185	42560.011322	3907.979006	22756.981019
38.034500	-0.003023	-0.000630	-0.000309	0.002488	6864.566098	42545.797054	3910.160783	22754.797527
38.535000	-0.001070	-0.000134	0.002014	0.002848	6879.865228	42558.208874	3915.782042	22738.143235
39.035500	-0.003094	-0.000442	-0.001646	0.004246	6847.047986	42402.033948	3901.349381	22673.701058
39.535500	-0.002815	-0.000416	-0.004787	0.002380	6867.598147	42575.314893	3897.740462	22759.791003
40.038500	-0.002830	-0.000383	-0.000648	0.002626	6865.087456	42555.749292	3908.798622	22748.416705
40.536000	-0.000440	-0.000143	-0.001971	0.002464	6889.645680	42592.622787	3905.489792	22755.883316
41.036500	-0.002015	-0.000472	-0.003492	0.003978	6859.944629	42423.859160	3896.884852	22686.050178
41.537000	-0.000663	0.000006	-0.000111	0.002671	6885.489688	42587.322907	3910.202629	22746.312927
42.037000	-0.001094	-0.000940	0.000126	0.002667	6881.388886	42501.011222	3910.892867	22746.533205
42.537500	-0.003223	-0.000541	-0.003300	0.002256	6864.870603	42575.281402	3902.304694	22765.532158
43.035000	-0.002327	-0.000249	-0.002211	0.004130	6855.499697	42430.312301	3900.078592	22679.067022
43.535000	-0.000495	0.000558	-0.002700	0.003073	6883.239084	42601.103194	3901.687700	22727.767588
44.035500	-0.000675	-0.000141	0.000429	-0.001419	6925.003159	42950.979866	3923.502298	22936.151617
44.538000	-0.001280	-0.000290	0.000644	0.000309	6902.356696	42777.440924	3919.142205	22855.749020
45.036000	-0.002320	-0.000746	-0.000675	0.004367	6853.297957	42363.218862	3903.765643	22668.138938
45.536500	-0.002209	-0.000495	-0.000741	0.001377	6883.073961	42660.236651	3912.103408	22806.216662
46.036000	-0.000922	-0.000070	-0.003294	0.001218	6897.034368	42713.960200	3905.273863	22813.589154
46.537000	-0.001271	0.000264	0.002690	0.001464	6891.273590	42722.048137	3921.706471	22802.152922
47.037000	-0.002484	0.000349	0.000702	0.004838	6847.223386	42420.272592	3906.342613	22646.471923
47.537500	-0.001565	0.000379	-0.002535	0.004301	6861.160275	42472.113474	3898.675411	22671.179457
48.035000	-0.002654	-0.000128	-0.000429	0.003436	6859.009722	42504.923591	3907.114978	22711.020048
48.535000	0.000185	0.001035	0.001577	0.001519	6904.830330	42788.065036	3918.343916	22799.621483
49.038500	-0.002224	-0.000810	0.002748	0.004631	6851.690355	42333.343819	3912.776071	22656.010821
49.535000	-0.003500	0.000059	0.002941	0.002064	6864.046272	42647.911203	3920.701651	22774.377277
50.036000	0.000765	0.000643	0.000361	-0.000082	6926.010647	42899.767443	3919.453326	22873.929272
50.536000	-0.001843	-0.000411	-0.001764	0.000192	6898.043487	42777.139567	3912.567354	22861.183233
51.037000	-0.005082	-0.001667	-0.002496	-0.000155	6870.166003	42693.305664	3911.464777	22877.283651
51.536500	-0.044156	-0.018979	0.052006	0.276651	4714.131457	23027.821303	3413.908528	13360.285006
52.037000	-0.048564	-0.018258	-0.008199	-0.049461	6926.490996	45820.711163	4042.628831	25304.960810
52.534500	-0.028805	-0.059762	-0.024489	-0.246685	9666.757314	64408.215856	4752.282701	38306.867683
53.034500	-0.028839	-0.016412	-0.015395	-0.092005	7578.338383	50459.105038	4159.064938	27633.035333
53.535500	-0.014704	-0.014073	-0.014044	-0.107859	7927.225594	52501.289692	4219.258908	28560.604577
54.035500	-0.002126	-0.009760	-0.011098	-0.117213	8198.062223	54092.706074	4263.775937	29123.920975
54.536000	0.005293	-0.005271	-0.004293	-0.084866	7891.272348	50901.006601	4172.718263	27226.285077
55.036000	0.007378	-0.002673	0.000793	-0.054274	7561.352993	47893.353470	4086.977939	25557.050821
55.539500	0.008390	-0.001760	0.002205	-0.041675	7433.323885	46694.081304	4050.933080	24903.049390
56.033500	0.006403	-0.001203	0.005408	-0.027368	7258.961458	45323.620208	4016.057897	24183.021614
56.534000	0.001032	-0.004526	0.006439	-0.022231	7149.939584	44501.731363	4003.388666	23930.246522
57.037000	0.013968	0.000219	0.010012	-0.021987	7281.954175	44937.028704	4013.650568	23918.298493
57.534000	0.016479	0.003351	0.011539	-0.023054	7319.879164	45347.186655	4021.706733	23970.548878
58.034500	0.023480	0.003735	0.023190	0.026279	6890.652476	40803.669377	3909.327636	21684.899895
58.538500	0.026439	0.007022	0.028180	0.048141	6712.099422	39209.146258	3862.085392	20752.140354
59.035500	0.030359	0.008024	0.035758	0.055046	6684.610239	38716.632039	3863.934409	20467.175378
59.536000	0.037635	0.011423	0.039374	0.059839	6707.463328	38601.199984	3860.701078	20271.981822
60.036500	0.039395	0.013486	0.046332	0.075715	6579.246221	37478.019821	3836.492837	19640.696502
60.537000	0.044316	0.014568	0.052509	0.087872	6515.122598	36602.864022	3820.534227	19172.639499
61.037000	0.052014	0.018763	0.061538	0.100324	6473.566532	35964.802779	3811.496378	18706.616903
61.537000	0.056911	0.023415	0.066602	0.114809	6391.139696	35220.603011	3786.992714	18181.081144
62.037000	0.068637	0.027380	0.074136	0.123224	6419.398910	34889.328928	3784.726711	17883.719489
62.535000	0.076659	0.032169	0.086446	0.135168	6385.944991	34363.624186	3785.666480	17471.396861
63.038000	0.086167	0.038179	0.102494	0.131292	6501.357996	35092.158345	3838.063025	17603.948682
63.536000	0.095101	0.043033	0.111440	0.161766	6317.337699	33237.775736	3781.553714	16593.006192
64.036000	0.105688	0.049289	0.125806	0.175432	6291.762698	32721.490465	3783.345702	16162.147521
64.536000	0.117200	0.054600	0.134729	0.190897	6259.213250	32028.219616	3766.694289	15690.692307
65.037000	0.127552	0.061420	0.143938	0.197862	6287.091030	32018.391835	3772.376571	15483.766767
65.537000	0.136594	0.067759	0.155160	0.212348	6242.388881	31473.983542	3764.121829	15063.914121
66.037000	0.148783	0.074358	0.167569	0.225181	6237.131476	31064.186531	3763.051804	14703.475463
66.540000	0.159555	0.080137	0.175204	0.232734	6263.460104	30948.678139	3763.260366	14496.273060
67.035000	0.163220	0.085209	0.183274	0.232173	6298.323844	31317.177081	3785.212518	14511.528268
67.538000	0.170834	0.089555	0.190785	0.235569	6333.454489	31379.742106	3795.833345	14419.403249
68.035000	0.174740	0.093383	0.192657	0.231741	6398.770931	31889.520475	3810.715527	14523.305015
68.535500	0.185603	0.098340	0.199443	0.242084	6403.200201	31529.961630	3801.404496	14244.679410
69.036000	0.188591	0.100557	0.205053	0.250833	6354.384057	31099.880580	3793.252536	14014.141330
69.538000	0.190062	0.102321	0.205656	0.258193	6305.140531	30736.584818	3775.905704	13823.764103
70.036500	0.197211	0.106916	0.213870	0.262560	6328.326138	30751.344012	3785.750776	13712.335711
70.539500	0.204823	0.108615	0.216333	0.268412	6343.062951	30484.510534	3777.071834	13564.726733
71.034000	0.202586	0.110242	0.216374	0.279255	6234.930626	29901.623595	3749.865350	13296.466701
71.538000	0.209776	0.112510	0.225914	0.283439	6259.487813	29781.956427	3763.269902	13194.719970
72.038000	0.214028	0.116534	0.231395	0.284797	6283.302934	29948.550604	3773.705216	13161.907328
72.535500	0.216533	0.117743	0.239721	0.287361	6282.810282	29863.708113	3788.449309	13100.225048
73.036000	0.216253	0.118437	0.235114	0.295936	6210.471417	29375.644835	3755.000734	12896.611171
73.535500	0.224032	0.121108	0.240895	0.294100	6289.093110	29653.685382	3774.203727	12939.865128
74.036000	0.229307	0.124261	0.246353	0.298415	6297.032110	29581.687502	3777.116091	12838.472447
74.536500	0.232496	0.126894	0.246398	0.302065	6293.218222	29518.893923	3767.959828	12753.494313
75.037000	0.232822	0.127214	0.246264	0.310343	6227.990764	29032.348472	3746.889503	12563.408118
75.537000	0.232709	0.129462	0.250345	0.312453	6209.971354	29040.652969	3751.789419	12515.523969
76.037500	0.238858	0.131124	0.255677	0.311556	6267.410903	29196.208554	3767.422328	12535.849449
76.534500	0.241327	0.131936	0.255190	0.313781	6269.412587	29110.217086	3760.588272	12485.510030
77.035000	0.245550	0.134034	0.259245	0.318767	6263.149967	28935.308212	3758.253001	12373.640534
77.535000	0.244338	0.134889	0.260107	0.326457	6190.818365	28525.963419	3741.270636	12203.594294
78.036000	0.251091	0.136686	0.269575	0.326057	6248.821269	28656.882298	3765.901870	12212.365175
78.536000	0.254917	0.138422	0.270755	0.329477	6252.138898	28556.463608	3760.260178	12137.627960
79.036000	0.258276	0.140235	0.275662	0.334808	6236.040291	28348.015962	3759.195093	12022.305238
79.536500	0.256413	0.140665	0.272630	0.342292	6160.717847	27935.159603	3733.127920	11862.782196
80.036000	0.260165	0.142466	0.276971	0.341879	6194.076358	28064.005786	3744.834695	11871.511085
80.537000	0.260774	0.143479	0.277504	0.344944	6174.369254	27944.634133	3738.585546	11806.920998
81.037500	0.264818	0.144445	0.284298	0.348766	6176.141881	27779.237987	3745.924499	11726.988437
81.537500	0.261293	0.144266	0.283649	0.356958	6083.571292	27300.879680	3724.231844	11558.022692
82.035000	0.266814	0.148095	0.282843	0.357131	6125.515214	27508.711922	3721.860286	11554.497421
82.535500	0.266316	0.148253	0.294825	0.359650	6101.786360	27374.237934	3745.039057	11503.189467
83.035500	0.270164	0.148372	0.291491	0.368573	6062.243294	26879.560088	3715.109321	11323.863504
83.535500	0.271683	0.150728	0.293130	0.372623	6042.700966	26785.484766	3709.320210	11243.670865
84.036500	0.276124	0.151267	0.294116	0.369656	6100.243087	26980.553550	3718.830938	11302.358353
84.536500	0.278106	0.152701	0.296062	0.372726	6091.728825	26889.369485	3716.117824	11241.652910
85.037000	0.280316	0.152893	0.298588	0.375485	6087.435576	26746.857456	3715.555381	11187.451768
85.534500	0.281698	0.154486	0.295953	0.378573	6074.150632	26664.353311	3701.861122	11127.220844
86.040000	0.283784	0.155897	0.309150	0.382091	6063.041191	26548.466694	3725.128475	11059.109519
86.535000	0.286474	0.157960	0.306632	0.385910	6054.302664	26452.297839	3709.835538	10985.789252
87.034500	0.284883	0.157202	0.300383	0.392947	5988.291885	26030.201087	3678.493085	10852.378480
87.535500	0.285164	0.157982	0.306815	0.395775	5969.051048	25920.552240	3686.902218	10799.371931
88.036000	0.290864	0.160179	0.308170	0.394277	6023.710284	26118.737172	3693.607429	10827.406264
88.536000	0.292156	0.161441	0.314719	0.396747	6014.705940	26053.770629	3703.270155	10781.233312
89.036500	0.293551	0.161716	0.314970	0.399514	6004.248690	25920.257182	3697.298612	10729.813848
89.536000	0.290361	0.161051	0.310993	0.406060	5930.953969	25538.264533	3672.696538	10609.463273
90.037000	0.296481	0.163871	0.316016	0.404487	5988.729841	25770.218842	3688.047020	10638.214879
90.537500	0.299803	0.165736	0.319619	0.408418	5984.114499	25660.819149	3687.276463	10566.543241
91.035000	0.296840	0.164921	0.316206	0.415820	5906.630386	25230.853804	3662.247022	10433.358344
91.538000	0.297544	0.166546	0.316430	0.418803	5889.834921	25160.596500	3655.959847	10380.323819
92.035500	0.301499	0.168146	0.324755	0.415816	5941.263586	25398.871399	3681.991405	10433.432582
92.535500	0.304782	0.168880	0.333634	0.418615	5944.874899	25291.237001	3696.263290	10383.643187
93.036000	0.303230	0.169756	0.325318	0.426809	5872.832139	24914.130228	3657.964683	10239.754095
93.535500	0.304516	0.169280	0.327906	0.429188	5864.850451	24768.741372	3658.441625	10198.487656
94.036500	0.308422	0.173203	0.334262	0.427800	5903.690435	25040.021122	3676.233175	10222.538353
94.537000	0.311816	0.174246	0.333378	0.430167	5911.275324	24972.094438	3668.724718	10181.573288
95.037000	0.310990	0.172771	0.333215	0.430799	5900.507246	24864.388098	3666.895841	10170.661151
95.537500	0.310428	0.171335	0.332798	0.437463	5847.669403	24455.211049	3650.768639	10056.684990
96.037500	0.312084	0.173255	0.331385	0.435083	5877.072521	24671.455291	3652.954771	10097.183862
96.535500	0.315370	0.174499	0.337027	0.438137	5878.769009	24580.210781	3658.832619	10045.249599
97.035500	0.314036	0.174418	0.339733	0.439319	5860.396229	24516.691166	3662.308096	10025.233137
97.536000	0.315353	0.175305	0.341948	0.447079	5813.835335	24174.486816	3649.715277	9895.257000
98.036000	0.319327	0.177369	0.342680	0.445065	5857.087691	24376.866431	3655.930997	9928.760443
98.536500	0.317373	0.177318	0.345845	0.446476	5832.710944	24304.095767	3659.923989	9905.271173
99.036500	0.320097	0.177015	0.343548	0.447658	5843.857392	24230.460930	3652.023127	9885.646721
99.537000	0.317801	0.177056	0.344569	0.454549	5778.018505	23893.831687	3638.832405	9772.296028
100.037500	0.321575	0.179197	0.351372	0.452302	5821.006280	24108.843015	3659.242238	9809.050765
100.534500	0.323752	0.180336	0.353001	0.455275	5815.285423	24018.684769	3656.183144	9760.449794
101.035000	0.322643	0.178833	0.350389	0.456134	5801.201099	23903.217209	3648.329758	9746.474936
101.535500	0.321059	0.179840	0.349842	0.463773	5735.999927	23582.197398	3630.055035	9623.355559
102.036000	0.327267	0.181731	0.352262	0.460841	5800.603998	23815.136767	3641.963021	9670.351215
102.536000	0.325008	0.180198	0.348200	0.460862	5784.361908	23739.760914	3632.863788	9670.007453
103.036500	0.325163	0.181644	0.355671	0.470266	5719.331788	23358.164930	3628.586872	9520.387013
103.536500	0.324025	0.182275	0.355440	0.470821	5707.580828	23361.778652	3626.853411	9511.660591
104.037000	0.331068	0.183314	0.356673	0.467289	5781.754229	23580.189578	3637.412475	9567.404658
104.540000	0.329387	0.183899	0.360321	0.469567	5753.776644	23499.026800	3640.472085	9531.401036
105.034500	0.327014	0.183688	0.358585	0.476415	5689.584738	23163.989267	3621.469185	9424.288219
105.535000	0.330171	0.183460	0.354567	0.475949	5714.641889	23175.220286	3613.716103	9431.529290
106.035000	0.334813	0.186021	0.362762	0.475822	5747.949213	23302.231483	3631.981961	9433.504534
106.538000	0.333315	0.184931	0.360550	0.475519	5739.564945	23264.972823	3627.760267	9438.210347
107.036000	0.332564	0.186596	0.359164	0.484316	5673.434647	22930.357095	3605.555502	9302.795452
107.536000	0.330447	0.185983	0.362450	0.484532	5657.497210	22891.764704	3612.194819	9299.498256
108.036500	0.336964	0.187624	0.367911	0.481448	5723.645146	23112.447436	3630.925673	9346.637606
108.537000	0.337585	0.188405	0.366948	0.483402	5714.367721	23057.420789	3624.488687	9316.731053
109.037000	0.335181	0.189221	0.368492	0.491041	5645.424254	22740.444598	3611.180980	9201.101512
109.537000	0.337925	0.189854	0.368502	0.491409	5661.597321	22752.664870	3610.406894	9195.592817
110.034500	0.340360	0.190167	0.369704	0.488381	5699.103375	22907.340005	3619.613334	9241.132091
110.535000	0.341261	0.190482	0.373902	0.490239	5692.500874	22835.774092	3624.746842	9213.146639
111.035500	0.339060	0.190225	0.368528	0.497212	5629.914052	22503.698952	3597.973801	9109.173309
111.535500	0.341413	0.191531	0.374397	0.496103	5653.372296	22613.983674	3613.010906	9125.591857
112.036000	0.342800	0.192375	0.374882	0.495220	5668.862784	22693.229525	3615.987512	9138.697866
112.536500	0.341208	0.190481	0.375034	0.493638	5668.790648	22678.906107	3619.773818	9162.250849
