sample name	sample
index	853
start time	 04-08-2021  10:52:37 AM
880	0.466808
Peak Time (s)	101.037
Peak Height 	0.4668
calc peak height	100,103
Baseline Time (s)	8.539
Baseline Value 	-0.00439
subtract baseline	10,4
Abs	0.343827
Peak Time (s)	102.038
Peak Height 	0.3438
calc peak height	100,103
Baseline Time (s)	10.537
Baseline Value 	0.002566
subtract baseline	10,3
PK_550	0.178448
Peak Time (s)	102.537
Peak Height 	0.1784
calc peak height	100,103
Baseline Time (s)	11.034
Baseline Value 	5.0917E-4
subtract baseline	10,2
PK_880	0.318338
Peak Time (s)	102.537
Peak Height 	0.3183
calc peak height	100,103
Baseline Time (s)	9.036
Baseline Value 	0.001594
subtract baseline	10,1


Time (s)	A880-A510	A880-A775	A880-A975	A880	I510	I775	I975	I880	
0.039500	0.001058	-0.000838	0.000141	0.000787	6881.147970	42609.855827	3847.985714	22702.481122
0.536500	-0.001031	-0.000392	-0.000554	0.004132	6829.132481	42344.381641	3837.070221	22548.860137
1.037000	-0.002989	-0.001444	0.000114	0.005325	6799.269667	42140.111651	3835.659846	22494.360897
1.535000	0.000756	0.000156	0.000388	0.000691	6879.160564	42710.042173	3848.913829	22706.873762
2.034500	0.000444	-0.000613	-0.001316	-0.000281	6885.515529	42728.735728	3846.929046	22751.744254
2.535000	0.000981	-0.000287	0.000685	-0.000155	6889.478581	42747.175386	3852.023273	22745.921186
3.035500	-0.000030	-0.000916	-0.003768	-0.000121	6879.414870	42686.179440	3839.868922	22744.358618
3.536000	0.000232	-0.000366	0.002563	0.001050	6870.666757	42629.024342	3853.854473	22690.322891
4.036000	-0.000436	-0.000518	-0.001384	0.000451	6870.001522	42670.155949	3844.761781	22717.947495
4.536500	0.000738	-0.000371	-0.001859	0.000527	6880.559861	42676.588509	3843.270845	22714.432092
5.036500	0.000968	-0.000164	-0.004362	-0.000762	6895.220436	42814.500455	3839.995599	22773.989842
5.534500	0.001418	-0.000380	0.001524	0.000101	6891.231346	42715.017807	3853.611346	22734.098024
6.037500	0.001063	-0.000886	-0.002770	-0.000189	6890.598671	42695.137189	3842.743347	22747.496630
6.535000	0.000121	0.000343	-0.003048	0.000564	6874.265768	42738.990165	3839.960809	22712.723034
7.035000	-0.000651	-0.000554	0.001139	0.000187	6870.480784	42691.103383	3852.327853	22730.143899
7.535000	-0.001509	-0.001108	0.001777	-0.000369	6867.580014	42691.311997	3855.586127	22755.829837
8.035500	0.000324	-0.000783	-0.002062	-0.000192	6883.505544	42704.916355	3844.666434	22747.642792
8.538500	0.000899	-0.000382	-0.002519	0.000000	6887.200011	42724.140352	3842.912540	22738.766450
9.036000	0.000000	-0.000118	0.001336	0.000088	6877.683252	42740.369985	3853.134473	22734.685771
9.536000	-0.000734	0.000084	0.002979	-0.000168	6873.093058	42782.579376	3858.320655	22746.526888
10.036500	-0.001052	-0.000469	-0.003477	-0.000941	6877.470054	42802.957696	3842.867457	22782.284906
10.537000	0.001647	0.000840	0.000000	0.000829	6886.410316	42760.370776	3847.486618	22700.515501
11.034500	-0.002035	0.000000	-0.000015	0.001920	6840.636103	42582.714623	3844.490922	22650.289456
11.535000	0.001736	0.000196	0.000474	-0.000292	6898.096502	42804.345499	3851.822284	22752.254363
12.035500	0.000914	0.001282	-0.000251	0.000848	6879.162986	42799.397258	3846.754069	22699.630407
12.535500	-0.001094	-0.000866	0.001672	-0.000231	6870.241104	42700.904778	3854.922105	22749.442607
13.039000	0.001393	-0.000050	0.000206	0.001018	6882.146021	42661.060779	3847.532664	22691.827161
13.536500	0.003246	0.000042	0.002249	-0.000258	6912.394814	42787.047859	3856.569532	22750.682859
14.036000	0.000583	0.000388	-0.001885	0.002889	6856.396263	42529.382483	3836.834393	22605.789770
14.537000	0.000228	-0.000082	0.002019	0.002046	6861.075885	42563.641286	3849.664177	22644.523120
15.036500	-0.001206	-0.000754	-0.001303	0.001159	6855.828856	42583.391751	3843.065054	22685.319730
15.537000	-0.000139	-0.000719	0.000230	-0.001306	6889.774686	42813.495986	3853.919007	22799.142932
16.037500	0.002881	0.000670	0.001330	-0.000276	6909.030098	42846.640767	3854.109547	22751.520815
16.535000	0.001330	0.000605	-0.000284	-0.000183	6893.114944	42832.009803	3849.463499	22747.200604
17.035500	-0.000099	-0.000735	0.003970	0.000473	6873.026851	42648.139280	3859.278222	22716.917896
17.538500	0.001554	-0.000075	-0.004016	0.000652	6887.220713	42692.426897	3837.121243	22708.682452
18.036000	-0.001197	-0.000241	-0.005751	0.000616	6861.112694	42680.376475	3832.560851	22710.332134
18.535500	0.001735	0.000328	-0.000196	0.001996	6876.020361	42605.900940	3843.795193	22646.802120
19.036500	-0.001538	-0.000415	0.001831	0.001791	6846.620355	42556.571240	3849.848777	22656.256821
19.537000	0.001169	-0.000068	-0.003704	0.001407	6876.241908	42623.624871	3835.930997	22673.900042
20.037000	0.000544	-0.000147	-0.002998	0.001225	6871.985914	42633.087482	3838.317514	22682.274247
20.537500	-0.001654	-0.000577	-0.000962	0.000770	6855.267823	42635.317613	3845.039164	22703.226609
21.035000	0.000777	-0.000203	0.000931	0.001092	6875.508489	42640.195925	3849.301810	22688.412833
21.535000	-0.001446	-0.000152	0.002261	0.001174	6853.391784	42637.341986	3852.697054	22684.652331
22.035500	-0.000981	-0.000788	-0.000719	0.000771	6861.707226	42615.939953	3845.696128	22703.209675
22.535500	0.001237	0.000157	0.000803	0.001513	6875.873964	42634.503977	3847.809755	22669.010827
23.036000	0.001692	0.000425	0.001504	0.002059	6875.003733	42609.055009	3848.230114	22643.925177
23.536500	-0.001897	-0.000111	-0.003467	0.001380	6847.105596	42622.089814	3836.638517	22675.138942
24.037000	0.001076	-0.000479	-0.000779	0.001050	6878.778489	42618.562097	3844.776654	22690.319102
24.537500	0.000916	0.000994	0.000112	0.002381	6864.451520	42631.677431	3843.586253	22629.120575
25.037500	0.001139	0.001205	0.000355	0.002691	6863.631043	42622.617711	3843.407815	22614.912831
25.535000	-0.001348	-0.000236	-0.000342	0.000958	6856.402735	42649.430532	3846.209735	22694.585316
26.035000	-0.000523	0.000224	0.000861	0.001421	6859.862908	42649.224664	3848.216223	22673.267325
26.535000	0.000829	0.000325	-0.004307	0.001439	6872.662661	42656.746599	3834.223907	22672.419173
27.036000	-0.001068	-0.000902	-0.003156	0.000613	6862.387284	42619.940543	3839.537816	22710.470505
27.535500	0.000504	0.000281	0.005217	-0.001275	6895.696289	42903.069921	3867.513048	22797.748033
28.036000	0.000115	-0.000516	0.002108	-0.001256	6891.759176	42827.717927	3858.915253	22796.868262
28.538000	0.002197	-0.000185	0.000517	-0.000670	6906.226465	42804.128866	3852.970081	22769.742669
29.036500	0.000344	-0.000061	0.001953	0.002190	6860.794257	42552.337573	3849.092043	22637.875210
29.537000	0.001641	0.000649	-0.002069	-0.000042	6894.767113	42823.102152	3844.243217	22740.712244
30.037500	0.001330	0.000308	0.003170	-0.000434	6895.553745	42827.889626	3859.572887	22758.835551
30.535000	-0.001837	-0.000063	-0.002143	0.003424	6828.197229	42439.132426	3834.706030	22581.268038
31.035000	0.000383	0.000493	-0.001190	0.004532	6838.780371	42388.696908	3834.289423	22530.565518
31.538000	0.000885	0.000518	0.002811	0.000210	6885.028905	42787.771589	3856.827239	22729.056271
32.035500	0.002608	0.000140	-0.000091	-0.000599	6909.523639	42827.577172	3851.119498	22766.461474
32.536000	-0.000437	-0.000227	-0.001696	0.003237	6843.315573	42441.312093	3836.408007	22589.853324
33.036500	-0.000538	0.000751	0.003112	0.002756	6846.949120	42574.946445	3850.706264	22611.926370
33.536500	0.001057	0.000342	0.006075	-0.000051	6889.208119	42795.544234	3866.501911	22741.100855
34.037000	0.002560	0.000526	0.004475	-0.000398	6907.105343	42844.608539	3863.055664	22757.153263
34.537000	-0.002255	-0.000298	-0.001706	0.003045	6827.836349	42452.333199	3836.898256	22598.665173
35.037500	0.000743	0.000747	-0.003291	0.003059	6856.303078	42546.772738	3832.607655	22598.007550
35.535000	0.001006	-0.000003	0.001173	0.001610	6872.722347	42610.982465	3848.551238	22664.563617
36.038000	0.001020	0.000786	-0.000092	0.002588	6863.470664	42593.571115	3842.478805	22619.627762
36.535500	-0.001423	-0.000500	0.001094	0.002772	6838.347404	42458.807122	3845.184018	22611.152487
37.035500	0.000919	-0.000699	-0.000126	0.001527	6872.692800	42554.744072	3845.253975	22668.395799
37.536000	-0.000750	0.000349	0.005836	0.001782	6854.236125	42627.465408	3860.805066	22656.646425
38.036500	-0.000148	0.000222	0.002872	0.002441	6853.683590	42555.327487	3850.909644	22626.358394
38.536500	0.002182	0.000577	0.000690	0.002247	6877.911469	42605.716295	3845.514298	22635.278981
39.037000	0.000313	0.000749	-0.002663	0.002769	6854.960354	42573.617419	3835.068398	22611.324456
39.537000	-0.000726	-0.000453	0.005595	0.001822	6854.075103	42550.145858	3860.036230	22654.805251
40.034500	-0.001728	0.000078	0.001427	0.002089	6841.956889	42574.455078	3847.941165	22642.553711
40.535000	-0.001050	0.000751	0.002009	0.002398	6845.474079	42607.822316	3848.679343	22628.333425
41.035500	-0.001311	-0.001136	-0.000670	0.001339	6853.105017	42531.816246	3844.288437	22677.013477
41.535000	-0.000728	0.000212	0.001615	0.001992	6852.438991	42595.629272	3848.712324	22646.993825
42.035500	0.001536	0.000403	0.001651	0.002380	6870.422877	42577.515745	3847.758440	22629.171380
42.536000	0.000378	0.000220	-0.003065	0.002188	6861.141994	42578.330387	3835.547216	22637.980434
43.036500	0.000253	-0.000370	-0.001680	0.001867	6863.019762	42553.637686	3840.135719	22652.719521
43.537000	-0.000683	-0.000454	-0.001753	0.001648	6856.163746	42566.072669	3840.531515	22662.826040
44.037000	0.004551	0.000037	0.001665	-0.000502	6927.457425	42809.136580	3855.643156	22761.977023
44.537500	-0.000290	-0.000343	-0.002358	0.005145	6826.544862	42256.595672	3829.522482	22502.595081
45.037500	-0.000761	0.000092	-0.003218	0.002483	6847.428826	42539.595447	3834.347055	22624.445626
45.535500	0.002062	-0.000083	0.003162	-0.000094	6899.340162	42760.420141	3858.618332	22743.107748
46.035500	0.002457	0.001647	0.002859	0.000704	6895.439167	42846.400989	3855.609796	22706.282952
46.535500	-0.001127	-0.000216	-0.003117	0.004634	6823.443049	42314.684157	3828.859890	22525.910030
47.036000	0.001065	0.000160	0.004779	0.002679	6863.033349	42527.792914	3855.459829	22615.453261
47.543000	-0.000438	0.000796	0.000733	0.003536	6840.461048	42507.519771	3842.143928	22576.147265
48.042000	0.000904	0.000384	-0.001558	0.002993	6858.468651	42519.568637	3837.433501	22601.022170
48.537000	-0.001014	-0.000070	-0.000287	0.004977	6821.266063	42296.773439	3835.521068	22510.284229
49.066000	-0.002177	-0.000799	-0.003324	0.002985	6829.148835	42412.006291	3832.716893	22601.418333
49.537500	0.001361	-0.000044	0.000079	0.000064	6891.035984	42749.399932	3849.779509	22735.814154
50.041000	0.002564	0.000010	0.004413	-0.001960	6922.310744	42941.366668	3867.185849	22829.483998
50.541000	-0.001744	-0.000539	-0.000389	0.004204	6821.675560	42324.508916	3837.320647	22545.580293
51.036000	-0.000526	-0.000367	-0.001590	0.003651	6838.517567	42390.636466	3835.580197	22570.877078
51.536000	-0.040836	-0.015875	0.019864	0.063921	5982.613965	36039.134045	3735.883260	19994.115634
52.039000	-0.060614	-0.019870	0.014719	0.085712	5682.823488	34118.463209	3671.753016	19147.032551
52.536500	-0.027798	-0.011639	-0.001472	-0.061904	7220.046027	47672.187684	4025.940528	25810.984985
53.040000	-0.017436	-0.020598	-0.010185	-0.164730	8566.357617	58517.648141	4354.159296	31988.973323
53.546000	-0.031902	-0.018402	-0.003320	-0.101656	7606.855608	51219.686106	4149.641587	28027.643986
54.034500	-0.021697	-0.018751	-0.003356	-0.125172	8003.170387	53877.118710	4231.869302	29437.728850
54.534500	-0.017538	-0.017983	-0.010176	-0.148280	8346.917982	56768.278848	4291.578137	30899.772769
55.035000	-0.003458	-0.017075	-0.006876	-0.167842	8801.867006	59376.737876	4379.250208	32199.707162
55.535500	0.010859	-0.015478	-0.000357	-0.170927	9051.393078	59990.714021	4417.479081	32410.065175
56.035500	0.018537	-0.008684	0.003302	-0.152829	8900.774476	58519.278982	4360.321602	31196.815873
56.536000	0.023376	-0.002591	0.009402	-0.124202	8570.179658	55697.949546	4274.855580	29378.035081
57.036000	0.030778	0.001249	0.016863	-0.100369	8352.181020	53314.476918	4215.464408	27952.658876
57.536500	0.037456	0.007003	0.027001	-0.067744	8024.285484	50278.885042	4137.454031	26124.038919
58.037000	0.044205	0.012098	0.041812	-0.032836	7689.917738	47123.762906	4071.074843	24313.767937
58.537000	0.046691	0.016539	0.046319	0.001482	7337.133188	44171.815528	3978.094684	22670.430151
59.040500	0.058861	0.023776	0.060760	0.045741	7006.748307	40784.738846	3891.266743	20734.087978
59.538000	0.060672	0.027050	0.066140	0.054092	6942.349923	40342.314641	3882.935811	20390.306468
60.035500	0.069463	0.029245	0.080014	0.060602	6964.699095	39970.400995	3903.687958	20126.890169
60.538500	0.076816	0.034795	0.087361	0.028737	7367.891234	43321.764439	4020.304689	21454.756742
61.036000	0.088342	0.041461	0.102740	0.039511	7375.980682	42939.546623	4034.702268	20994.839133
61.536000	0.102317	0.050619	0.123188	0.094766	6951.847660	38889.396623	3929.557000	18807.390256
62.053000	0.111061	0.059060	0.134930	0.140807	6601.802958	35889.806580	3833.875363	17185.694852
62.536500	0.125391	0.068752	0.144509	0.194363	6264.688892	32703.300216	3721.743009	15503.357408
63.037000	0.133437	0.070512	0.150442	0.212794	6180.425791	31574.221579	3691.896208	14970.743466
63.537000	0.139379	0.074698	0.156729	0.220995	6162.357417	31308.743274	3687.399076	14740.924552
64.043000	0.145840	0.076559	0.158710	0.227646	6160.844382	30995.146795	3676.512142	14557.700289
64.535500	0.147103	0.079976	0.160704	0.234814	6114.078887	30752.003526	3664.586493	14363.343153
65.034500	0.153496	0.082199	0.162611	0.239639	6126.431247	30584.552262	3657.923594	14234.306376
65.535500	0.158155	0.085269	0.171537	0.245167	6119.584569	30427.343021	3665.687710	14088.252175
66.038500	0.160047	0.087302	0.176857	0.249199	6102.764647	30300.056322	3668.645759	13982.852090
66.536500	0.164638	0.091167	0.182958	0.259825	6055.784028	29874.024203	3658.290540	13709.779548
67.036500	0.168902	0.092503	0.182833	0.258044	6102.840391	30069.613981	3662.066621	13755.082872
67.537000	0.174993	0.095183	0.190106	0.263427	6108.404079	29899.947124	3666.397640	13618.732681
68.037000	0.176684	0.097749	0.191834	0.269672	6072.832118	29670.667749	3656.081411	13462.634315
68.537500	0.173912	0.098377	0.190984	0.281331	5962.540299	28994.726968	3628.071078	13177.131886
69.038000	0.178621	0.099371	0.195275	0.284759	5972.180480	28847.946775	3629.978175	13094.642443
69.538000	0.183279	0.101969	0.198718	0.288112	5982.041913	28802.575661	3630.178785	13014.602825
70.035500	0.187302	0.104489	0.205715	0.294516	5964.078384	28570.319317	3631.489768	12863.384921
70.536000	0.188415	0.104328	0.207320	0.305604	5889.930329	27909.410284	3610.712679	12606.817890
71.036500	0.190977	0.106080	0.212812	0.310934	5869.655670	27702.777006	3611.065423	12485.800459
71.536000	0.196609	0.107787	0.215879	0.313422	5892.694979	27657.857616	3612.319464	12429.811086
72.036500	0.199005	0.108683	0.223251	0.319056	5868.961283	27387.267025	3616.099763	12304.198023
72.537000	0.199291	0.110732	0.224630	0.328904	5799.914503	26948.264591	3597.820306	12088.523110
73.040500	0.203662	0.113401	0.228397	0.336390	5777.746858	26680.994733	3589.904261	11927.819611
73.537000	0.208971	0.116428	0.227558	0.337931	5804.584244	26763.130815	3584.873313	11895.084400
74.035000	0.208725	0.115298	0.230642	0.341336	5778.584035	26513.387865	3584.197191	11823.158940
74.535500	0.211578	0.117387	0.238082	0.351033	5730.418847	26100.227640	3579.456106	11621.380378
75.036000	0.215516	0.119577	0.242381	0.355662	5725.599844	25969.324765	3578.766539	11526.637165
75.536000	0.221422	0.120749	0.239662	0.355412	5768.816626	26045.550123	3573.611755	11531.725905
76.036000	0.221898	0.122977	0.245025	0.360105	5739.141959	25913.523301	3575.007120	11436.640320
76.538000	0.225844	0.124366	0.250420	0.367690	5713.769286	25585.031928	3570.451686	11285.120469
77.037000	0.224429	0.125413	0.254326	0.370758	5682.805602	25478.873646	3572.193254	11224.583323
77.867500	0.233800	0.129819	0.258852	0.373028	5732.006143	25591.105544	3576.894834	11180.071486
78.495500	0.237175	0.129436	0.261702	0.375391	5739.085189	25446.927042	3577.912650	11133.970396
78.598000	0.237153	0.129230	0.257872	0.376280	5732.714364	25389.682863	3568.094416	11116.689016
79.041000	0.237791	0.131028	0.259238	0.384011	5683.551769	25082.094483	3555.021331	10967.919767
79.535500	0.241491	0.132619	0.261084	0.382132	5722.157853	25261.529501	3562.650595	11003.844637
80.036000	0.243144	0.135023	0.263269	0.385274	5711.804608	25223.221455	3560.683250	10943.874455
80.536000	0.244521	0.135330	0.267500	0.390953	5682.100642	24946.609287	3557.717989	10836.583773
81.036500	0.249491	0.136599	0.273798	0.389954	5723.394053	25062.986759	3572.767575	10855.352070
81.539000	0.249829	0.138561	0.274517	0.392527	5707.860134	25031.564262	3568.918455	10807.080784
82.040000	0.254664	0.139305	0.278598	0.395156	5723.189699	24934.942968	3571.932173	10758.075110
82.534500	0.255069	0.141042	0.281225	0.401063	5685.107937	24722.687342	3565.140945	10649.009312
83.037500	0.256004	0.142793	0.283274	0.405037	5664.284943	24610.346258	3561.179643	10576.463922
83.535000	0.259697	0.143822	0.286488	0.402755	5705.366440	24777.839600	3572.534965	10618.038027
84.035500	0.264168	0.146388	0.286434	0.404836	5721.958539	24802.502179	3568.106275	10580.110356
84.535500	0.261535	0.146100	0.286592	0.409023	5674.854300	24576.136674	3559.809754	10504.361651
85.036000	0.265689	0.147367	0.287559	0.407895	5711.279743	24697.006378	3564.115004	10524.709838
85.535500	0.266683	0.148809	0.291867	0.409342	5708.134647	24696.732578	3570.028089	10498.622597
86.036500	0.269051	0.150706	0.285457	0.410992	5713.111067	24709.234322	3553.468718	10468.993419
86.537000	0.270807	0.151394	0.291258	0.416319	5688.422948	24475.595009	3554.435375	10374.096529
87.037500	0.273410	0.152258	0.298266	0.415239	5713.894882	24573.224928	3571.069729	10393.247028
87.537000	0.277251	0.153292	0.301556	0.417240	5726.701751	24524.671180	3573.750911	10357.819269
88.035000	0.277476	0.154340	0.297232	0.418271	5721.079464	24525.502832	3562.667877	10339.620609
88.535500	0.277254	0.155650	0.301815	0.421920	5694.260902	24408.383210	3564.590896	10275.580126
89.035500	0.280599	0.156123	0.298564	0.422326	5714.598607	24411.669428	3557.084781	10268.472944
89.535000	0.281331	0.156343	0.303410	0.422909	5715.633418	24393.599846	3565.840874	10258.304490
90.038000	0.285999	0.157687	0.309898	0.426254	5724.846562	24293.994113	3572.352086	10200.204359
90.536500	0.284354	0.158709	0.312459	0.427418	5705.331360	24286.900392	3575.259647	10180.087188
91.039000	0.283200	0.160361	0.312859	0.434312	5650.115290	24028.138297	3561.817224	10062.038710
91.539500	0.288784	0.160229	0.312774	0.431526	5707.554098	24158.767593	3567.382970	10109.514093
92.037500	0.287914	0.161634	0.311451	0.432615	5694.014601	24174.394365	3562.410394	10090.928718
92.534500	0.289920	0.162035	0.314501	0.435092	5690.771183	24072.091836	3563.591103	10048.811233
93.035000	0.292752	0.163399	0.320699	0.441766	5664.408464	23812.609198	3562.609953	9936.507018
93.535500	0.295841	0.164714	0.316536	0.439059	5704.260234	24008.849169	3559.621246	9981.848179
94.035500	0.296362	0.164856	0.319651	0.439644	5703.823661	23987.157882	3564.821406	9972.031004
94.536000	0.298720	0.167080	0.322056	0.443910	5690.641190	23887.391199	3560.993769	9900.792496
95.036000	0.299285	0.166722	0.321233	0.442812	5702.124060	23923.469369	3561.558846	9919.061666
95.536500	0.299182	0.168007	0.326041	0.444988	5686.403624	23880.020381	3566.982216	9882.914678
96.039500	0.305195	0.170514	0.327972	0.447699	5709.215309	23870.095645	3565.372195	9838.125435
96.537000	0.304886	0.169735	0.324583	0.449185	5696.790763	23760.075513	3555.369652	9813.679873
97.034500	0.306692	0.171077	0.327539	0.450007	5703.588477	23785.292046	3559.734255	9800.204745
97.535000	0.306127	0.171272	0.326267	0.450411	5696.889136	23775.137255	3556.304669	9793.582193
98.038000	0.308341	0.172525	0.329455	0.452923	5694.834880	23714.218250	3557.685610	9752.586088
98.534500	0.306603	0.173067	0.333001	0.455213	5667.174052	23629.868865	3560.257622	9715.415275
99.035500	0.310648	0.173019	0.333727	0.454120	5702.508359	23680.282026	3563.999001	9733.144648
99.536000	0.310328	0.174569	0.332510	0.455971	5687.527321	23665.758729	3557.701240	9703.168669
100.036000	0.313491	0.174827	0.333229	0.458646	5690.885761	23549.498518	3553.708540	9660.062018
100.539000	0.312972	0.175266	0.337333	0.459576	5680.921411	23525.972904	3560.195188	9645.147831
101.037000	0.312526	0.176917	0.341959	0.466808	5628.654779	23260.306109	3554.866029	9530.202172
101.536500	0.315809	0.176669	0.340265	0.461927	5684.259001	23480.609700	3561.387913	9607.568673
102.037500	0.315655	0.177353	0.343827	0.462827	5677.018687	23470.230932	3566.870636	9593.232700
102.537000	0.318338	0.178448	0.337155	0.464600	5683.263816	23437.901672	3549.590456	9565.087850
103.035500	0.314252	0.178476	0.334617	0.469409	5622.752149	23211.083252	3534.827273	9489.329186
103.535500	0.317368	0.179534	0.339027	0.466483	5663.722526	23399.914192	3549.568285	9535.321532
104.035500	0.319487	0.177031	0.335762	0.465233	5686.816086	23340.319306	3545.494526	9555.069706
104.539000	0.320823	0.179159	0.345616	0.468291	5674.986863	23296.230616	3559.309901	9506.862401
105.036500	0.318158	0.179937	0.337866	0.474833	5612.552366	23024.974670	3530.505274	9404.875627
105.537000	0.320374	0.181045	0.346571	0.470559	5656.431124	23278.160284	3556.624966	9471.341722
106.037000	0.319907	0.179022	0.345130	0.470048	5656.729254	23206.703905	3554.727337	9479.325874
106.537000	0.321213	0.182403	0.343392	0.473550	5641.802961	23200.954645	3544.110057	9424.751641
