sample name	sample
index	1302
start time	 04-29-2021  03:49:20 PM
880	0.564015
Peak Time (s)	100.035
Peak Height 	0.564
calc peak height	100,103
Baseline Time (s)	11.037
Baseline Value 	-0.004009
subtract baseline	10,4
Abs	0.351826
Peak Time (s)	102.537
Peak Height 	0.3518
calc peak height	100,103
Baseline Time (s)	9.039
Baseline Value 	0.002033
subtract baseline	10,3
PK_550	0.193740
Peak Time (s)	101.037
Peak Height 	0.1937
calc peak height	100,103
Baseline Time (s)	11.537
Baseline Value 	7.0523E-4
subtract baseline	10,2
PK_880	0.328954
Peak Time (s)	101.037
Peak Height 	0.329
calc peak height	100,103
Baseline Time (s)	8.538
Baseline Value 	0.001597
subtract baseline	10,1


Time (s)	A880-A510	A880-A775	A880-A975	A880	I510	I775	I975	I880	
0.039000	-0.000450	0.000032	-0.000400	0.002199	6346.620408	41253.794321	3883.681873	21008.477149
0.536500	-0.003716	-0.000818	-0.006569	0.006946	6285.391034	40764.434830	3861.008068	20812.667060
1.036500	-0.001855	-0.000234	-0.008308	0.003416	6326.462205	41123.546620	3864.689044	20958.081180
1.537500	0.000184	-0.000429	-0.001818	0.001161	6359.544128	41304.637563	3882.883671	21051.611806
2.037500	-0.000790	0.000419	0.000789	0.000997	6353.274689	41393.817031	3888.722375	21058.398720
2.534500	-0.005022	-0.001122	-0.001863	0.006276	6280.581763	40796.249085	3872.104098	20840.186685
3.035000	-0.000218	-0.000546	0.000305	-0.002249	6382.906371	41595.862348	3894.584885	21193.937184
3.535500	0.001528	0.000139	-0.003768	0.001059	6370.754856	41363.658080	3879.006906	21055.839006
4.035500	-0.001989	0.000373	-0.000549	0.000335	6349.120970	41448.256454	3887.295233	21085.954105
4.536000	-0.002834	0.000176	-0.001745	0.003032	6321.902447	41193.213698	3879.111790	20973.961735
5.036000	0.002653	0.000418	0.004191	0.000899	6380.745838	41402.437479	3896.156589	21062.497142
5.536500	0.000670	0.000444	0.000203	0.000926	6365.125801	41402.332211	3887.635963	21061.375708
6.039500	-0.000951	-0.000764	-0.004286	-0.000036	6360.016127	41380.567076	3880.215795	21101.413925
6.534500	0.002057	0.000102	0.000667	0.000635	6378.159454	41397.787226	3889.231472	21073.460688
7.037500	-0.000926	0.000099	0.000861	-0.000094	6360.656411	41461.985709	3891.185597	21103.836741
7.535000	0.000695	-0.000442	-0.000539	-0.000514	6376.503826	41451.309284	3889.110735	21121.366887
8.035500	0.000851	-0.000006	-0.002218	0.000040	6373.406163	41440.820323	3884.398948	21098.244689
8.538000	0.000000	-0.000048	0.002746	-0.000036	6367.391820	41443.952511	3895.069574	21101.439373
9.038500	0.002265	0.000350	0.000000	0.000404	6381.580989	41440.220245	3888.310191	21083.104749
9.536000	-0.001015	0.000336	-0.004903	0.000279	6357.083291	41450.050461	3878.264752	21088.306412
10.036000	-0.001707	-0.000432	0.000744	-0.000292	6356.155696	41432.591962	3891.359456	21112.122541
10.537000	0.000621	0.000520	0.006695	0.001004	6364.145784	41402.205574	3901.286120	21058.140476
11.036500	-0.000500	-0.000684	-0.002073	0.000000	6363.231135	41384.498233	3884.788581	21099.928634
11.537000	0.001012	0.000000	-0.004211	-0.000144	6376.086670	41457.670249	3880.598061	21105.921235
12.034500	0.002871	0.001187	-0.002775	0.000459	6385.874979	41509.378964	3882.348202	21080.814048
12.535000	-0.000859	-0.000641	-0.002525	-0.000571	6364.875942	41438.780294	3885.038697	21123.738204
13.035000	-0.001128	-0.000293	-0.003389	0.003630	6330.392548	41099.588416	3874.431487	20949.220901
13.536000	0.001108	0.000308	0.003253	0.000379	6372.771215	41438.694600	3895.265518	21084.141450
14.036000	0.000938	-0.000130	-0.002165	0.001786	6360.540993	41275.912339	3880.842772	21025.639649
14.539000	-0.001746	0.000696	0.003121	0.002493	6334.381589	41286.391302	3890.493930	20996.314708
15.036000	-0.003173	-0.000519	-0.001704	0.004743	6306.249997	40982.405860	3875.625193	20903.290641
15.542000	0.001330	0.000309	0.000643	0.000309	6375.039310	41444.908328	3889.869948	21087.035204
16.037000	0.001279	0.000129	0.001350	0.000145	6375.927378	41443.606274	3891.719034	21093.901619
16.534500	0.000242	0.000200	-0.000441	0.002210	6351.876677	41267.588689	3883.571137	21008.019684
17.035000	0.000348	-0.000258	-0.000264	0.000937	6362.541887	41339.459182	3886.626323	21060.909790
17.535500	0.000616	0.000224	-0.000939	0.000546	6367.655612	41416.531831	3886.028799	21077.193878
18.035000	-0.000043	0.000230	-0.000968	0.001284	6356.836199	41351.934943	3884.411944	21046.500656
18.535500	-0.001161	-0.000210	-0.001343	0.001118	6349.473944	41327.711838	3883.972270	21053.381178
19.036000	-0.000440	-0.000161	0.004267	0.001620	6351.168308	41287.819846	3894.781811	21032.523033
19.536000	0.000800	0.000243	0.003736	0.001318	6363.098177	41349.994615	3894.295936	21045.076880
20.035500	0.000276	0.000013	-0.004884	0.001264	6359.454946	41334.571677	3876.247591	21047.332356
20.536500	0.001449	0.000252	-0.003356	0.001454	6367.068739	41338.768228	3879.041988	21039.401715
21.037000	0.001419	0.000139	0.000184	0.001101	6369.574142	41359.984501	3887.224605	21054.082992
21.540500	-0.000723	-0.000771	-0.002993	0.000633	6356.607191	41320.977335	3881.524523	21073.553669
22.035000	0.000280	0.000185	0.000007	0.001395	6358.467666	41338.082750	3886.230372	21041.854372
22.540500	-0.000230	-0.000471	0.000252	0.000721	6359.741416	41339.671128	3888.172929	21069.909128
23.035500	0.000264	-0.000448	-0.002000	0.001440	6358.000904	41278.350754	3881.914983	21040.011213
23.538500	-0.000917	-0.000367	-0.002038	0.000736	6354.310043	41347.583502	3883.314704	21069.282521
24.036000	-0.001599	0.000090	-0.000508	0.001724	6341.430594	41300.785564	3884.454324	21028.208657
24.536500	0.000091	-0.000362	-0.004870	0.001045	6359.718293	41320.754751	3876.733845	21056.412974
25.039500	0.000979	0.000248	0.002796	0.001629	6362.074928	41323.027491	3891.636907	21032.156710
25.537000	0.001266	0.000316	0.000544	0.001455	6365.641674	41344.364998	3887.238204	21039.375938
26.037500	0.000967	0.000745	0.002062	0.001815	6360.542228	41350.463588	3889.687000	21024.441991
26.535000	-0.001098	0.000494	-0.000066	0.001612	6346.147668	41346.216573	3885.620075	21032.836620
27.035000	0.001491	-0.000017	0.001151	-0.000924	6385.900276	41525.205579	3893.565125	21138.479185
27.535500	0.000083	0.000254	0.003435	-0.001251	6377.476086	41578.206441	3899.132523	21152.137715
28.035500	0.001280	0.000216	-0.000044	0.000419	6373.795996	41427.011416	3888.184204	21082.462622
28.536000	-0.000368	0.000505	-0.000468	0.000344	6361.592602	41459.252548	3887.449331	21085.610014
29.036000	0.002467	0.000915	-0.003202	0.000282	6384.110850	41501.008475	3881.822649	21088.187654
29.537000	-0.001606	0.000421	-0.001542	0.000734	6349.003922	41417.264844	3884.360182	21069.336756
30.037000	0.001740	0.000052	0.000012	-0.000209	6382.268607	41468.092412	3889.631400	21108.647595
30.536500	-0.000878	-0.000174	-0.000561	0.002327	6342.330866	41224.399896	3883.072782	21003.167680
31.034500	0.000848	0.000604	-0.003176	0.002916	6351.105362	41241.043076	3876.365849	20978.781791
31.534500	0.000218	0.000434	0.002787	0.000311	6366.393770	41455.892923	3894.418325	21086.978624
32.035000	0.001860	0.000155	0.004165	-0.000074	6382.145580	41465.246768	3898.177055	21103.011053
32.538000	-0.000813	0.000824	0.003526	0.001243	6351.193951	41407.869195	3894.005470	21048.169739
33.035000	-0.000388	0.000150	0.004757	-0.000310	6366.508249	41485.634481	3899.948300	21112.855060
33.539000	0.002762	-0.000030	0.003453	-0.001567	6400.869703	41581.078288	3899.847101	21165.370905
34.036000	0.000500	0.000787	-0.002654	0.002330	6352.937427	41308.730202	3878.678502	21003.046181
34.536000	-0.000090	0.000941	-0.001841	0.002813	6344.663438	41279.768696	3879.369497	20983.058055
35.034000	0.000796	-0.000155	0.004655	0.002106	6356.969601	41245.580077	3894.574678	21012.366934
35.536500	-0.001069	-0.000014	-0.003288	0.001988	6343.477290	41268.279477	3878.068498	21017.236718
36.034500	0.001062	0.000112	-0.001877	0.002173	6358.497014	41263.122385	3880.634503	21009.561463
36.535000	-0.000580	0.000641	0.003864	0.002830	6340.760566	41251.832368	3891.354033	20982.338376
37.035000	-0.000075	0.000416	-0.005752	0.003033	6343.080392	41214.184295	3870.762612	20973.921003
37.541000	0.000170	-0.000515	-0.000376	0.001895	6353.755137	41232.417318	3884.371750	21021.120126
38.035500	0.000832	-0.000496	-0.003571	0.001860	6359.144117	41237.219532	3877.744380	21022.567304
38.538500	-0.002408	0.000396	0.002442	0.002351	6330.386520	41272.434335	3889.356117	21002.189094
39.036000	0.001710	0.000587	0.004301	0.002689	6359.520412	41259.534664	3892.579826	20988.166920
39.536500	-0.000388	-0.000265	0.001334	0.001552	6352.094568	41284.571678	3888.702992	21035.342909
40.034500	-0.002644	-0.000641	-0.000966	0.001775	6332.998745	41231.829527	3883.382785	21026.070586
40.537000	-0.001361	0.000132	0.003152	0.002352	6338.424040	41249.084064	3890.856366	21002.125984
41.035000	0.000164	0.000254	0.001947	0.002808	6346.661566	41219.806040	3887.344671	20983.258634
41.535000	0.001277	0.000235	-0.004083	0.001942	6361.958175	41294.335500	3876.504696	21019.164586
42.035500	0.001133	0.000234	-0.000965	0.002130	6359.382661	41277.613071	3882.638289	21011.353336
42.536000	-0.000532	0.000284	0.001684	0.002191	6346.047863	41276.652878	3888.092162	21008.810982
43.036500	0.001155	0.000911	-0.002835	0.003263	6350.793990	41237.528579	3876.351045	20964.402681
43.538500	0.000541	-0.000300	0.001986	0.001037	6363.264387	41326.857040	3891.174253	21056.746990
44.036500	0.000937	0.000046	0.000733	-0.000241	6376.266616	41470.357516	3891.227667	21109.979804
44.540000	0.001060	-0.000364	-0.000572	0.000495	6371.500232	41369.117098	3886.909128	21079.322021
45.037000	-0.000251	0.001118	0.001412	0.003605	6337.325789	41225.654892	3884.534781	20950.262767
45.534500	-0.001086	0.000001	0.002229	0.000402	6355.584337	41409.526275	3893.038366	21083.183470
46.038000	0.002197	0.000668	0.001697	0.000903	6377.167480	41424.200709	3890.845917	21062.339310
46.535000	0.000875	-0.000272	-0.000881	0.000314	6371.470834	41393.206370	3886.639096	21086.852764
47.035500	0.000531	0.000026	-0.000625	0.003531	6343.914802	41136.187086	3880.411653	20953.307111
47.536000	-0.000535	-0.000038	0.001267	0.002526	6343.443346	41218.898801	3886.502883	20994.922818
48.036000	0.000230	0.000158	-0.000011	0.000784	6362.815412	41389.641995	3887.483362	21067.258847
48.539500	-0.001707	0.000328	0.003348	0.000685	6348.606480	41413.416397	3894.815482	21071.399413
49.036000	-0.000216	0.000052	-0.006534	0.002524	6345.917376	41226.938562	3870.198138	20995.020008
49.537000	0.001735	0.000498	0.000364	-0.002238	6398.072740	41687.701332	3894.684743	21193.460588
50.037000	0.000520	-0.000665	0.000541	-0.000384	6374.132121	41420.079360	3891.121734	21115.927106
50.537500	-0.001414	-0.001051	-0.000616	0.005621	6312.969745	40859.499112	3876.061854	20867.127317
51.035000	-0.001184	-0.008421	0.009351	0.135131	5459.378408	30634.676371	3658.107592	16258.749955
51.538000	-0.016149	-0.023014	0.000189	0.158442	5251.689387	28328.227264	3608.552093	15565.579607
52.035500	-0.038888	-0.033194	-0.017433	-0.078998	6693.144067	45717.029162	4029.109997	24711.754768
52.536000	-0.041745	-0.037823	-0.010498	-0.162846	7450.778112	54257.217815	4275.278660	29336.603104
53.036500	-0.030536	-0.047201	-0.008012	-0.225521	8276.642809	60944.947598	4486.534562	33426.081427
53.536500	-0.003548	-0.032834	0.013821	-0.206046	8368.769364	60267.844345	4494.790647	32091.625816
54.036500	0.009875	-0.022693	0.022331	-0.172543	8126.070897	57270.570951	4409.529676	29931.359562
54.537000	0.012720	-0.007214	0.036263	-0.051735	6906.222661	45591.141856	4095.557403	23390.382756
55.035000	0.020733	-0.000314	0.032861	-0.024400	6736.130013	43635.207016	4018.667022	22146.218628
55.535000	0.043279	0.009730	0.053411	-0.014397	6845.677346	43639.056250	4044.442680	21710.177609
56.035000	0.055031	0.018471	0.070216	0.013369	6706.362261	41898.747740	4017.669261	20551.077018
56.535500	0.080795	0.033746	0.085494	0.034919	6742.526728	41341.329819	4002.650711	19701.199684
57.036000	0.105133	0.049730	0.109752	0.059383	6741.444139	40600.719769	4002.163699	18786.172104
57.536500	0.122440	0.061790	0.124167	0.084292	6676.473556	39505.657940	3977.526302	17905.934000
58.039500	0.138444	0.069500	0.142622	0.121914	6497.835816	37078.423652	3934.039190	16668.603924
58.537000	0.152017	0.078537	0.156790	0.159048	6312.995881	34945.953400	3884.398121	15548.054816
59.037000	0.167806	0.084856	0.177735	0.196444	6152.087327	32742.421567	3850.420687	14512.385118
59.537500	0.178358	0.090067	0.188631	0.220894	6052.729993	31455.259518	3823.374241	13881.889080
60.037500	0.188728	0.095570	0.200539	0.260552	5853.492090	29306.008354	3770.569108	12931.792571
60.535000	0.199426	0.100579	0.210462	0.299704	5672.371624	27319.957685	3718.480672	12075.174500
61.035500	0.207374	0.107436	0.229205	0.335942	5503.681880	25731.554966	3688.937712	11348.262683
61.535500	0.219825	0.112979	0.245662	0.367651	5394.981556	24404.636699	3664.136526	10760.109133
62.036000	0.224281	0.116954	0.253367	0.386934	5314.512876	23664.615977	3645.883148	10422.876297
62.536500	0.230218	0.116737	0.262941	0.415347	5197.653932	22348.679613	3617.203458	9952.483348
63.035500	0.232854	0.118810	0.267529	0.445596	5062.119977	21135.643952	3580.085269	9484.385767
63.537000	0.235564	0.119334	0.284156	0.481336	4910.922851	19726.032373	3553.829657	8971.732784
64.037000	0.236826	0.119651	0.280473	0.510084	4793.575850	18668.516810	3511.839265	8588.909601
64.534500	0.240597	0.126499	0.287064	0.522564	4757.922613	18467.132508	3504.546066	8430.459050
65.034000	0.247093	0.128874	0.290837	0.530106	4753.684553	18284.639846	3499.928421	8336.875841
65.538000	0.249087	0.132800	0.298387	0.535885	4738.445504	18219.755463	3502.093965	8266.271012
66.038500	0.255997	0.135707	0.283932	0.541361	4744.202281	18130.178672	3478.237642	8200.220602
66.535500	0.258451	0.139301	0.291977	0.545742	4736.472971	18102.900082	3482.542668	8147.982193
67.035000	0.260855	0.141777	0.301933	0.553624	4714.675790	17916.503510	3484.993788	8055.303867
67.539000	0.266080	0.144683	0.303129	0.552369	4740.487852	18059.754466	3487.907804	8069.948652
68.036500	0.267900	0.147006	0.302129	0.554043	4741.072354	18082.204145	3484.730074	8050.420037
68.537500	0.266221	0.148576	0.296905	0.552275	4741.432987	18198.289580	3480.652252	8071.043858
69.037000	0.268731	0.150165	0.291035	0.552725	4749.719377	18238.082346	3473.277994	8065.781491
69.535000	0.270812	0.152127	0.301744	0.543887	4794.337432	18620.847230	3496.436487	8170.039384
70.035000	0.275652	0.155934	0.299717	0.544239	4812.998165	18745.298575	3493.561150	8165.836609
70.535000	0.277839	0.157548	0.307848	0.534221	4864.740820	19171.681418	3515.892505	8286.502610
71.035500	0.281583	0.159911	0.306858	0.533109	4885.736448	19301.320160	3516.045931	8300.070267
71.535500	0.287247	0.163793	0.317109	0.528805	4929.576073	19610.763503	3534.646735	8352.905267
72.038500	0.284769	0.163816	0.310110	0.530172	4912.549575	19559.551996	3523.879178	8336.066611
72.536000	0.285443	0.164744	0.315502	0.525303	4937.145547	19781.566756	3537.115809	8396.286856
73.037000	0.287430	0.165104	0.306647	0.523999	4951.903407	19845.847381	3527.345721	8412.531420
73.536500	0.289712	0.166817	0.302025	0.523513	4964.394901	19931.186074	3522.064657	8418.592423
74.037000	0.285878	0.167750	0.304232	0.527234	4930.478272	19823.081880	3520.143738	8372.322854
74.540500	0.295801	0.168144	0.315924	0.522724	4995.793775	20013.676212	3541.045696	8428.455440
75.035000	0.297901	0.171783	0.315690	0.527464	4983.686332	19970.692352	3534.545604	8369.475660
75.534500	0.296296	0.172714	0.320462	0.526475	4980.868124	20045.727296	3542.080570	8381.724222
76.036000	0.296050	0.173279	0.318748	0.531181	4958.386784	19884.334889	3533.691044	8323.678868
76.535500	0.296506	0.172280	0.323664	0.524586	4990.477771	20102.800436	3548.824030	8405.213072
77.036000	0.297326	0.173007	0.318197	0.524846	4993.051457	20121.178644	3541.244945	8401.975976
77.537000	0.297866	0.174776	0.312964	0.525816	4991.074082	20152.605426	3533.146778	8389.903836
78.037000	0.300137	0.175246	0.318180	0.526210	4999.711025	20155.613688	3539.431251	8385.018714
78.537500	0.302308	0.177662	0.322478	0.527772	5002.517870	20189.309291	3543.029049	8365.668506
79.034500	0.303822	0.175596	0.313823	0.527687	5009.916094	20111.255776	3531.837895	8366.722683
79.535000	0.299353	0.178794	0.324754	0.531210	4973.221079	20098.494295	3541.497626	8323.320457
80.035000	0.301129	0.177743	0.331031	0.531417	4980.374632	20049.124751	3549.537937	8320.783067
80.535500	0.303195	0.177833	0.314757	0.532573	4984.529883	20007.424140	3526.749471	8306.621920
81.035500	0.302266	0.178227	0.320734	0.538592	4952.995778	19789.061481	3526.695299	8233.513811
81.538500	0.302060	0.177925	0.332746	0.535574	4965.697802	19894.152178	3546.290025	8270.049921
82.036500	0.305461	0.179940	0.316533	0.537489	4972.443340	19898.025124	3522.741004	8246.840761
82.537000	0.303445	0.180508	0.328752	0.539875	4952.523878	19827.578048	3535.391213	8218.058986
83.036500	0.307974	0.180613	0.324054	0.544040	4954.166215	19671.337424	3523.975575	8168.209728
83.537000	0.306651	0.182257	0.332800	0.543965	4948.547585	19737.295619	3535.336594	8169.099726
84.034500	0.309610	0.183104	0.338686	0.545296	4955.878465	19718.750015	3541.295812	8153.277165
84.535500	0.310034	0.181507	0.333773	0.544185	4962.810224	19700.045309	3536.317607	8166.479674
85.035500	0.310031	0.184284	0.328886	0.546988	4950.157065	19699.067665	3526.382972	8133.216183
85.535000	0.311679	0.184832	0.332283	0.548337	4951.503742	19668.384846	3529.012685	8117.285633
86.039000	0.311892	0.183998	0.337566	0.547767	4955.027553	19658.280812	3536.593647	8124.007903
86.536000	0.317998	0.186269	0.332380	0.549858	4973.209517	19665.156893	3527.182758	8099.373401
87.037000	0.312914	0.185999	0.336771	0.549485	4951.890808	19669.114819	3533.326198	8103.760273
87.537000	0.314038	0.184871	0.337912	0.548563	4961.119121	19661.197025	3536.006330	8114.611767
88.036500	0.311754	0.185410	0.337346	0.555350	4920.531560	19423.764088	3526.509046	8035.231757
88.537500	0.316960	0.186667	0.326285	0.549993	4967.880519	19675.226008	3519.251015	8097.789386
89.035000	0.317742	0.187977	0.343516	0.552147	4961.665183	19642.927674	3538.644013	8072.543194
89.535500	0.320013	0.187906	0.334981	0.551644	4974.247144	19659.467454	3528.228908	8078.424262
90.035000	0.319824	0.188543	0.344432	0.551697	4973.148053	19681.844403	3540.435244	8077.809471
90.535500	0.316659	0.189102	0.333198	0.552358	4955.819175	19677.916158	3525.029987	8070.073397
91.038500	0.319706	0.188671	0.341947	0.552064	4970.941224	19672.663319	3536.702730	8073.504993
91.536500	0.318096	0.189270	0.333633	0.552157	4963.219672	19692.050042	3525.842993	8072.419235
92.036500	0.318989	0.191154	0.337932	0.561267	4926.375789	19417.222726	3519.722776	7967.023572
92.537000	0.321603	0.189373	0.336335	0.554131	4970.172083	19620.490501	3526.775240	8049.400214
93.034500	0.317369	0.188437	0.333574	0.556367	4940.999703	19499.789274	3520.408658	8023.444814
93.535000	0.324103	0.188290	0.337720	0.554133	4981.550454	19579.105805	3528.550547	8049.376873
94.035500	0.316901	0.189676	0.331638	0.561871	4914.462225	19338.939779	3511.064645	7960.122115
94.535500	0.323032	0.190450	0.341543	0.556051	4967.941934	19588.316131	3531.004749	8027.105355
95.035500	0.319404	0.191171	0.341355	0.558101	4942.349047	19537.748592	3528.122820	8003.403896
95.539000	0.322511	0.189289	0.343469	0.556238	4964.731274	19536.995767	3533.254227	8024.935550
96.036000	0.322363	0.190704	0.329831	0.563408	4931.862301	19319.852270	3506.916953	7942.581255
96.536500	0.320687	0.190330	0.343095	0.557766	4949.605568	19518.524119	3530.793261	8007.264773
97.037000	0.322833	0.190806	0.345264	0.558703	4955.047217	19501.017792	3532.386292	7996.465169
97.537000	0.322870	0.190302	0.334921	0.558043	4958.191126	19506.966602	3519.992051	8004.072739
98.037500	0.319364	0.191013	0.335896	0.565166	4910.788806	19265.583392	3512.264961	7922.587057
98.534500	0.322241	0.191463	0.338769	0.559563	4948.516062	19493.355543	3522.947087	7986.574626
99.035000	0.326167	0.191494	0.343232	0.559502	4966.511213	19496.844294	3528.734545	7987.275715
99.534500	0.324737	0.190323	0.343471	0.558395	4965.045462	19494.395589	3530.468006	8000.012666
100.035500	0.320594	0.190255	0.342684	0.564015	4921.312114	19280.301241	3522.264578	7935.671016
100.538500	0.325517	0.191299	0.344548	0.558970	4965.971623	19509.595741	3531.115726	7993.393726
101.036500	0.328954	0.193740	0.343941	0.561467	4970.238439	19507.487834	3527.122579	7964.742348
101.536500	0.328507	0.193125	0.346753	0.560538	4972.425454	19519.376518	3531.938958	7975.374856
102.037000	0.323478	0.191990	0.350468	0.559463	4954.528675	19517.085156	3538.167519	7987.717842
102.537000	0.325116	0.191675	0.351826	0.559450	4961.984362	19505.658744	3539.963862	7987.872756
103.037500	0.327478	0.191548	0.348954	0.559298	4973.388820	19506.602439	3536.407170	7989.617703
103.535000	0.327865	0.191112	0.343885	0.558734	4977.721645	19511.471395	3530.564180	7996.109255
104.035500	0.329244	0.190738	0.345404	0.557749	4988.527916	19534.679246	3533.805171	8007.469232
104.535500	0.325822	0.193396	0.347291	0.559808	4963.560392	19557.447696	3533.581203	7983.762901
105.039000	0.324227	0.191162	0.340394	0.562871	4942.588234	19357.195104	3520.810014	7948.701793
105.541500	0.326111	0.192719	0.348621	0.559754	4965.113547	19533.723136	3535.378596	7984.376485
106.036500	0.325087	0.191204	0.346106	0.557725	4969.672218	19553.276560	3534.747711	8007.746425
106.537500	0.321986	0.189645	0.340530	0.556770	4959.950067	19530.362431	3528.773018	8018.783368
107.037000	0.324145	0.193065	0.343529	0.561530	4948.231470	19479.496684	3526.512798	7964.013344
107.537000	0.326891	0.193372	0.359831	0.559940	4967.805764	19551.476254	3549.906759	7982.238773
108.035000	0.327579	0.194129	0.346844	0.559833	4971.414063	19584.382741	3532.969701	7983.472503
