sample name	sample
index	1505
start time	 05-18-2021  02:39:52 PM
880	0.367885
Peak Time (s)	90.535
Peak Height 	0.3679
calc peak height	90,93
Baseline Time (s)	10.036
Baseline Value 	-0.003159
subtract baseline	10,4
Abs	0.238555
Peak Time (s)	92.539
Peak Height 	0.2386
calc peak height	90,93
Baseline Time (s)	10.539
Baseline Value 	0.003496
subtract baseline	10,3
PK_550	0.148073
Peak Time (s)	90.035
Peak Height 	0.1481
calc peak height	90,93
Baseline Time (s)	10.539
Baseline Value 	7.378E-5
subtract baseline	10,2
PK_880	0.239189
Peak Time (s)	91.535
Peak Height 	0.2392
calc peak height	90,93
Baseline Time (s)	8.534
Baseline Value 	5.9175E-4
subtract baseline	10,1


Time (s)	A880-A510	A880-A775	A880-A975	A880	I510	I775	I975	I880	
0.035000	0.000078	-0.000649	-0.004334	0.002261	6603.774503	44096.479135	3985.634384	22867.853253
0.535500	-0.004407	-0.000157	-0.002535	0.007222	6525.709149	43675.888821	3978.120521	22641.891459
1.035500	-0.004396	-0.000672	-0.008883	0.003983	6552.380079	43931.815122	3970.784357	22789.150992
1.536500	0.000305	0.000329	0.000233	0.001988	6607.955249	44215.104846	3997.247705	22880.367605
2.036500	-0.001218	0.000639	0.001636	0.001920	6595.809219	44250.955690	4000.803949	22883.511995
2.537000	-0.003829	-0.001049	-0.009391	0.005786	6542.210535	43726.882376	3965.363913	22707.037435
3.040000	-0.001267	0.000347	-0.001225	-0.000462	6615.314934	44450.011002	3999.645256	22993.031262
3.534500	0.000515	0.000756	-0.003120	0.001740	6611.792853	44279.107498	3989.782833	22891.734295
4.035000	-0.000400	0.000079	0.000756	0.001174	6608.876272	44268.677992	4000.477800	22917.740983
4.535500	-0.000624	-0.000433	-0.002430	0.000756	6610.493608	44259.752506	3993.802197	22936.944755
5.035000	0.000109	-0.000297	0.000575	0.000216	6621.167465	44323.997591	4002.361227	22961.789581
5.536000	-0.001013	-0.000275	-0.001589	0.000770	6607.119456	44273.353477	3995.791781	22936.287375
6.036000	0.001621	0.000368	-0.001381	0.001141	6626.097440	44299.203925	3995.397483	22919.226243
6.539000	-0.000363	0.000269	-0.001643	0.001172	6609.198366	44286.974479	3994.694920	22917.842923
7.037000	-0.001049	0.000780	-0.002439	0.001358	6601.911607	44317.849396	3992.332606	22909.288415
7.537500	-0.000420	-0.000290	-0.005087	0.000585	6613.638703	44289.549345	3987.841705	22944.802358
8.037500	-0.002435	-0.000999	-0.001247	0.000241	6599.658928	44254.856982	3997.891586	22960.616946
8.534500	0.000000	0.000406	-0.001251	0.001319	6611.002812	44285.900192	3995.281858	22911.059834
9.034500	-0.001752	-0.000753	-0.001594	0.000177	6605.904798	44284.289474	3997.209903	22963.576130
9.535500	0.000808	-0.000738	0.002426	-0.000252	6630.976178	44326.600106	4007.996533	22983.341536
10.035500	0.000390	0.000009	0.000330	0.000000	6625.339959	44373.701451	4002.288568	22971.723376
10.538500	-0.000787	0.000000	0.000000	-0.000293	6617.925183	44400.756559	4002.200365	22985.236738
11.036500	-0.000874	0.000962	0.003730	0.000662	6609.183790	44401.384432	4008.946149	22941.247880
11.536500	0.000208	-0.000259	-0.002367	-0.000253	6625.934540	44372.271296	3996.381198	22983.373813
12.037000	-0.000446	-0.000532	-0.000632	-0.000209	6620.079984	44342.052817	4000.467282	22981.367918
12.537000	0.001075	-0.000170	0.000671	-0.000300	6633.628128	44385.213338	4003.845089	22985.544855
13.037500	-0.002854	0.000657	-0.002774	0.000093	6597.403333	44426.572162	3994.569157	22967.439413
13.535000	-0.000338	0.000805	-0.002133	0.000564	6614.499250	44395.705632	3994.976968	22945.751670
14.035500	-0.003168	-0.000584	-0.000249	0.000963	6587.538886	44225.772117	3998.558533	22927.444991
14.539000	-0.002191	0.000474	-0.002531	0.005527	6557.823013	43894.280117	3982.153415	22718.815985
15.035500	-0.000326	0.000153	-0.002879	-0.000237	6621.321817	44410.016379	3995.110633	22982.660091
15.536000	-0.000846	0.000073	-0.005036	-0.000179	6616.468572	44396.807293	3989.789891	22979.956744
16.036500	0.000544	0.000069	-0.003704	-0.000250	6628.735950	44403.167819	3993.157335	22983.238000
16.536500	0.001662	0.000441	0.001912	0.000187	6634.472716	44396.995490	4005.676599	22963.118629
17.040000	0.002359	0.000354	0.003612	-0.002168	6660.276082	44613.691200	4015.583279	23071.818890
17.537000	-0.000574	0.000230	0.000974	0.000933	6609.432068	44305.976331	4001.589844	22928.818505
18.037500	-0.001968	0.000023	-0.000783	0.001220	6595.392211	44259.017607	3996.650697	22915.632508
18.535000	-0.001359	0.000325	-0.000386	0.001048	6601.906814	44303.972300	3998.022015	22923.497000
19.035000	-0.001544	-0.000324	-0.005874	0.000790	6602.518294	44266.811822	3985.471421	22935.381675
19.538000	0.000347	0.000804	-0.002984	0.001549	6611.988560	44301.965084	3990.567058	22900.525569
20.035500	-0.000335	-0.000453	-0.001118	0.000411	6615.808228	44290.556414	3997.791436	22952.798752
20.536000	-0.002688	-0.001049	-0.006974	0.001663	6585.713096	44115.354149	3980.777742	22895.295906
21.036000	0.001814	0.000806	-0.002237	0.001289	6626.472203	44326.819047	3992.981823	22912.431209
21.536500	-0.000511	-0.000422	-0.003782	0.000706	6611.852538	44265.442202	3990.675023	22939.223365
22.036500	0.000210	0.000990	-0.002169	0.001695	6609.610630	44305.701103	3992.172190	22893.808715
22.537000	-0.001855	0.000256	-0.006588	0.002833	6582.907387	44128.013016	3978.914679	22841.668098
23.034500	-0.000069	-0.000113	-0.001247	0.001479	6609.090754	44221.443253	3994.908818	22903.742960
23.535000	-0.002471	-0.000158	-0.000051	0.001009	6592.956029	44261.771350	3998.925789	22925.301116
24.038000	0.000556	0.000471	0.000144	0.001479	6614.324740	44276.932079	3998.262439	22903.743594
24.535500	-0.001212	0.000606	0.003476	0.003317	6584.227136	44115.335600	4001.874371	22819.541267
25.035500	-0.002436	-0.000567	-0.003148	0.000747	6595.428823	44247.797501	3992.095933	22937.339383
25.536500	-0.001063	-0.000099	-0.001774	0.001554	6600.155828	44215.672295	3993.460194	22900.280951
26.040500	-0.001027	-0.000333	-0.001658	0.001111	6604.151095	44235.486921	3994.802058	22920.605743
26.539500	0.001812	0.000576	-0.000133	0.001597	6623.876431	44275.658956	3997.308332	22898.327275
27.037500	-0.000170	0.001370	0.002855	0.002702	6598.028399	44246.143479	4001.860461	22847.674989
27.537000	0.001965	0.000048	-0.001605	-0.000369	6641.719305	44412.572476	3998.501590	22988.744229
28.034500	-0.001681	0.000096	-0.002456	0.001528	6595.221258	44236.659536	3991.883912	22901.484657
28.541000	0.002489	0.000669	-0.001460	0.000733	6636.844173	44366.680661	3996.190211	22937.992554
29.035500	0.001577	0.000558	-0.001256	0.000205	6633.603275	44406.503439	3997.958151	22962.297096
29.536000	0.000715	0.000794	0.000052	0.000700	6622.188342	44381.733320	3999.920538	22939.520500
30.036000	-0.000591	0.000171	-0.003530	0.002272	6598.100239	44173.099271	3987.529602	22867.350125
30.536000	-0.001085	0.000761	0.002143	0.000441	6609.273714	44403.332395	4005.620328	22951.431257
31.037000	-0.001279	-0.000490	0.000419	0.002206	6592.915712	44116.808089	3997.169864	22870.391246
31.536500	-0.001943	-0.000238	-0.002151	0.000184	6604.247985	44332.676101	3995.849482	22963.259047
32.037000	-0.002135	-0.000013	-0.004010	0.002692	6581.748561	44115.875600	3985.380739	22848.114557
32.534500	-0.002113	0.000228	-0.001519	0.005222	6560.989106	43899.859216	3985.288473	22732.682519
33.035000	0.001749	0.000087	-0.005507	0.000276	6634.452656	44354.804977	3987.574462	22959.010790
33.535500	0.000814	0.000237	-0.000488	-0.000158	6630.233224	44410.491230	4000.691027	22979.000603
34.035500	-0.001989	0.000335	-0.001631	0.002960	6580.743791	44123.486836	3990.428367	22835.872251
34.538500	0.002219	0.000807	-0.000518	0.002346	6620.993991	44226.424142	3994.574785	22863.969182
35.036500	-0.000218	0.000072	-0.001625	0.001731	6605.732659	44215.045282	3993.391820	22892.151272
35.539000	-0.001877	0.000624	0.000870	0.002258	6587.508105	44217.437737	3998.134042	22868.015958
36.039500	-0.000516	0.000773	-0.001047	0.003728	6586.590540	44092.211740	3989.986593	22800.748728
36.537000	0.000470	0.000667	0.004199	0.001946	6609.694377	44251.215116	4006.962416	22882.325344
37.037500	-0.002242	0.000264	-0.001505	0.001881	6587.606032	44219.068797	3993.319471	22885.293160
37.534500	-0.000373	0.000874	-0.003099	0.002371	6599.093843	44230.412830	3988.321281	22862.807169
38.035000	-0.001615	0.000893	-0.001990	0.001752	6593.900570	44291.085831	3992.464240	22891.196691
38.535500	-0.000534	-0.000017	-0.004027	0.001602	6604.174811	44218.921598	3987.942457	22898.088737
39.036000	-0.000133	-0.000022	-0.002289	0.001806	6605.823126	44199.102907	3991.617494	22888.732699
39.539000	0.000312	-0.000005	0.002328	0.001656	6610.801522	44214.961126	4003.120286	22895.624531
40.036500	-0.000389	0.000317	-0.000304	0.001796	6603.759236	44232.125391	3996.413285	22889.164057
40.537000	-0.000549	-0.000236	-0.009353	0.003470	6588.468259	44021.281811	3970.883612	22812.551253
41.037000	-0.001835	0.000471	-0.003297	0.001768	6591.925467	44249.416257	3989.291690	22890.443475
41.537000	-0.001475	0.000219	-0.007253	0.001433	6597.730911	44257.327257	3980.660981	22905.853299
42.037500	-0.002204	0.000405	0.000054	0.003789	6572.085849	44051.808019	3992.483536	22798.002908
42.535000	-0.000680	0.000806	0.001063	0.004414	6579.534371	44030.545110	3993.403990	22769.456510
43.035500	0.000338	0.000967	0.005728	0.002420	6604.622204	44234.629084	4009.532553	22860.569320
43.535000	-0.001152	0.000404	-0.002492	0.001901	6596.523368	44230.502205	3990.903054	22884.388994
44.036000	-0.002398	0.000675	-0.001191	0.004315	6566.129562	44027.552413	3988.238259	22774.004521
44.536500	-0.002075	0.000276	0.003225	0.004169	6570.005259	44003.708064	3999.206029	22780.667591
45.036500	0.002016	0.000654	0.002376	0.000565	6634.270586	44381.308385	4005.886521	22945.725411
45.539500	0.000261	0.001107	0.001375	0.000528	6619.821726	44427.936966	4003.542229	22947.400299
46.037000	0.001051	0.000834	0.000758	0.000838	6623.852962	44372.468612	4001.296745	22933.167441
46.534500	-0.002371	-0.000186	-0.003129	0.003627	6572.035897	44011.200355	3985.250913	22805.362255
47.035000	-0.001510	0.000039	-0.003349	0.000180	6607.899862	44359.429486	3992.977536	22963.444374
47.540500	-0.001249	-0.000312	-0.003163	0.001826	6596.338630	44169.659409	3989.475017	22887.818757
48.035500	0.000998	0.000134	0.000191	0.002419	6610.154518	44155.743989	3996.108618	22860.645452
48.535000	-0.000968	0.000155	-0.002623	0.005130	6571.218830	43901.647529	3982.877994	22736.871462
49.036000	0.000606	0.000804	0.001622	0.000678	6621.457294	44384.778588	4003.777094	22940.506663
49.539000	-0.000633	0.000636	0.001777	0.000306	6614.185457	44404.226268	4005.057059	22957.615532
50.039500	-0.000670	-0.000133	-0.002690	0.004551	6578.482218	43928.990041	3984.094698	22763.207591
50.537000	-0.001248	0.000318	0.001176	0.005566	6565.286110	43875.955212	3990.909508	22717.013283
51.037500	0.001504	-0.001479	0.001917	0.022561	6449.450711	42145.096403	3952.654712	21959.219067
51.537500	0.008481	-0.018344	0.015621	0.465419	4248.525820	16585.320723	3322.969784	9819.954119
52.035000	-0.017029	-0.023981	-0.017477	-0.033684	6764.638888	45307.366057	4041.486886	24584.718623
52.535000	-0.030166	-0.061744	-0.031275	-0.218580	8603.039193	62365.371395	4568.729744	36055.620115
53.035500	-0.018896	-0.073908	-0.018926	-0.244945	9112.515583	64338.575530	4719.696639	38126.349928
53.536000	-0.011680	-0.048787	-0.014214	-0.203566	8648.208005	62084.862019	4576.377650	34931.367389
54.036000	-0.005569	-0.027097	-0.003861	-0.135217	7890.762749	56066.647580	4373.010664	30277.292501
54.536500	-0.006524	-0.023844	-0.000981	-0.125865	7775.471684	55326.767705	4351.954832	29695.568684
55.036500	0.000418	-0.018135	0.001300	-0.121444	7803.422687	55482.213737	4345.065331	29424.935533
55.537000	0.009659	-0.020764	0.012428	-0.149994	8242.394550	58709.537990	4478.562762	31222.379234
56.037000	0.026020	-0.006367	0.024553	-0.095798	7802.933494	53831.736536	4337.394737	27907.984059
56.537500	0.045844	0.006796	0.052104	-0.031153	7329.523249	48150.205687	4223.780604	24459.159703
57.035000	0.066817	0.021695	0.065222	0.024522	6995.106588	44104.320940	4104.837552	21873.672922
57.535000	0.093572	0.039235	0.090621	0.071954	6808.202814	41370.829512	4047.692157	19917.965892
58.035500	0.114885	0.052921	0.112725	0.121205	6569.374116	38354.190525	3981.147614	18101.039119
58.536000	0.134470	0.065858	0.129320	0.158217	6427.999390	36447.934845	3933.773668	16865.022389
59.036500	0.152738	0.079014	0.147365	0.194524	6287.516882	34711.970836	3893.247754	15750.721993
59.539000	0.160172	0.084877	0.164874	0.256697	5895.240997	30856.262826	3801.018615	14046.100191
60.037000	0.168324	0.092759	0.181949	0.287121	5749.257846	29447.559860	3775.244988	13296.799542
60.536500	0.181171	0.100328	0.186511	0.274037	5919.948829	30735.366023	3809.483503	13612.611753
61.034500	0.193976	0.106249	0.192352	0.277949	5980.870587	30863.955728	3813.313240	13517.183849
61.535000	0.203059	0.113999	0.200543	0.308674	5834.758529	29428.504193	3769.639117	12796.856831
62.035000	0.208724	0.120015	0.205994	0.337710	5684.928090	28064.369674	3726.290025	12161.383714
62.535500	0.210570	0.125872	0.207062	0.326781	5765.825537	29051.910411	3748.044065	12395.594762
63.036000	0.210741	0.128223	0.207710	0.328221	5757.684309	29106.634913	3746.591825	12364.410387
63.551000	0.214358	0.130422	0.209894	0.324792	5803.200709	29447.064684	3756.958990	12438.870769
64.039000	0.217534	0.132138	0.213028	0.323841	5830.201291	29609.922128	3764.588856	12459.617861
64.539500	0.218252	0.135009	0.214267	0.324766	5828.840583	29729.416297	3765.177893	12439.432043
65.037000	0.218961	0.135999	0.215720	0.324599	5834.599533	29800.664209	3768.227295	12443.072703
65.540000	0.219016	0.136330	0.217145	0.324516	5835.517789	29826.270063	3771.074745	12444.897273
66.037500	0.221099	0.138496	0.213663	0.328321	5824.191149	29725.263746	3757.406100	12362.246386
66.535500	0.223568	0.139788	0.218209	0.332509	5812.938966	29547.687410	3758.071258	12272.122207
67.035500	0.225790	0.140114	0.217458	0.335215	5809.777023	29402.571127	3751.660643	12214.339938
67.535500	0.224046	0.138858	0.217052	0.336343	5791.087189	29258.049978	3748.832576	12190.359210
68.035500	0.220789	0.139393	0.219131	0.342659	5729.693877	28910.972167	3741.073486	12057.257334
68.536000	0.225200	0.140768	0.215039	0.336017	5800.707707	29393.605377	3745.735388	12197.291804
69.039000	0.230194	0.142599	0.227843	0.336897	5827.598800	29451.451520	3767.896567	12178.609416
69.536000	0.228103	0.143516	0.227484	0.338653	5802.439522	29400.371520	3763.920548	12141.449823
70.036500	0.226647	0.144367	0.227058	0.346738	5741.001199	28964.356547	3748.117017	11972.312262
70.534500	0.224827	0.143780	0.220256	0.348094	5720.849517	28848.526528	3733.256765	11944.258316
71.035000	0.231249	0.144831	0.219670	0.344266	5786.428516	29140.480865	3739.129656	12023.704651
71.534500	0.231266	0.145234	0.235067	0.345654	5777.563207	29081.262190	3765.012899	11994.810221
72.035500	0.228318	0.145562	0.226434	0.353300	5710.027189	28645.573037	3735.012621	11837.334286
72.535500	0.231221	0.146478	0.229236	0.349143	5754.852315	28946.844617	3747.699807	11922.607752
73.036000	0.230299	0.146372	0.220795	0.348633	5752.216374	28970.947402	3733.256162	11933.119517
73.536500	0.231260	0.145964	0.226469	0.348337	5760.271335	28964.305240	3744.105761	11939.245738
74.036500	0.230824	0.146971	0.232773	0.354779	5716.502364	28641.429532	3743.851961	11807.190607
74.537000	0.228616	0.147004	0.226543	0.355269	5699.527201	28614.469548	3731.657571	11797.230310
75.037000	0.234123	0.148096	0.232463	0.350256	5766.326983	28976.997488	3751.594146	11899.686043
75.534500	0.235514	0.148500	0.237006	0.351158	5769.471733	28947.249082	3758.348503	11881.179175
76.035000	0.232093	0.147019	0.227704	0.352656	5737.999092	28769.887694	3738.482091	11850.491703
76.536000	0.231431	0.148466	0.230055	0.357133	5705.492975	28590.741235	3734.629219	11759.416195
77.035500	0.235389	0.149410	0.238588	0.352475	5760.208241	28922.964526	3758.841212	11854.191502
77.536500	0.236883	0.150054	0.234424	0.353701	5761.929137	28888.225727	3748.858276	11829.144926
78.036000	0.233393	0.150876	0.228183	0.360570	5696.235906	28530.311528	3725.090915	11690.136328
78.539000	0.235530	0.148560	0.230507	0.359855	5714.170087	28436.424440	3730.536594	11704.506898
79.036500	0.236988	0.151023	0.236139	0.355581	5750.556794	28833.954579	3748.555107	11790.879329
79.536500	0.237855	0.151712	0.235913	0.356886	5747.757657	28797.336060	3745.743582	11764.414903
80.037500	0.236395	0.151973	0.230032	0.360880	5713.155930	28576.588381	3727.843017	11683.915354
80.537000	0.235051	0.151501	0.233114	0.356424	5732.854585	28812.336204	3741.470487	11773.787515
81.035000	0.238609	0.151647	0.237217	0.358070	5745.018847	28723.279327	3745.962885	11740.473974
81.535000	0.239119	0.150517	0.241072	0.357172	5754.015039	28709.570671	3754.728309	11758.639364
82.035500	0.235651	0.150322	0.230161	0.358220	5725.264904	28636.119747	3732.858869	11737.457789
82.536500	0.235845	0.150440	0.236043	0.359233	5720.085070	28583.320704	3741.688672	11717.029102
83.038500	0.236641	0.149248	0.230926	0.358360	5730.650968	28564.540503	3733.986612	11734.622479
83.536500	0.237221	0.149626	0.235680	0.359164	5729.233539	28539.529984	3741.154030	11718.427247
84.037000	0.237346	0.150240	0.233681	0.360300	5722.831587	28508.885104	3735.461316	11695.575268
84.536500	0.236944	0.149095	0.236295	0.359830	5723.257241	28469.212237	3741.060111	11705.008913
85.037500	0.238498	0.149260	0.239654	0.360559	5728.484655	28436.198596	3745.868364	11690.361813
85.535000	0.237102	0.149196	0.239646	0.360583	5719.498196	28431.044122	3745.808719	11689.880131
86.035500	0.238314	0.148722	0.238525	0.360835	5725.574398	28388.570343	3743.296886	11684.835910
86.535500	0.240545	0.149258	0.238864	0.361620	5734.739271	28374.017070	3742.480574	11669.084462
87.036000	0.238194	0.149373	0.240801	0.361588	5720.043962	28382.584820	3746.085207	11669.730293
87.536000	0.238289	0.149134	0.234414	0.362390	5715.583713	28321.847604	3733.009214	11653.688173
88.036500	0.235877	0.147181	0.233775	0.360654	5711.317441	28309.179160	3734.990002	11688.458042
88.537000	0.236005	0.148152	0.243159	0.362315	5701.678000	28269.048232	3749.081194	11655.185286
89.037000	0.239252	0.148735	0.235689	0.363468	5714.852715	28235.862892	3733.362406	11632.152219
89.537500	0.237641	0.147998	0.236782	0.363001	5707.647381	28220.200359	3736.184087	11641.470322
90.035000	0.234949	0.148073	0.237478	0.363155	5689.801147	28215.649899	3737.167648	11638.407455
90.535000	0.233507	0.145627	0.231699	0.367885	5651.486523	27802.453510	3718.336042	11544.508850
91.035000	0.236431	0.146075	0.231834	0.362738	5701.699493	28124.040037	3727.744520	11646.733292
91.535500	0.239189	0.147223	0.237980	0.364370	5708.778835	28096.046909	3735.875513	11614.192671
92.036000	0.237212	0.145975	0.236785	0.363140	5704.076682	28094.990841	3735.936742	11638.698517
92.539000	0.237371	0.146850	0.238555	0.364473	5696.708943	28068.532112	3736.727974	11612.127364
93.037000	0.237040	0.146622	0.237613	0.363619	5699.985168	28104.697295	3736.569142	11629.139823
93.596500	0.236917	0.147003	0.238959	0.364679	5692.578199	28065.496312	3737.088757	11608.044882
94.034000	0.238568	0.146236	0.232481	0.364590	5703.483336	28026.366996	3725.585879	11609.799635
94.539500	0.233652	0.144461	0.232112	0.369168	5644.487618	27663.091412	3716.798078	11519.228700
95.035000	0.236840	0.146153	0.235362	0.364513	5693.129646	28026.062984	3730.890096	11611.332936
95.535000	0.236590	0.144772	0.230505	0.363359	5698.797043	28012.992785	3724.256339	11634.323980
96.035500	0.236567	0.145583	0.233027	0.365235	5686.914804	27951.700371	3725.410075	11596.985079
96.538500	0.230844	0.144680	0.231843	0.369836	5623.209226	27637.578522	3715.144489	11506.093570
