sample name	sample
index	1371
start time	 05-03-2021  02:26:50 PM


Wavelength (nm)	Absorbance
494.344910	NaN
494.563924	NaN
494.782919	NaN
495.001897	NaN
495.220856	-0.116979
495.439797	-0.149657
495.658719	-0.175183
495.877624	-0.170424
496.096510	-0.152691
496.315378	-0.134409
496.534227	-0.058553
496.753059	-0.034564
496.971872	-0.030458
497.190667	0.187481
497.409444	0.180800
497.628203	0.179725
497.846943	0.180144
498.065665	0.179745
498.284369	0.179404
498.503055	0.178620
498.721723	0.178468
498.940372	0.179917
499.159003	0.176071
499.377616	0.177677
499.596210	0.177301
499.814787	0.176807
500.033345	0.175821
500.251885	0.175124
500.470406	0.176414
500.688910	0.177245
500.907395	0.177643
501.125862	0.179538
501.344311	0.178833
501.562742	0.180213
501.781154	0.179865
501.999548	0.181406
502.217924	0.183368
502.436282	0.183348
502.654621	0.183243
502.872942	0.182973
503.091245	0.184292
503.309530	0.184450
503.527797	0.183989
503.746045	0.184253
503.964275	0.184764
504.182487	0.182727
504.400681	0.182769
504.618856	0.182725
504.837013	0.182630
505.055152	0.182409
505.273273	0.182298
505.491376	0.182318
505.709460	0.181722
505.927526	0.180556
506.145574	0.182355
506.363604	0.182740
506.581615	0.183140
506.799608	0.182050
507.017583	0.181894
507.235540	0.181508
507.453478	0.181939
507.671399	0.183554
507.889301	0.184605
508.107185	0.184690
508.325050	0.184289
508.542898	0.184133
508.760727	0.185137
508.978538	0.184913
509.196330	0.186952
509.414105	0.187498
509.631861	0.186941
509.849599	0.187150
510.067319	0.185335
510.285021	0.186387
510.502704	0.187737
510.720369	0.188166
510.938016	0.188917
511.155645	0.186789
511.373255	0.187055
511.590848	0.187621
511.808422	0.186605
512.025977	0.188759
512.243515	0.188336
512.461034	0.187748
512.678536	0.188033
512.896018	0.186533
513.113483	0.187607
513.330930	0.186935
513.548358	0.186595
513.765768	0.187407
513.983160	0.186074
514.200533	0.186261
514.417889	0.186039
514.635226	0.185559
514.852545	0.186627
515.069845	0.187129
515.287128	0.187642
515.504392	0.188400
515.721638	0.188764
515.938866	0.189839
516.156075	0.190102
516.373267	0.190250
516.590440	0.190960
516.807594	0.191364
517.024731	0.190863
517.241850	0.191248
517.458950	0.191409
517.676032	0.191438
517.893095	0.192011
518.110141	0.191898
518.327168	0.192690
518.544177	0.192847
518.761168	0.193397
518.978141	0.194518
519.195095	0.195466
519.412031	0.195434
519.628949	0.195333
519.845849	0.195297
520.062731	0.195683
520.279594	0.195233
520.496439	0.196286
520.713266	0.196280
520.930074	0.196683
521.146865	0.195532
521.363637	0.195255
521.580391	0.196064
521.797127	0.196273
522.013844	0.197040
522.230543	0.197482
522.447224	0.197372
522.663887	0.197349
522.880532	0.196842
523.097158	0.197478
523.313766	0.198575
523.530356	0.198811
523.746928	0.199026
523.963481	0.199350
524.180017	0.199936
524.396534	0.199968
524.613032	0.200365
524.829513	0.200856
525.045975	0.201244
525.262420	0.201242
525.478845	0.201416
525.695253	0.201778
525.911643	0.201693
526.128014	0.201236
526.344367	0.200885
526.560702	0.201333
526.777018	0.200640
526.993316	0.200662
527.209597	0.201239
527.425858	0.201670
527.642102	0.203001
527.858328	0.203377
528.074535	0.204272
528.290724	0.205220
528.506894	0.206229
528.723047	0.207704
528.939181	0.208416
529.155297	0.208406
529.371395	0.208400
529.587475	0.208295
529.803536	0.208392
530.019579	0.208555
530.235604	0.208679
530.451611	0.209096
530.667600	0.209499
530.883570	0.208959
531.099522	0.210065
531.315456	0.210362
531.531372	0.210122
531.747269	0.211263
531.963148	0.211844
532.179009	0.212801
532.394852	0.212478
532.610676	0.212876
532.826482	0.214025
533.042271	0.213484
533.258040	0.213839
533.473792	0.214398
533.689525	0.214336
533.905240	0.214881
534.120937	0.214689
534.336616	0.214728
534.552277	0.215014
534.767919	0.214905
534.983543	0.215257
535.199149	0.216443
535.414736	0.216791
535.630306	0.217359
535.845857	0.217630
536.061390	0.217970
536.276904	0.218786
536.492401	0.219660
536.707879	0.220110
536.923339	0.220967
537.138781	0.221015
537.354204	0.221377
537.569610	0.220942
537.784997	0.221460
538.000366	0.221759
538.215716	0.222112
538.431049	0.221723
538.646363	0.223163
538.861659	0.223329
539.076937	0.223382
539.292196	0.224013
539.507438	0.224841
539.722661	0.224906
539.937866	0.224876
540.153052	0.224987
540.368221	0.225067
540.583371	0.224762
540.798503	0.225036
541.013617	0.225654
541.228712	0.225934
541.443789	0.226562
541.658848	0.227047
541.873889	0.227786
542.088912	0.228409
542.303916	0.229282
542.518902	0.229734
542.733870	0.229926
542.948820	0.230146
543.163752	0.230691
543.378665	0.230240
543.593560	0.230047
543.808437	0.230631
544.023295	0.230385
544.238136	0.231007
544.452958	0.231145
544.667762	0.231596
544.882548	0.231025
545.097315	0.230581
545.312064	0.231524
545.526795	0.232452
545.741508	0.232136
545.956203	0.232601
546.170879	0.232278
546.385537	0.232149
546.600177	0.232383
546.814799	0.233588
547.029402	0.234214
547.243988	0.234147
547.458555	0.233743
547.673103	0.234208
547.887634	0.234412
548.102146	0.234508
548.316640	0.234352
548.531116	0.234602
548.745574	0.234385
548.960013	0.234560
549.174435	0.234336
549.388838	0.234610
549.603222	0.234988
549.817589	0.235497
550.031937	0.235603
550.246267	0.236401
550.460579	0.236901
550.674873	0.237167
550.889148	0.237103
551.103405	0.237703
551.317644	0.238391
551.531865	0.238174
551.746068	0.237995
551.960252	0.238716
552.174418	0.239177
552.388566	0.239254
552.602696	0.239588
552.816807	0.240331
553.030900	0.241057
553.244975	0.241444
553.459032	0.242229
553.673070	0.242885
553.887091	0.243088
554.101093	0.243075
554.315077	0.243631
554.529042	0.244193
554.742990	0.244340
554.956919	0.244369
555.170830	0.244483
555.384722	0.244686
555.598597	0.244097
555.812453	0.244025
556.026291	0.244326
556.240111	0.243541
556.453913	0.243404
556.667696	0.243802
556.881461	0.244353
557.095208	0.244430
557.308937	0.244430
557.522647	0.245057
557.736339	0.245327
557.950013	0.245444
558.163669	0.245728
558.377307	0.246022
558.590926	0.245934
558.804527	0.245802
559.018110	0.245646
559.231675	0.245630
559.445221	0.245938
559.658749	0.246429
559.872259	0.246526
560.085751	0.247000
560.299225	0.247049
560.512680	0.247080
560.726117	0.247094
560.939536	0.247419
561.152937	0.248042
561.366319	0.248169
561.579683	0.248180
561.793029	0.248271
562.006357	0.248470
562.219667	0.248359
562.432958	0.248383
562.646231	0.248582
562.859486	0.248803
563.072723	0.248476
563.285941	0.248121
563.499141	0.248644
563.712323	0.248941
563.925487	0.249038
564.138632	0.249256
564.351760	0.249622
564.564869	0.249866
564.777960	0.250130
564.991032	0.250673
565.204087	0.251963
565.417123	0.251629
565.630141	0.251227
565.843140	0.251379
566.056122	0.251586
566.269085	0.251157
566.482030	0.250852
566.694957	0.250708
566.907866	0.251051
567.120756	0.250512
567.333628	0.250405
567.546482	0.250821
567.759318	0.250899
567.972135	0.251661
568.184935	0.251700
568.397716	0.251716
568.610478	0.251599
568.823223	0.251246
569.035949	0.251485
569.248657	0.251979
569.461347	0.251696
569.674019	0.252090
569.886672	0.251728
570.099308	0.252100
570.311925	0.252610
570.524523	0.252865
570.737104	0.252898
570.949666	0.253026
571.162210	0.252818
571.374736	0.253515
571.587244	0.253573
571.799733	0.253107
572.012205	0.253409
572.224658	0.253560
572.437092	0.253831
572.649509	0.253811
572.861907	0.253942
573.074287	0.254256
573.286649	0.254212
573.498993	0.254244
573.711318	0.255144
573.923625	0.254786
574.135914	0.254557
574.348185	0.255208
574.560438	0.255571
574.772672	0.255177
574.984888	0.255418
575.197086	0.255701
575.409266	0.255479
575.621427	0.255346
575.833570	0.255835
576.045695	0.256129
576.257802	0.255932
576.469890	0.256568
576.681961	0.256982
576.894013	0.256671
577.106046	0.256388
577.318062	0.256642
577.530059	0.256487
577.742039	0.257198
577.954000	0.257235
578.165942	0.257112
578.377867	0.256562
578.589773	0.256665
578.801661	0.257188
579.013531	0.257898
579.225382	0.257783
579.437216	0.258081
579.649031	0.257738
579.860828	0.258073
580.072606	0.257790
580.284367	0.258058
580.496109	0.258359
580.707833	0.258530
580.919539	0.258572
581.131227	0.259457
581.342896	0.259881
581.554547	0.260249
581.766180	0.260396
581.977795	0.261358
582.189391	0.261816
582.400969	0.261828
582.612529	0.261802
582.824071	0.262141
583.035595	0.262044
583.247100	0.261896
583.458587	0.261923
583.670056	0.262043
583.881506	0.262047
584.092939	0.261924
584.304353	0.262097
584.515749	0.262492
584.727127	0.262571
584.938486	0.262838
585.149828	0.262710
585.361151	0.262595
585.572456	0.262788
585.783742	0.262927
585.995011	0.263374
586.206261	0.263661
586.417493	0.264313
586.628706	0.264649
586.839902	0.264750
587.051079	0.264967
587.262238	0.265418
587.473379	0.265475
587.684502	0.265448
587.895606	0.265214
588.106692	0.265479
588.317760	0.265177
588.528810	0.264900
588.739841	0.264768
588.950855	0.265363
589.161850	0.265453
589.372827	0.265453
589.583785	0.265289
589.794726	0.265711
590.005648	0.265710
590.216552	0.265594
590.427437	0.265943
590.638305	0.266297
590.849154	0.266330
591.059985	0.266277
591.270798	0.266652
591.481592	0.267232
591.692369	0.267912
591.903127	0.268272
592.113867	0.268675
592.324588	0.268852
592.535292	0.268996
592.745977	0.269305
592.956644	0.269579
593.167293	0.269469
593.377923	0.269557
593.588536	0.269409
593.799130	0.269589
594.009706	0.269451
594.220263	0.269733
594.430803	0.269926
594.641324	0.269788
594.851827	0.269942
595.062312	0.270402
595.272778	0.270668
595.483227	0.270176
595.693657	0.270405
595.904069	0.270842
596.114462	0.271121
596.324838	0.271368
596.535195	0.271692
596.745534	0.271858
596.955855	0.272212
597.166157	0.272397
597.376441	0.272845
597.586707	0.272883
597.796955	0.273044
598.007185	0.273058
598.217396	0.272950
598.427589	0.273399
598.637764	0.273596
598.847921	0.273753
599.058060	0.273967
599.268180	0.274162
599.478282	0.274147
599.688366	0.274260
599.898431	0.274514
600.108479	0.274737
600.318508	0.275037
600.528519	0.275684
600.738511	0.275362
600.948486	0.275731
601.158442	0.276276
601.368380	0.276572
601.578300	0.276597
601.788202	0.276848
601.998085	0.277140
602.207950	0.277175
602.417797	0.276992
602.627626	0.277709
602.837436	0.277571
603.047228	0.277327
603.257002	0.277347
603.466758	0.277451
603.676496	0.277488
603.886215	0.277723
604.095916	0.277713
604.305599	0.278239
604.515264	0.278351
604.724910	0.278493
604.934538	0.278878
605.144148	0.279219
605.353740	0.279474
605.563314	0.279579
605.772869	0.279724
605.982406	0.279934
606.191925	0.279978
606.401425	0.280075
606.610908	0.280140
606.820372	0.280134
607.029818	0.280201
607.239246	0.280513
607.448655	0.280434
607.658047	0.280423
607.867420	0.280638
608.076775	0.280622
608.286111	0.280872
608.495430	0.281106
608.704730	0.281504
608.914012	0.281551
609.123275	0.281190
609.332521	0.281797
609.541748	0.282306
609.750957	0.281866
609.960148	0.281832
610.169321	0.281859
610.378475	0.282234
610.587611	0.282203
610.796729	0.282613
611.005829	0.283430
611.214910	0.283103
611.423974	0.282855
611.633019	0.283162
611.842045	0.283380
612.051054	0.283815
612.260044	0.283957
612.469017	0.284083
612.677970	0.284092
612.886906	0.283956
613.095824	0.284314
613.304723	0.284740
613.513604	0.285153
613.722467	0.285697
613.931311	0.285374
614.140138	0.285383
614.348946	0.285671
614.557736	0.285881
614.766507	0.286112
614.975261	0.286449
615.183996	0.286427
615.392713	0.286513
615.601412	0.286393
615.810092	0.286904
616.018754	0.286890
616.227399	0.287294
616.436024	0.287494
616.644632	0.287549
616.853222	0.287507
617.061793	0.287809
617.270346	0.287874
617.478880	0.287724
617.687397	0.287775
617.895895	0.288223
618.104375	0.288182
618.312837	0.288137
618.521281	0.288566
618.729706	0.288756
618.938113	0.288824
619.146502	0.288774
619.354873	0.289137
619.563226	0.289284
619.771560	0.288951
619.979876	0.288954
620.188174	0.289119
620.396453	0.289260
620.604715	0.289207
620.812958	0.289520
621.021183	0.289875
621.229390	0.290017
621.437578	0.290549
621.645748	0.290685
621.853900	0.290863
622.062034	0.291283
622.270150	0.290897
622.478247	0.291184
622.686326	0.291141
622.894387	0.291569
623.102430	0.291633
623.310454	0.291479
623.518461	0.292023
623.726449	0.291907
623.934418	0.292054
624.142370	0.292675
624.350303	0.292484
624.558218	0.292906
624.766115	0.292974
624.973994	0.293309
625.181855	0.293247
625.389697	0.293312
625.597521	0.293788
625.805327	0.293849
626.013114	0.293801
626.220883	0.294174
626.428634	0.294001
626.636367	0.294125
626.844082	0.294479
627.051778	0.294434
627.259457	0.294395
627.467117	0.294347
627.674758	0.294352
627.882382	0.294631
628.089987	0.295031
628.297574	0.295136
628.505143	0.295363
628.712694	0.295509
628.920226	0.296097
629.127740	0.296413
629.335236	0.296617
629.542714	0.296762
629.750174	0.297026
629.957615	0.297000
630.165038	0.297374
630.372443	0.297513
630.579829	0.297606
630.787198	0.297650
630.994548	0.297926
631.201880	0.298246
631.409194	0.298661
631.616489	0.298546
631.823766	0.298530
632.031025	0.298627
632.238266	0.299029
632.445489	0.299010
632.652693	0.299128
632.859879	0.299070
633.067047	0.299294
633.274197	0.299201
633.481329	0.299561
633.688442	0.299976
633.895537	0.300061
634.102614	0.299888
634.309672	0.299958
634.516713	0.300225
634.723735	0.300527
634.930739	0.300449
635.137724	0.300857
635.344692	0.300969
635.551641	0.301154
635.758572	0.301275
635.965485	0.301424
636.172379	0.301723
636.379256	0.301724
636.586114	0.301538
636.792954	0.301519
636.999775	0.301162
637.206579	0.300867
637.413364	0.300708
637.620131	0.300809
637.826880	0.300914
638.033610	0.300990
638.240323	0.301085
638.447017	0.301390
638.653692	0.301667
638.860350	0.301841
639.066990	0.302294
639.273611	0.302379
639.480214	0.302695
639.686798	0.302677
639.893365	0.302752
640.099913	0.302667
640.306443	0.302790
640.512955	0.303063
640.719449	0.303444
640.925924	0.303737
641.132381	0.304292
641.338820	0.304029
641.545241	0.304302
641.751644	0.304464
641.958028	0.304867
642.164394	0.305183
642.370742	0.305573
642.577071	0.305729
642.783383	0.305850
642.989676	0.305768
643.195951	0.306553
643.402207	0.306879
643.608446	0.306966
643.814666	0.306974
644.020868	0.307072
644.227052	0.307029
644.433218	0.307173
644.639365	0.307553
644.845494	0.308070
645.051605	0.308033
645.257698	0.308061
645.463772	0.308434
645.669828	0.308719
645.875866	0.309223
646.081886	0.309362
646.287888	0.309767
646.493871	0.309804
646.699836	0.309587
646.905783	0.309534
647.111712	0.309867
647.317622	0.309938
647.523514	0.310187
647.729388	0.309915
647.935244	0.310088
648.141082	0.310020
648.346901	0.310077
648.552702	0.310318
648.758485	0.310434
648.964250	0.310575
649.169996	0.310747
649.375724	0.311203
649.581434	0.311615
649.787126	0.311634
649.992800	0.311946
650.198455	0.312339
650.404092	0.312828
650.609711	0.313338
650.815311	0.313313
651.020894	0.313694
651.226458	0.313624
651.432004	0.313666
651.637532	0.313838
651.843041	0.314043
652.048532	0.314325
652.254006	0.314308
652.459460	0.314415
652.664897	0.314782
652.870315	0.314769
653.075716	0.315021
653.281097	0.315564
653.486461	0.315937
653.691807	0.316141
653.897134	0.315991
654.102443	0.316229
654.307734	0.316668
654.513006	0.317019
654.718261	0.317237
654.923497	0.317504
655.128715	0.317455
655.333915	0.317843
655.539096	0.317839
655.744259	0.318064
655.949404	0.318182
656.154531	0.318239
656.359640	0.318124
656.564730	0.318310
656.769802	0.318324
656.974856	0.318471
657.179892	0.318340
657.384909	0.318446
657.589908	0.318353
657.794889	0.318454
657.999852	0.318508
658.204797	0.318724
658.409723	0.318915
658.614631	0.319133
658.819521	0.319172
659.024393	0.319257
659.229246	0.319559
659.434081	0.319772
659.638898	0.319986
659.843697	0.320034
660.048478	0.320102
660.253240	0.320267
660.457984	0.320049
660.662710	0.320485
660.867417	0.320641
661.072107	0.320680
661.276778	0.320908
661.481431	0.320995
661.686066	0.321056
661.890682	0.321414
662.095281	0.321654
662.299861	0.322395
662.504422	0.322309
662.708966	0.322534
662.913491	0.322976
663.117999	0.323361
663.322488	0.323568
663.526958	0.323962
663.731411	0.324005
663.935845	0.324044
664.140261	0.323811
664.344659	0.324061
664.549038	0.324216
664.753400	0.324167
664.957743	0.324385
665.162068	0.324715
665.366375	0.324953
665.570663	0.325335
665.774933	0.325692
665.979185	0.326059
666.183419	0.326316
666.387635	0.326839
666.591832	0.327304
666.796011	0.327600
667.000172	0.327779
667.204315	0.328059
667.408439	0.328207
667.612545	0.328401
667.816634	0.328770
668.020703	0.328901
668.224755	0.328795
668.428788	0.328981
668.632803	0.328850
668.836800	0.328946
669.040779	0.329314
669.244739	0.329389
669.448681	0.329636
669.652605	0.329933
669.856511	0.330310
670.060399	0.330587
670.264268	0.330577
670.468119	0.330897
670.671952	0.331262
670.875767	0.331411
671.079563	0.331760
671.283341	0.331891
671.487101	0.331684
671.690843	0.331867
671.894567	0.332336
672.098272	0.332941
672.301959	0.333578
672.505628	0.333903
672.709278	0.334104
672.912911	0.334497
673.116525	0.334794
673.320121	0.335534
673.523699	0.335553
673.727258	0.335773
673.930799	0.335694
674.134322	0.335617
674.337827	0.335782
674.541314	0.336208
674.744782	0.336414
674.948232	0.336448
675.151664	0.336541
675.355078	0.336798
675.558474	0.336865
675.761851	0.337031
675.965210	0.337369
676.168551	0.337389
676.371873	0.337093
676.575178	0.337296
676.778464	0.337344
676.981732	0.337484
677.184981	0.337579
677.388213	0.337814
677.591426	0.338306
677.794621	0.338254
677.997798	0.338495
678.200956	0.338755
678.404097	0.338847
678.607219	0.339134
678.810323	0.339531
679.013408	0.340026
679.216476	0.340268
679.419525	0.340391
679.622556	0.340694
679.825569	0.341097
680.028563	0.341398
680.231540	0.341504
680.434498	0.341888
680.637438	0.341744
680.840359	0.342024
681.043263	0.342024
681.246148	0.342359
681.449015	0.342483
681.651864	0.342689
681.854694	0.342958
682.057506	0.343479
682.260301	0.343601
682.463076	0.343899
682.665834	0.343947
682.868573	0.344181
683.071295	0.344205
683.273998	0.344531
683.476682	0.344863
683.679349	0.344898
683.881997	0.344843
684.084627	0.345359
684.287239	0.345681
684.489833	0.346116
684.692408	0.346675
684.894965	0.346631
685.097504	0.346644
685.300025	0.346852
685.502527	0.347354
685.705012	0.347623
685.907478	0.347620
686.109925	0.347565
686.312355	0.347428
686.514766	0.347288
686.717159	0.347629
686.919534	0.347665
687.121891	0.347506
687.324230	0.347445
687.526550	0.347467
687.728852	0.347428
687.931136	0.347422
688.133401	0.347737
688.335649	0.348143
688.537878	0.348296
688.740089	0.348717
688.942281	0.348882
689.144456	0.348847
689.346612	0.349094
689.548750	0.349196
689.750870	0.349469
689.952971	0.349677
690.155055	0.349675
690.357120	0.349600
690.559167	0.349756
690.761195	0.350001
690.963206	0.350502
691.165198	0.350759
691.367172	0.350996
691.569128	0.351255
691.771065	0.351351
691.972984	0.351696
692.174885	0.352405
692.376768	0.352839
692.578633	0.353063
692.780479	0.353136
692.982308	0.353204
693.184118	0.353680
693.385909	0.353957
693.587683	0.354293
693.789438	0.354271
693.991175	0.354239
694.192894	0.354087
694.394595	0.353906
694.596277	0.353912
694.797941	0.354198
694.999587	0.354413
695.201215	0.354601
695.402824	0.354532
695.604416	0.354757
695.805989	0.354906
696.007543	0.354981
696.209080	0.355367
696.410598	0.355618
696.612099	0.355607
696.813580	0.355592
697.015044	0.355802
697.216490	0.356104
697.417917	0.356217
697.619326	0.356336
697.820717	0.356731
698.022089	0.356920
698.223444	0.357204
698.424780	0.357516
698.626098	0.357724
698.827397	0.357821
699.028679	0.357931
699.229942	0.358196
699.431187	0.358342
699.632414	0.358404
699.833622	0.358568
700.034813	0.358836
700.235985	0.358763
700.437139	0.358928
700.638274	0.358951
700.839392	0.358866
701.040491	0.358880
701.241572	0.358931
701.442635	0.359101
701.643679	0.359239
701.844706	0.359087
702.045714	0.359209
702.246704	0.359087
702.447675	0.359337
702.648629	0.359752
702.849564	0.359605
703.050481	0.359858
703.251380	0.359781
703.452260	0.359611
703.653122	0.359564
703.853966	0.359536
704.054792	0.359578
704.255600	0.359497
704.456389	0.359250
704.657160	0.359244
704.857913	0.359110
705.058648	0.359176
705.259365	0.359138
705.460063	0.358922
705.660743	0.358828
705.861405	0.358900
706.062048	0.358702
706.262674	0.358560
706.463281	0.358677
706.663870	0.358632
706.864441	0.358627
707.064993	0.358787
707.265527	0.359073
707.466043	0.358901
707.666541	0.358849
707.867021	0.358780
708.067482	0.359219
708.267925	0.359334
708.468350	0.359177
708.668757	0.359125
708.869145	0.359148
709.069516	0.359120
709.269868	0.359409
709.470201	0.359327
709.670517	0.359465
709.870814	0.358971
710.071093	0.359043
710.271354	0.359294
710.471597	0.359311
710.671821	0.359575
710.872028	0.359566
711.072216	0.359819
711.272385	0.359763
711.472537	0.359884
711.672670	0.360157
711.872785	0.360253
712.072882	0.360224
712.272961	0.360407
712.473021	0.360293
712.673063	0.360201
712.873087	0.359877
713.073093	0.360168
713.273081	0.360141
713.473050	0.360341
713.673001	0.360008
713.872934	0.359948
714.072849	0.360142
714.272745	0.359978
714.472623	0.360326
714.672483	0.360452
714.872325	0.360145
715.072148	0.359982
715.271954	0.359799
715.471741	0.359900
715.671509	0.359981
715.871260	0.359544
716.070992	0.359578
716.270707	0.359542
716.470403	0.359806
716.670080	0.359887
716.869740	0.359836
717.069381	0.359864
717.269004	0.359677
717.468609	0.359624
717.668195	0.359536
717.867764	0.359175
718.067314	0.358790
718.266846	0.358395
718.466360	0.358364
718.665855	0.358280
718.865332	0.358019
719.064791	0.357958
719.264232	0.357578
719.463655	0.357522
719.663059	0.357681
719.862445	0.357633
720.061813	0.357622
720.261163	0.357459
720.460494	0.357340
720.659807	0.357396
720.859102	0.357426
721.058379	0.357365
721.257638	0.357385
721.456878	0.357330
721.656100	0.357139
721.855304	0.357050
722.054490	0.356955
722.253657	0.356750
722.452806	0.356309
722.651937	0.356171
722.851050	0.356147
723.050145	0.356150
723.249221	0.356067
723.448279	0.355905
723.647319	0.355509
723.846340	0.355261
724.045344	0.355248
724.244329	0.355463
724.443296	0.355303
724.642245	0.355260
724.841175	0.354977
725.040088	0.354672
725.238982	0.354565
725.437857	0.354358
725.636715	0.354101
725.835554	0.354017
726.034376	0.353610
726.233179	0.353232
726.431963	0.353203
726.630730	0.353030
726.829478	0.353011
727.028208	0.353109
727.226920	0.353064
727.425614	0.353113
727.624289	0.352840
727.822946	0.353102
728.021585	0.353514
728.220206	0.353503
728.418808	0.353471
728.617392	0.353431
728.815958	0.353296
729.014506	0.353455
729.213036	0.353371
729.411547	0.353560
729.610040	0.353224
729.808515	0.353004
730.006972	0.352695
730.205410	0.352483
730.403831	0.352147
730.602233	0.351938
730.800616	0.351593
730.998982	0.351515
731.197329	0.351287
731.395658	0.351019
731.593969	0.350573
731.792262	0.350188
731.990536	0.349983
732.188793	0.350211
732.387031	0.350246
732.585250	0.350292
732.783452	0.350094
732.981635	0.349944
733.179800	0.349859
733.377947	0.349686
733.576076	0.349722
733.774186	0.349447
733.972278	0.348867
734.170352	0.348521
734.368408	0.347967
734.566446	0.348026
734.764465	0.347769
734.962466	0.347684
735.160449	0.347808
735.358413	0.347693
735.556360	0.347608
735.754288	0.347738
735.952198	0.347953
736.150090	0.348310
736.347963	0.348042
736.545818	0.348176
736.743655	0.347987
736.941474	0.347565
737.139275	0.347402
737.337057	0.347304
737.534821	0.346871
737.732567	0.346471
737.930295	0.346063
738.128005	0.346036
738.325696	0.345427
738.523369	0.345171
738.721024	0.345148
738.918660	0.344966
739.116279	0.345159
739.313879	0.345352
739.511461	0.344903
739.709024	0.344856
739.906570	0.344973
740.104097	0.345130
740.301606	0.345055
740.499097	0.345162
740.696569	0.344939
740.894024	0.344335
741.091460	0.343868
741.288878	0.343916
741.486277	0.343711
741.683659	0.343217
741.881022	0.343039
742.078367	0.342758
742.275694	0.342245
742.473002	0.342267
742.670293	0.342025
742.867565	0.341837
743.064819	0.341848
743.262054	0.341765
743.459272	0.341612
743.656471	0.341480
743.853652	0.341480
744.050815	0.341555
744.247959	0.341310
744.445085	0.341191
744.642194	0.340881
744.839283	0.340477
745.036355	0.340094
745.233408	0.339563
745.430444	0.339226
745.627461	0.339149
745.824459	0.338716
746.021440	0.338265
746.218402	0.338317
746.415346	0.338035
746.612272	0.337734
746.809180	0.337616
747.006069	0.337850
747.202940	0.337996
747.399793	0.337573
747.596628	0.337423
747.793444	0.337278
747.990243	0.336867
748.187023	0.336942
748.383784	0.336860
748.580528	0.336636
748.777253	0.336410
748.973960	0.335915
749.170649	0.335898
749.367320	0.335896
749.563973	0.335905
749.760607	0.336205
749.957223	0.336238
750.153821	0.335888
750.350400	0.335884
750.546962	0.335584
750.743505	0.335544
750.940030	0.335402
751.136536	0.335022
751.333025	0.334556
751.529495	0.334113
751.725947	0.333962
751.922381	0.334201
752.118796	0.333888
752.315194	0.333825
752.511573	0.333763
752.707934	0.333607
752.904276	0.333431
753.100601	0.333331
753.296907	0.333173
753.493195	0.332903
753.689465	0.332648
753.885716	0.332474
754.081949	0.332262
754.278164	0.332022
754.474361	0.331876
754.670540	0.331651
754.866700	0.331615
755.062843	0.331558
755.258967	0.331182
755.455072	0.330590
755.651160	0.330400
755.847229	0.330055
756.043280	0.329848
756.239313	0.329608
756.435328	0.329668
756.631324	0.329399
756.827302	0.328615
757.023262	0.328421
757.219204	0.328512
757.415127	0.328574
757.611033	0.328476
757.806920	0.328160
758.002788	0.327889
758.198639	0.327450
758.394471	0.327475
758.590286	0.327706
758.786081	0.327616
758.981859	0.327818
759.177619	0.327342
759.373360	0.327124
759.569083	0.327159
759.764788	0.327052
759.960474	0.326643
760.156143	0.326392
760.351793	0.326282
760.547425	0.326144
760.743038	0.325648
760.938634	0.325503
761.134211	0.325322
761.329770	0.324816
761.525311	0.324661
761.720833	0.324920
761.916338	0.324629
762.111824	0.324049
762.307292	0.324088
762.502741	0.323715
762.698173	0.323556
762.893586	0.323656
763.088981	0.323637
763.284358	0.323390
763.479716	0.323177
763.675057	0.323408
763.870379	0.323609
764.065683	0.323131
764.260968	0.323164
764.456236	0.323558
764.651485	0.322681
764.846716	0.322644
765.041929	0.322635
765.237123	0.322749
765.432299	0.322517
765.627457	0.322333
765.822597	0.322237
766.017719	0.321748
766.212822	0.321291
766.407907	0.321480
766.602974	0.321080
766.798023	0.320820
766.993054	0.320263
767.188066	0.319797
767.383060	0.319399
767.578036	0.319359
767.772993	0.319339
767.967933	0.318898
768.162854	0.318685
768.357757	0.318211
768.552642	0.317969
768.747508	0.317908
768.942356	0.317789
769.137186	0.317874
769.331998	0.317683
769.526792	0.317880
769.721567	0.318075
769.916324	0.318007
770.111063	0.318566
770.305784	0.318711
770.500486	0.318758
770.695171	0.319030
770.889837	0.318829
771.084484	0.318894
771.279114	0.318586
771.473725	0.318440
771.668318	0.318621
771.862893	0.318334
772.057450	0.318469
772.251988	0.318322
772.446509	0.318082
772.641011	0.318306
772.835494	0.318364
773.029960	0.318187
773.224407	0.317689
773.418836	0.317786
773.613247	0.317837
773.807640	0.317424
774.002014	0.317311
774.196370	0.317170
774.390708	0.316654
774.585028	0.316067
774.779330	0.315767
774.973613	0.315806
775.167878	0.315398
775.362125	0.315056
775.556354	0.315012
775.750564	0.314976
775.944756	0.314689
776.138930	0.314702
776.333086	0.314788
776.527223	0.315099
776.721343	0.315363
776.915444	0.315715
777.109526	0.315889
777.303591	0.315804
777.497637	0.315904
777.691666	0.316293
777.885676	0.316658
778.079667	0.316747
778.273641	0.316897
778.467596	0.316985
778.661533	0.316852
778.855452	0.316828
779.049352	0.317088
779.243235	0.316926
779.437099	0.317088
779.630945	0.317105
779.824773	0.317092
780.018582	0.317333
780.212373	0.317535
780.406146	0.317680
780.599901	0.317865
780.793638	0.317766
780.987356	0.317999
781.181056	0.317670
781.374738	0.317907
781.568402	0.318283
781.762047	0.318183
781.955674	0.318189
782.149283	0.318117
782.342874	0.318027
782.536447	0.317758
782.730001	0.318147
782.923537	0.318424
783.117055	0.318170
783.310555	0.318057
783.504036	0.318178
783.697499	0.317947
783.890944	0.317769
784.084371	0.318033
784.277780	0.318034
784.471170	0.317450
784.664542	0.317274
784.857896	0.317307
785.051231	0.317151
785.244549	0.316754
785.437848	0.316634
785.631129	0.316593
785.824392	0.316546
786.017636	0.316658
786.210863	0.316734
786.404071	0.316633
786.597260	0.316584
786.790432	0.316420
786.983585	0.316438
787.176721	0.316522
787.369838	0.316856
787.562936	0.316640
787.756017	0.316682
787.949079	0.316868
788.142123	0.317041
788.335149	0.317037
788.528156	0.317547
788.721146	0.317999
788.914117	0.318296
789.107070	0.318340
789.300005	0.318529
789.492921	0.319209
789.685819	0.319438
789.878699	0.319756
790.071561	0.320266
790.264405	0.320225
790.457230	0.320555
790.650037	0.320792
790.842826	0.321166
791.035597	0.321383
791.228349	0.321299
791.421084	0.321345
791.613800	0.321566
791.806497	0.321389
791.999177	0.321836
792.191838	0.321730
792.384481	0.321881
792.577106	0.321866
792.769713	0.322282
792.962301	0.322334
793.154871	0.322564
793.347423	0.322338
793.539957	0.322705
793.732473	0.322733
793.924970	0.323085
794.117449	0.323391
794.309910	0.323485
794.502353	0.323600
794.694777	0.323829
794.887183	0.324009
795.079571	0.324470
795.271941	0.324606
795.464293	0.324993
795.656626	0.324941
795.848941	0.324838
796.041238	0.324947
796.233516	0.324972
796.425777	0.325140
796.618019	0.325321
796.810243	0.325408
797.002449	0.325681
797.194636	0.325646
797.386805	0.326017
797.578956	0.326325
797.771089	0.326677
797.963204	0.326991
798.155300	0.327156
798.347378	0.327232
798.539438	0.327222
798.731480	0.327604
798.923503	0.327717
799.115509	0.327742
799.307496	0.328028
799.499465	0.328101
799.691415	0.328352
799.883348	0.328518
800.075262	0.328461
800.267158	0.328834
800.459035	0.328417
800.650895	0.328585
800.842736	0.328897
801.034559	0.329039
801.226364	0.329316
801.418150	0.329437
801.609919	0.329661
801.801669	0.330371
801.993401	0.330585
802.185114	0.330990
802.376810	0.331141
802.568487	0.331091
802.760146	0.331067
802.951787	0.331087
803.143409	0.331160
803.335014	0.331326
803.526600	0.331622
803.718168	0.332169
803.909717	0.332243
804.101249	0.332817
804.292762	0.333065
804.484257	0.333492
804.675734	0.333759
804.867192	0.334166
805.058632	0.334672
805.250054	0.334451
805.441458	0.334527
805.632844	0.335217
805.824211	0.335220
806.015561	0.335877
806.206891	0.336087
806.398204	0.336200
806.589499	0.336219
806.780775	0.336084
806.972033	0.336749
807.163273	0.336817
807.354495	0.336867
807.545698	0.337006
807.736883	0.337098
807.928050	0.337220
808.119199	0.337805
808.310329	0.338252
808.501441	0.338723
808.692535	0.338822
808.883611	0.339482
809.074669	0.339691
809.265708	0.340350
809.456729	0.340475
809.647732	0.340989
809.838717	0.341137
810.029683	0.341434
810.220632	0.341656
810.411562	0.341727
810.602474	0.341652
810.793367	0.342166
810.984242	0.342046
811.175100	0.342443
811.365938	0.342757
811.556759	0.342970
811.747562	0.343020
811.938346	0.343269
812.129112	0.343817
812.319860	0.344216
812.510589	0.344272
812.701300	0.344922
812.891994	0.345122
813.082668	0.345284
813.273325	0.345574
813.463964	0.346099
813.654584	0.346321
813.845186	0.346474
814.035769	0.346668
814.226335	0.346988
814.416882	0.347472
814.607411	0.347801
814.797922	0.348028
814.988415	0.348663
815.178889	0.348883
815.369345	0.349476
815.559783	0.349395
815.750203	0.349852
815.940605	0.350263
816.130988	0.350491
816.321353	0.350984
816.511700	0.351213
816.702028	0.351646
816.892339	0.352221
817.082631	0.352485
817.272905	0.353596
817.463161	0.353876
817.653398	0.354597
817.843617	0.354456
818.033819	0.354507
818.224001	0.354641
818.414166	0.354827
818.604312	0.355022
818.794440	0.355098
818.984550	0.355163
819.174642	0.355488
819.364716	0.355298
819.554771	0.355810
819.744808	0.356636
819.934827	0.357718
820.124827	0.357975
820.314810	0.358006
820.504774	0.358381
820.694720	0.358725
820.884647	0.359183
821.074557	0.359557
821.264448	0.359946
821.454321	0.360200
821.644176	0.360246
821.834012	0.360657
822.023831	0.361402
822.213631	0.362077
822.403413	0.362551
822.593176	0.362616
822.782922	0.362883
822.972649	0.363216
823.162358	0.363513
823.352049	0.364164
823.541721	0.364992
823.731376	0.365244
823.921012	0.365837
824.110629	0.366362
824.300229	0.367067
824.489811	0.367788
824.679374	0.368505
824.868919	0.368727
825.058445	0.368893
825.247954	0.368969
825.437444	0.369570
825.626916	0.369817
825.816370	0.370002
826.005806	0.370520
826.195223	0.370979
826.384622	0.371208
826.574003	0.371532
826.763366	0.371939
826.952711	0.372376
827.142037	0.372632
827.331345	0.372897
827.520635	0.373391
827.709906	0.373638
827.899160	0.374005
828.088395	0.374361
828.277612	0.374832
828.466810	0.375148
828.655991	0.375259
828.845153	0.375537
829.034297	0.376012
829.223423	0.376243
829.412531	0.376625
829.601620	0.376908
829.790691	0.377213
829.979744	0.377810
830.168779	0.378086
830.357795	0.378407
830.546793	0.378765
830.735773	0.379110
830.924735	0.379899
831.113679	0.380442
831.302604	0.380961
831.491511	0.381188
831.680400	0.381610
831.869271	0.382175
832.058123	0.382808
832.246957	0.383284
832.435773	0.383934
832.624571	0.384015
832.813351	0.384411
833.002112	0.384860
833.190855	0.385964
833.379580	0.386376
833.568287	0.386783
833.756975	0.387152
833.945645	0.387553
834.134297	0.387992
834.322931	0.388385
834.511547	0.388521
834.700144	0.389026
834.888723	0.389240
835.077284	0.389624
835.265826	0.390125
835.454351	0.390590
835.642857	0.391286
835.831345	0.391650
836.019815	0.392228
836.208266	0.392875
836.396699	0.393529
836.585114	0.394068
836.773511	0.394570
836.961890	0.395292
837.150250	0.395995
837.338592	0.396797
837.526916	0.397624
837.715222	0.398217
837.903510	0.398877
838.091779	0.399110
838.280030	0.399606
838.468263	0.400372
838.656477	0.400736
838.844674	0.401284
839.032852	0.401267
839.221012	0.401523
839.409153	0.402279
839.597277	0.403193
839.785382	0.403793
839.973469	0.404288
840.161538	0.404555
840.349589	0.405105
840.537621	0.405719
840.725635	0.406917
840.913631	0.407415
841.101609	0.407802
841.289568	0.408464
841.477509	0.409088
841.665432	0.409711
841.853337	0.410573
842.041224	0.411342
842.229092	0.411989
842.416942	0.412144
842.604774	0.412596
842.792588	0.413366
842.980383	0.413520
843.168160	0.413643
843.355919	0.414107
843.543660	0.414321
843.731382	0.414744
843.919087	0.414960
844.106773	0.415590
844.294441	0.416595
844.482090	0.417118
844.669722	0.418038
844.857335	0.418975
845.044930	0.419434
845.232507	0.420270
845.420065	0.420919
845.607605	0.421301
845.795127	0.421386
845.982631	0.421659
846.170117	0.421643
846.357584	0.421607
846.545033	0.422094
846.732464	0.422666
846.919877	0.422842
847.107272	0.423034
847.294648	0.423754
847.482006	0.424590
847.669346	0.425072
847.856667	0.425654
848.043971	0.426049
848.231256	0.426422
848.418523	0.426710
848.605771	0.427312
848.793002	0.427571
848.980214	0.427918
849.167408	0.428641
849.354584	0.428702
849.541742	0.429248
849.728881	0.429564
849.916002	0.430128
850.103105	0.430355
850.290190	0.430588
850.477256	0.431049
850.664304	0.431587
850.851334	0.431324
851.038346	0.431603
851.225340	0.432410
851.412315	0.432675
851.599272	0.432621
851.786211	0.433037
851.973132	0.433868
852.160034	0.434721
852.346918	0.435049
852.533784	0.435351
852.720632	0.435549
852.907462	0.435430
853.094273	0.436266
853.281066	0.437277
853.467841	0.437932
853.654598	0.437751
853.841336	0.437957
854.028056	0.437946
854.214758	0.438982
854.401442	0.440032
854.588107	0.440524
854.774755	0.440744
854.961384	0.440993
855.147995	0.441332
855.334587	0.442023
855.521162	0.442559
855.707718	0.443394
855.894256	0.443744
856.080775	0.444474
856.267277	0.444776
856.453760	0.445479
856.640225	0.446218
856.826672	0.446979
857.013101	0.447600
857.199511	0.448106
857.385903	0.448868
857.572277	0.449475
857.758633	0.449412
857.944970	0.449910
858.131290	0.450257
858.317591	0.449901
858.503873	0.450314
858.690138	0.450622
858.876384	0.450994
859.062612	0.451391
859.248822	0.451599
859.435014	0.452390
859.621188	0.453173
859.807343	0.453426
859.993480	0.454420
860.179599	0.455185
860.365699	0.455830
860.551781	0.456347
860.737846	0.456312
860.923891	0.456577
861.109919	0.456727
861.295929	0.456957
861.481920	0.457910
861.667893	0.458862
861.853848	0.459233
862.039784	0.459979
862.225702	0.459944
862.411603	0.460754
862.597484	0.461665
862.783348	0.462560
862.969193	0.462570
863.155021	0.462512
863.340830	0.462748
863.526620	0.463554
863.712393	0.463897
863.898147	0.464740
864.083883	0.465526
864.269601	0.465812
864.455301	0.465794
864.640982	0.466803
864.826645	0.467349
865.012290	0.467196
865.197917	0.466829
865.383526	0.466491
865.569116	0.466856
865.754688	0.466914
865.940242	0.466852
866.125777	0.467406
866.311295	0.467730
866.496794	0.468270
866.682275	0.468978
866.867737	0.469633
867.053182	0.470003
867.238608	0.470489
867.424016	0.470322
867.609406	0.471421
867.794778	0.471759
867.980131	0.472352
868.165466	0.472369
868.350783	0.472830
868.536082	0.472876
868.721362	0.473497
868.906625	0.473546
869.091869	0.474315
869.277094	0.474408
869.462302	0.475176
869.647491	0.475417
869.832662	0.476252
870.017815	0.476357
870.202950	0.476767
870.388066	0.477620
870.573165	0.478169
870.758245	0.478242
870.943306	0.478241
871.128350	0.477970
871.313375	0.478291
871.498382	0.478415
871.683371	0.478615
871.868342	0.479104
872.053294	0.479238
872.238229	0.479459
872.423144	0.480009
872.608042	0.481109
872.792922	0.481571
872.977783	0.481709
873.162626	0.482068
873.347451	0.482353
873.532258	0.482221
873.717046	0.482429
873.901816	0.482732
874.086568	0.483165
874.271302	0.482969
874.456017	0.483136
874.640715	0.483464
874.825394	0.483331
875.010055	0.483560
875.194697	0.484005
875.379322	0.484278
875.563928	0.484936
875.748516	0.484996
875.933085	0.485072
876.117637	0.485637
876.302170	0.486065
876.486685	0.486853
876.671182	0.487455
876.855661	0.487887
877.040121	0.488204
877.224563	0.488263
877.408987	0.488249
877.593393	0.488543
877.777780	0.488693
877.962150	0.488565
878.146501	0.488295
878.330833	0.487954
878.515148	0.487865
878.699444	0.487780
878.883722	0.487728
879.067982	0.488317
879.252224	0.488122
879.436447	0.488417
879.620653	0.488600
879.804840	0.489073
879.989008	0.489347
880.173159	0.489877
880.357291	0.490214
880.541405	0.489937
880.725501	0.489822
880.909579	0.490178
881.093638	0.490051
881.277680	0.490427
881.461703	0.490626
881.645707	0.491592
881.829694	0.491851
882.013662	0.491915
882.197612	0.492090
882.381544	0.492329
882.565458	0.492590
882.749353	0.492957
882.933230	0.492966
883.117089	0.493399
883.300930	0.492766
883.484753	0.492383
883.668557	0.492395
883.852343	0.492908
884.036111	0.492873
884.219861	0.492635
884.403592	0.492790
884.587305	0.492807
884.771000	0.492085
884.954677	0.492703
885.138335	0.492794
885.321976	0.492501
885.505598	0.492469
885.689201	0.492633
885.872787	0.493154
886.056354	0.493347
886.239904	0.493635
886.423434	0.494146
886.606947	0.494105
886.790442	0.494609
886.973918	0.495239
887.157376	0.495339
887.340816	0.495223
887.524237	0.494811
887.707641	0.494127
887.891026	0.494241
888.074393	0.494215
888.257741	0.494021
888.441072	0.493860
888.624384	0.494127
888.807678	0.494059
888.990954	0.494430
889.174211	0.494550
889.357451	0.494950
889.540672	0.494780
889.723875	0.494961
889.907059	0.494569
890.090226	0.494696
890.273374	0.493751
890.456504	0.493520
890.639616	0.493241
890.822709	0.493481
891.005785	0.493127
891.188842	0.492764
891.371881	0.492578
891.554901	0.492278
891.737904	0.491937
891.920888	0.492280
892.103854	0.492284
892.286802	0.492469
892.469731	0.491586
892.652643	0.491775
892.835536	0.491793
893.018410	0.491628
893.201267	0.491760
893.384106	0.491875
893.566926	0.491799
893.749728	0.492507
893.932511	0.492058
894.115277	0.492326
894.298024	0.491632
894.480753	0.491062
894.663464	0.490556
894.846157	0.490790
895.028831	0.490924
895.211487	0.491084
895.394125	0.490121
895.576745	0.490456
895.759346	0.490594
895.941930	0.490520
896.124495	0.490977
896.307041	0.491030
896.489570	0.491006
896.672080	0.490235
896.854573	0.489732
897.037046	0.490176
897.219502	0.489279
897.401940	0.489002
897.584359	0.489278
897.766760	0.488808
897.949143	0.488342
898.131507	0.487762
898.313854	0.487476
898.496182	0.487000
898.678492	0.486197
898.860783	0.485980
899.043057	0.485638
899.225312	0.485124
899.407549	0.484356
899.589768	0.484385
899.771968	0.484566
899.954151	0.484321
900.136315	0.484139
900.318461	0.484072
900.500588	0.484332
900.682698	0.484636
900.864789	0.484421
901.046862	0.485119
901.228917	0.484891
901.410953	0.483789
901.592971	0.483606
901.774972	0.483120
901.956953	0.482427
902.138917	0.481770
902.320862	0.481024
902.502790	0.480612
902.684699	0.479889
902.866589	0.479639
903.048462	0.479140
903.230316	0.478831
903.412152	0.478710
903.593970	0.478822
903.775770	0.478451
903.957551	0.478131
904.139314	0.477916
904.321059	0.477749
904.502786	0.477394
904.684494	0.477370
904.866185	0.476646
905.047857	0.475996
905.229510	0.475390
905.411146	0.474932
905.592763	0.474253
905.774363	0.473672
905.955943	0.473223
906.137506	0.472708
906.319051	0.471640
906.500577	0.471410
906.682085	0.471506
906.863575	0.471003
907.045046	0.470602
907.226500	0.470413
907.407935	0.470763
907.589352	0.470141
907.770750	0.469718
907.952131	0.470153
908.133493	0.469828
908.314837	0.468846
908.496163	0.469097
908.677470	0.468767
908.858760	0.468760
909.040031	0.467368
909.221284	0.467249
909.402518	0.466618
909.583735	0.465887
909.764933	0.465613
909.946113	0.465369
910.127275	0.464604
910.308418	0.464215
910.489544	0.462952
910.670651	0.462218
910.851740	0.461490
911.032810	0.461030
911.213863	0.460318
911.394897	0.459315
911.575913	0.458793
911.756911	0.458085
911.937890	0.457401
912.118851	0.456373
912.299794	0.455942
912.480719	0.455569
912.661626	0.454857
912.842514	0.454646
913.023384	0.454127
913.204236	0.453369
913.385070	0.452844
913.565886	0.452326
913.746683	0.452644
913.927462	0.452339
914.108223	0.451125
914.288965	0.450202
914.469690	0.450414
914.650396	0.450153
914.831084	0.449912
915.011754	0.448958
915.192405	0.448889
915.373038	0.448062
915.553653	0.447107
915.734250	0.446897
915.914829	0.445914
916.095389	0.443963
916.275931	0.443002
916.456455	0.441534
916.636961	0.440179
916.817448	0.438201
916.997917	0.437315
917.178368	0.436113
917.358801	0.435315
917.539216	0.435430
917.719612	0.435194
917.899990	0.434482
918.080350	0.434607
918.260692	0.434089
918.441015	0.434513
918.621320	0.434122
918.801607	0.434401
918.981876	0.433158
919.162127	0.432295
919.342359	0.432126
919.522573	0.431530
919.702769	0.430565
919.882947	0.429419
920.063106	0.427380
920.243247	0.426961
920.423370	0.425444
920.603475	0.424635
920.783562	0.423510
920.963630	0.422205
921.143680	0.420702
921.323712	0.419390
921.503725	0.419791
921.683721	0.419913
921.863698	0.418248
922.043657	0.418128
922.223598	0.417229
922.403520	0.416639
922.583424	0.416278
922.763311	0.416161
922.943178	0.415935
923.123028	0.415225
923.302859	0.414923
923.482673	0.414723
923.662467	0.413569
923.842244	0.412998
924.022003	0.411999
924.201743	0.410344
924.381465	0.408716
924.561169	0.407475
924.740854	0.405791
924.920522	0.404139
925.100171	0.402488
925.279802	0.401994
925.459414	0.400839
925.639009	0.400485
925.818585	0.399793
925.998143	0.399741
926.177683	0.399528
926.357205	0.399472
926.536708	0.398447
926.716193	0.397984
926.895660	0.396559
927.075109	0.395859
927.254539	0.395334
927.433951	0.394227
927.613345	0.393115
927.792721	0.391464
927.972079	0.389671
928.151418	0.388539
928.330739	0.387077
928.510042	0.385756
928.689327	0.385236
928.868593	0.383371
929.047841	0.382882
929.227071	0.381329
929.406283	0.379357
929.585476	0.378010
929.764652	0.377157
929.943809	0.376645
930.122948	0.375776
930.302068	0.374707
930.481171	0.373821
930.660255	0.372212
930.839321	0.371516
931.018369	0.371603
931.197398	0.371047
931.376409	0.370057
931.555402	0.369032
931.734377	0.368336
931.913334	0.366724
932.092272	0.364360
932.271192	0.363125
932.450094	0.362233
932.628978	0.361114
932.807844	0.359878
932.986691	0.358063
933.165520	0.357094
933.344331	0.355899
933.523123	0.355388
933.701898	0.355091
933.880654	0.352798
934.059392	0.350974
934.238111	0.349772
934.416813	0.348991
934.595496	0.349656
934.774161	0.349168
934.952808	0.347627
935.131437	0.346645
935.310047	0.345964
935.488639	0.345737
935.667213	0.344579
935.845769	0.342959
936.024306	0.341837
936.202825	0.339351
936.381326	0.336888
936.559809	0.335577
936.738274	0.334744
936.916720	0.333977
937.095148	0.333767
937.273558	0.334340
937.451950	0.334795
937.630323	0.333049
937.808678	0.332554
937.987015	0.331046
938.165334	0.330741
938.343635	0.329465
938.521917	0.327883
938.700181	0.325119
938.878427	0.323072
939.056655	0.320837
939.234864	0.320263
939.413055	0.318662
939.591228	0.318392
939.769383	0.316369
939.947519	0.314547
940.125638	0.312352
940.303738	0.311966
940.481820	0.310514
940.659883	0.307857
940.837929	0.306431
941.015956	0.305933
941.193965	0.303438
941.371955	0.303507
941.549928	0.302310
941.727882	0.302516
941.905818	0.300638
942.083736	0.299924
942.261636	0.299252
942.439517	0.296367
942.617380	0.294539
942.795225	0.295049
942.973052	0.292206
943.150860	0.290532
943.328651	0.288066
943.506423	0.289600
943.684176	0.287410
943.861912	0.287188
944.039629	0.286968
944.217328	0.284341
944.395009	0.282679
944.572672	0.281977
944.750317	0.281217
944.927943	0.281198
945.105551	0.278633
945.283141	0.277836
945.460712	0.277278
945.638265	0.277750
945.815801	0.277068
945.993317	0.275390
946.170816	0.273538
946.348297	0.271827
946.525759	0.269505
946.703203	0.268001
946.880629	0.265929
947.058036	0.263119
947.235425	0.260490
947.412797	0.260020
947.590149	0.257538
947.767484	0.258386
947.944800	0.257041
948.122099	0.256023
948.299379	0.254519
948.476640	0.252118
948.653884	0.251604
948.831109	0.248361
949.008316	0.246486
949.185505	0.246886
949.362676	0.245271
949.539828	0.243716
949.716962	0.242152
949.894078	0.239841
950.071176	0.239817
950.248256	0.239002
950.425317	0.240409
950.602360	0.239819
950.779385	0.237553
950.956391	0.234128
951.133380	0.233665
951.310350	0.233000
951.487302	0.233861
951.664235	0.233993
951.841151	0.233238
952.018048	0.231914
952.194927	0.229974
952.371788	0.229228
952.548631	0.228104
952.725455	0.225223
952.902261	0.224892
953.079049	0.222764
953.255819	0.219642
953.432570	0.216056
953.609303	0.213542
953.786018	0.213447
953.962715	0.212268
954.139394	0.213074
954.316054	0.214719
954.492696	0.212085
954.669320	0.212005
954.845926	0.211293
955.022513	0.212575
955.199083	0.212061
955.375634	0.209692
955.552166	0.210252
955.728681	0.210385
955.905177	0.207188
956.081655	0.205089
956.258115	0.203860
956.434557	0.204596
956.610980	0.202150
956.787385	0.203002
956.963772	0.203188
957.140141	0.201227
957.316492	0.198373
957.492824	0.197766
957.669138	0.196731
957.845434	0.194336
958.021712	0.193018
958.197971	0.192936
958.374212	0.192628
958.550435	0.189732
958.726640	0.190166
958.902826	0.190210
959.078995	0.190979
959.255145	0.192583
959.431277	0.192424
959.607390	0.191202
959.783486	0.192429
959.959563	0.190554
960.135622	0.194327
960.311662	0.192874
960.487685	0.192568
960.663689	0.189827
960.839675	0.189737
961.015643	0.190034
961.191593	0.191633
961.367524	0.189479
961.543437	0.188715
961.719332	0.184936
961.895209	0.183325
962.071067	0.181644
962.246907	0.181703
962.422730	0.178682
962.598533	0.179058
962.774319	0.176797
962.950086	0.177303
963.125835	0.175838
963.301566	0.175281
963.477279	0.176048
963.652973	0.177357
963.828650	0.176160
964.004308	0.178622
964.179947	0.177098
964.355569	0.175342
964.531172	0.174239
964.706757	0.174330
964.882324	0.175248
965.057873	0.176211
965.233403	0.176136
965.408916	0.178702
965.584410	0.181746
965.759885	0.181369
965.935343	0.183497
966.110782	0.185074
966.286203	0.188258
966.461606	0.187412
966.636991	0.185804
966.812357	0.186858
966.987705	0.183937
967.163035	0.178465
967.338347	0.180809
967.513641	0.179816
967.688916	0.175862
967.864173	0.172443
968.039412	0.173142
968.214632	0.172047
968.389835	0.170427
968.565019	0.170313
968.740185	0.174228
968.915333	0.172396
969.090462	0.172047
969.265573	0.174312
969.440667	0.176126
969.615741	0.173266
969.790798	0.173096
969.965836	0.171994
970.140856	0.176016
970.315858	0.172111
970.490842	0.171187
970.665808	0.174618
970.840755	0.174375
971.015684	0.175366
971.190595	0.177697
971.365487	0.177263
971.540362	0.176863
971.715218	0.174727
971.890056	0.176687
972.064875	0.176987
972.239677	0.174000
972.414460	0.173256
972.589225	0.170910
972.763972	0.172214
972.938700	0.172895
973.113411	0.172198
973.288103	0.171910
973.462777	0.173808
973.637432	0.173667
973.812070	0.175671
973.986689	0.176275
974.161290	0.177555
974.335873	0.174986
974.510437	0.175079
974.684984	0.175744
974.859512	0.175860
975.034022	0.174096
975.208513	0.179708
975.382987	0.177372
975.557442	0.178267
975.731879	0.178951
975.906298	0.180732
976.080698	0.181000
976.255080	0.181418
976.429445	0.181622
976.603790	0.183110
976.778118	0.179727
976.952427	0.180591
977.126719	0.178455
977.300992	0.175945
977.475246	0.177074
977.649483	0.176498
977.823701	0.175333
977.997901	0.174094
978.172083	0.171948
978.346247	0.168809
978.520392	0.166973
978.694519	0.167099
978.868628	0.168960
979.042719	0.167022
979.216791	0.167857
979.390845	0.170476
979.564882	0.170739
979.738899	0.171299
979.912899	0.173404
980.086880	0.175865
980.260843	0.176810
980.434788	0.174666
980.608715	0.175022
980.782623	0.176210
980.956514	0.173306
981.130386	0.174357
981.304240	0.172575
981.478075	0.172546
981.651892	0.171009
981.825692	0.171925
981.999472	0.171122
982.173235	0.173069
982.346980	0.172132
982.520706	0.173989
982.694414	0.174062
982.868104	0.173744
983.041775	0.171313
983.215428	0.171319
983.389064	0.170400
983.562680	0.173376
983.736279	0.171571
983.909860	0.169530
984.083422	0.169882
984.256966	0.168733
984.430491	0.170232
984.603999	0.171072
984.777488	0.170557
984.950959	0.171021
985.124412	0.167974
985.297847	0.166473
985.471263	0.168886
985.644661	0.169454
985.818041	0.169923
985.991403	0.169227
986.164747	0.168746
986.338072	0.168633
986.511379	0.167543
986.684668	0.168825
986.857938	0.171347
987.031191	0.172444
987.204425	0.169798
987.377641	0.169923
987.550839	0.170989
987.724018	0.172529
987.897179	0.174467
988.070322	0.176283
988.243447	0.176526
988.416554	0.177321
988.589642	0.176905
988.762712	0.177060
988.935764	0.175622
989.108798	0.175631
989.281813	0.176788
989.454811	0.176114
989.627790	0.172994
989.800751	0.171096
989.973693	0.169255
990.146617	0.167333
990.319524	0.170564
990.492412	0.171610
990.665281	0.171226
990.838133	0.169831
991.010966	0.169079
991.183781	0.169311
991.356578	0.169972
991.529356	0.169574
991.702117	0.171971
991.874859	0.170015
992.047583	0.168591
992.220288	0.168155
992.392976	0.167176
992.565645	0.166286
992.738296	0.169292
992.910929	0.170802
993.083543	0.171524
993.256139	0.170991
993.428718	0.170063
993.601277	0.171832
993.773819	0.172233
993.946342	0.173651
994.118848	0.173948
994.291335	0.172303
994.463803	0.171096
994.636254	0.169008
994.808686	0.167145
994.981100	0.169033
995.153496	0.168141
995.325874	0.168432
995.498233	0.167423
995.670574	0.167168
995.842897	0.164422
996.015202	0.165174
996.187488	0.168192
996.359757	0.169068
996.532007	0.170298
996.704239	0.169714
996.876452	0.170185
997.048648	0.169487
997.220825	0.171481
997.392984	0.173722
997.565124	0.174688
997.737247	0.172410
997.909351	0.173888
998.081437	0.172766
998.253505	0.173207
998.425554	0.172426
998.597586	0.172179
998.769599	0.172877
998.941594	0.173447
999.113571	0.172217
999.285529	0.174088
999.457469	0.172439
999.629391	0.169376
999.801295	0.170674
999.973181	0.170980
1000.145048	0.171450
1000.316897	0.169781
1000.488728	0.167353
1000.660541	0.167333
1000.832335	0.166136
1001.004111	0.166136
1001.175869	0.168513
1001.347609	0.168621
1001.519331	0.168340
1001.691034	0.169261
1001.862719	0.171031
1002.034386	0.175165
1002.206035	0.174219
1002.377665	0.174381
1002.549277	0.174906
1002.720871	0.174890
1002.892447	0.173859
1003.064004	0.173453
1003.235544	0.172807
1003.407065	0.169807
1003.578568	0.165178
1003.750052	0.164996
1003.921519	0.166173
1004.092967	0.164994
1004.264397	0.165240
1004.435809	0.166098
1004.607202	0.165811
1004.778577	0.164980
1004.949934	0.166844
1005.121273	0.169637
1005.292594	0.171246
1005.463896	0.168289
1005.635180	0.168379
1005.806446	0.168536
1005.977694	0.166413
1006.148923	0.167241
1006.320135	0.166425
1006.491328	0.165943
1006.662503	0.167410
1006.833659	0.169236
1007.004798	0.169891
1007.175918	0.168752
1007.347020	0.168402
1007.518103	0.170019
1007.689169	0.168811
1007.860216	0.171728
1008.031245	0.173114
1008.202256	0.173859
1008.373248	0.170275
1008.544223	0.172317
1008.715179	0.172534
1008.886117	0.172138
1009.057036	0.171505
1009.227938	0.173109
1009.398821	0.171785
1009.569686	0.171251
1009.740533	0.169420
1009.911361	0.172730
1010.082172	0.171784
1010.252964	0.172389
1010.423738	0.172825
1010.594493	0.174846
1010.765231	0.175321
1010.935950	0.176722
1011.106651	0.175069
1011.277334	0.173061
1011.447998	0.168536
1011.618645	0.169260
1011.789273	0.168347
1011.959882	0.168660
1012.130474	0.167838
1012.301048	0.166884
1012.471603	0.166091
1012.642140	0.167742
1012.812658	0.168028
1012.983159	0.169728
1013.153641	0.168967
1013.324105	0.169474
1013.494551	0.168971
1013.664979	0.167714
1013.835388	0.169848
1014.005779	0.171110
1014.176152	0.170458
1014.346507	0.171192
1014.516843	0.171957
1014.687162	0.171690
1014.857462	0.173363
1015.027744	0.172498
1015.198007	0.174629
1015.368252	0.172151
1015.538480	0.169519
1015.708689	0.168322
1015.878879	0.168914
1016.049052	0.168843
1016.219206	0.167379
1016.389342	0.166571
1016.559460	0.169245
1016.729559	0.167103
1016.899641	0.166440
1017.069704	0.169464
1017.239749	0.170177
1017.409775	0.170254
1017.579784	0.168541
1017.749774	0.171141
1017.919746	0.172238
1018.089700	0.169060
1018.259635	0.170269
1018.429553	0.173198
1018.599452	0.171194
1018.769333	0.170528
1018.939195	0.170289
1019.109040	0.173159
1019.278866	0.173192
1019.448674	0.172079
1019.618464	0.173933
1019.788235	0.174363
1019.957989	0.172190
1020.127724	0.172541
1020.297441	0.171617
1020.467139	0.171566
1020.636820	0.170090
1020.806482	0.170284
1020.976126	0.171603
1021.145752	0.170016
1021.315359	0.167984
1021.484948	0.168274
1021.654519	0.169117
1021.824072	0.170077
1021.993607	0.172815
1022.163123	0.172844
1022.332621	0.171375
1022.502101	0.170330
1022.671563	0.171020
1022.841007	0.172004
1023.010432	0.171609
1023.179839	0.171185
1023.349228	0.171712
1023.518598	0.169991
1023.687951	0.170542
1023.857285	0.171000
1024.026601	0.168858
1024.195899	0.168131
1024.365178	0.167214
1024.534439	0.167449
1024.703682	0.166967
1024.872907	0.166054
1025.042114	0.165248
1025.211302	0.163727
1025.380472	0.163917
1025.549624	0.167129
1025.718758	0.169038
1025.887873	0.167981
1026.056970	0.168999
1026.226049	0.169075
1026.395110	0.168580
1026.564153	0.168161
1026.733177	0.168211
1026.902183	0.168547
1027.071171	0.166550
1027.240141	0.166466
1027.409092	0.168031
1027.578026	0.167191
1027.746940	0.164823
1027.915837	0.165953
1028.084716	0.165694
1028.253576	0.166392
1028.422418	0.166771
1028.591242	0.166280
1028.760048	0.165370
1028.928835	0.165181
1029.097604	0.163713
1029.266355	0.166152
1029.435088	0.164368
1029.603803	0.164757
1029.772499	0.165497
1029.941177	0.163893
1030.109837	0.165081
1030.278478	0.163858
1030.447102	0.163214
1030.615707	0.164768
1030.784294	0.163192
1030.952863	0.165747
1031.121413	0.163107
1031.289945	0.160922
1031.458460	0.159707
1031.626955	0.159110
1031.795433	0.159063
1031.963892	0.159416
1032.132334	0.160001
1032.300756	0.160008
1032.469161	0.160475
1032.637548	0.160304
1032.805916	0.159128
1032.974266	0.160445
1033.142598	0.160986
1033.310911	0.160313
1033.479207	0.160977
1033.647484	0.158799
1033.815743	0.159436
1033.983983	0.157112
1034.152206	0.158120
1034.320410	0.161115
1034.488596	0.162129
1034.656764	0.161347
1034.824914	0.160998
1034.993045	0.159836
1035.161158	0.160390
1035.329253	0.160075
1035.497330	0.160369
1035.665388	0.161274
1035.833428	0.159060
1036.001450	0.158230
1036.169454	0.159337
1036.337440	0.161165
1036.505407	0.162673
1036.673356	0.163192
1036.841287	0.164395
1037.009200	0.165109
1037.177094	0.165770
1037.344970	0.167093
1037.512828	0.166153
1037.680668	0.167379
1037.848489	0.166886
1038.016293	0.166215
1038.184078	0.166920
1038.351845	0.166927
1038.519593	0.166273
1038.687324	0.165141
1038.855036	0.165253
1039.022730	0.166245
1039.190406	0.165319
1039.358063	0.166138
1039.525702	0.167898
1039.693323	0.167932
1039.860926	0.166143
1040.028511	0.167334
1040.196077	0.168200
1040.363625	0.168261
1040.531155	0.166968
1040.698667	0.166907
1040.866161	0.166956
1041.033636	0.166291
1041.201093	0.165442
1041.368532	0.165045
1041.535952	0.165527
1041.703355	0.163749
1041.870739	0.165300
1042.038105	0.166432
1042.205452	0.164695
1042.372782	0.163984
1042.540093	0.161588
1042.707386	0.161212
1042.874661	0.160061
1043.041918	0.157056
1043.209156	0.157844
1043.376376	0.156164
1043.543578	0.156031
1043.710762	0.158230
1043.877927	0.159427
1044.045074	0.160942
1044.212203	0.159134
1044.379314	0.162720
1044.546407	0.164588
1044.713481	0.164725
1044.880537	0.165092
1045.047575	0.164026
1045.214595	0.163877
1045.381596	0.164880
1045.548579	0.166181
1045.715544	0.167194
1045.882491	0.165081
1046.049420	0.167584
1046.216330	0.170928
1046.383222	0.170889
1046.550096	0.173574
1046.716951	0.171746
1046.883789	0.170110
1047.050608	0.167876
1047.217409	0.168169
1047.384192	0.166484
1047.550956	0.162475
1047.717703	0.159463
1047.884431	0.161128
1048.051140	0.160117
1048.217832	0.160619
1048.384505	0.163199
1048.551161	0.165091
1048.717798	0.167196
1048.884416	0.169145
1049.051017	0.170497
1049.217599	0.171134
1049.384163	0.169551
1049.550709	0.167424
1049.717237	0.168305
1049.883746	0.166284
1050.050237	0.166114
1050.216710	0.163542
1050.383165	0.163868
1050.549601	0.163789
1050.716019	0.164478
1050.882420	0.162664
1051.048801	0.168242
1051.215165	0.168523
1051.381510	0.167288
1051.547837	0.166178
1051.714146	0.166086
1051.880437	0.165993
1052.046709	0.164822
1052.212964	0.163502
1052.379200	0.164606
1052.545417	0.161083
1052.711617	0.160385
1052.877798	0.159874
1053.043961	0.160171
1053.210106	0.162256
1053.376233	0.164994
1053.542341	0.167243
1053.708432	0.167933
1053.874504	0.168833
1054.040557	0.170652
1054.206593	0.172811
1054.372610	0.174048
1054.538609	0.172543
1054.704590	0.170011
1054.870553	0.168106
1055.036497	0.167456
1055.202424	0.168003
1055.368331	0.168997
1055.534221	0.167281
1055.700093	0.163708
1055.865946	0.163989
1056.031781	0.166369
1056.197598	0.169359
1056.363397	0.168249
1056.529177	0.169239
1056.694939	0.169548
1056.860683	0.168597
1057.026409	0.164524
1057.192116	0.167479
1057.357806	0.167705
1057.523477	0.167096
1057.689130	0.169340
1057.854764	0.170567
1058.020381	0.170616
1058.185979	0.167491
1058.351559	0.167457
1058.517120	0.169977
1058.682664	0.167728
1058.848189	0.169289
1059.013696	0.166840
1059.179185	0.164323
1059.344656	0.165545
1059.510108	0.162899
1059.675542	0.165518
1059.840958	0.164383
1060.006356	0.165436
1060.171735	0.167063
1060.337096	0.164694
1060.502439	0.166638
1060.667764	0.165201
1060.833071	0.162496
1060.998359	0.164533
1061.163629	0.166211
1061.328881	0.168240
1061.494115	0.167511
1061.659330	0.163346
1061.824527	0.162214
1061.989706	0.164171
1062.154867	0.167440
1062.320010	0.169975
1062.485134	0.169558
1062.650240	0.168962
1062.815328	0.167518
1062.980398	0.168880
1063.145449	0.173774
1063.310482	0.177120
1063.475497	0.176158
1063.640494	0.173648
1063.805473	0.173688
1063.970433	0.174631
1064.135375	0.171743
1064.300299	0.172541
1064.465204	0.171861
1064.630092	0.171517
1064.794961	0.168925
1064.959812	0.167643
1065.124645	0.167356
1065.289459	0.164286
1065.454256	0.162391
1065.619034	0.164266
1065.783793	0.164977
1065.948535	0.164755
1066.113258	0.164060
1066.277964	0.167200
1066.442651	0.168089
1066.607319	0.170829
1066.771970	0.171641
1066.936602	0.171228
1067.101216	0.171505
1067.265812	0.169985
1067.430389	0.170227
1067.594949	0.171091
1067.759490	0.167833
1067.924013	0.168207
1068.088518	0.166015
1068.253004	0.165311
1068.417472	0.165090
1068.581922	0.165137
1068.746354	0.165444
1068.910768	0.169146
1069.075163	0.167420
1069.239540	0.168820
1069.403899	0.168568
1069.568240	0.168846
1069.732562	0.167885
1069.896866	0.170628
1070.061152	0.172743
1070.225420	0.173648
1070.389670	0.173283
1070.553901	0.174787
1070.718114	0.175399
1070.882309	0.176733
1071.046486	0.176312
1071.210644	0.179535
1071.374784	0.179488
1071.538906	0.176662
1071.703010	0.177288
1071.867096	0.178740
1072.031163	0.179537
1072.195212	0.180318
1072.359243	0.181330
1072.523256	0.182411
1072.687250	0.180869
1072.851226	0.178533
1073.015184	0.179999
1073.179124	0.181356
1073.343045	0.179219
1073.506949	0.179932
1073.670834	0.178195
1073.834701	0.178572
1073.998549	0.178085
1074.162380	0.179391
1074.326192	0.181834
1074.489986	0.181619
1074.653761	0.179754
1074.817519	0.178600
1074.981258	0.177043
1075.144979	0.174870
1075.308682	0.175588
1075.472367	0.175476
1075.636033	0.177753
1075.799681	0.178258
1075.963311	0.179421
1076.126923	0.179495
1076.290516	0.178566
1076.454092	0.178215
1076.617649	0.182059
1076.781187	0.182006
1076.944708	0.179135
1077.108210	0.178506
1077.271695	0.178190
1077.435160	0.176461
1077.598608	0.177064
1077.762038	0.179289
1077.925449	0.178042
1078.088842	0.177615
1078.252217	0.175491
1078.415573	0.179931
1078.578912	0.179228
1078.742232	0.180918
1078.905534	0.180208
1079.068817	0.182640
1079.232083	0.181096
1079.395330	0.181908
1079.558559	0.182838
1079.721770	0.183527
1079.884962	0.182789
1080.048136	0.182892
1080.211293	0.180655
1080.374430	0.180530
1080.537550	0.177453
1080.700651	0.177901
1080.863735	0.179139
1081.026800	0.180135
1081.189846	0.178351
1081.352875	0.180393
1081.515885	0.181843
1081.678877	0.182940
1081.841851	0.185349
1082.004807	0.185838
1082.167744	0.185839
1082.330663	0.185483
1082.493564	0.183899
1082.656447	0.185225
1082.819312	0.182677
1082.982158	0.179838
1083.144986	0.180594
1083.307796	0.178458
1083.470587	0.176917
1083.633361	0.178800
1083.796116	0.178865
1083.958853	0.175632
1084.121571	0.175222
1084.284272	0.178806
1084.446954	0.183223
1084.609618	0.183001
1084.772264	0.184480
1084.934892	0.185353
1085.097501	0.184812
1085.260092	0.184482
1085.422665	0.188356
1085.585220	0.188428
1085.747756	0.185576
1085.910274	0.183228
1086.072774	0.182450
1086.235256	0.187706
1086.397720	0.187263
1086.560165	0.186846
1086.722592	0.188125
1086.885001	0.189258
1087.047392	0.187231
1087.209764	0.186324
1087.372119	0.184544
1087.534455	0.183696
1087.696772	0.179106
1087.859072	0.182374
1088.021353	0.181906
1088.183616	0.182002
1088.345861	0.181759
1088.508088	0.184029
1088.670296	0.184591
1088.832486	0.183933
1088.994658	0.184509
1089.156812	0.182326
1089.318948	0.181162
1089.481065	0.178423
1089.643164	0.177428
1089.805245	0.176620
1089.967308	0.178240
1090.129352	0.180447
1090.291378	0.186231
1090.453386	0.186673
1090.615376	0.188222
1090.777347	0.185981
1090.939301	0.189413
1091.101236	0.190071
1091.263153	0.190370
1091.425051	0.190997
1091.586932	0.185635
1091.748794	0.181440
1091.910638	0.182232
1092.072463	0.185963
1092.234271	0.184946
1092.396060	0.186911
1092.557831	0.187227
1092.719584	0.190615
1092.881319	0.189197
1093.043035	0.192945
1093.204733	0.193215
1093.366413	0.191631
1093.528075	0.190229
1093.689718	0.193825
1093.851343	0.192642
1094.012950	0.191376
1094.174539	0.190807
1094.336110	0.191512
1094.497662	0.190439
1094.659196	0.192028
1094.820712	0.192751
1094.982210	0.190036
1095.143689	0.190047
1095.305151	0.190464
1095.466594	0.191399
1095.628018	0.192082
1095.789425	0.192773
1095.950813	0.194658
1096.112183	0.196935
1096.273535	0.199739
1096.434869	0.199062
1096.596184	0.203613
1096.757482	0.200088
1096.918761	0.200138
1097.080021	0.200305
1097.241264	0.198189
1097.402488	0.197065
1097.563694	0.189369
1097.724882	0.185141
1097.886052	0.186292
1098.047203	0.180963
1098.208336	0.181512
1098.369451	0.179416
1098.530548	0.174520
1098.691627	0.173658
1098.852687	0.178398
1099.013729	0.182006
1099.174753	0.183809
1099.335758	0.186341
1099.496746	0.190977
1099.657715	0.193446
1099.818666	0.191178
1099.979599	0.194355
1100.140513	0.195938
1100.301409	0.190010
1100.462287	0.193304
1100.623147	0.191056
1100.783989	0.189863
1100.944812	0.188870
1101.105617	0.186462
1101.266404	0.188753
1101.427173	0.186738
1101.587923	0.184460
1101.748656	0.190343
1101.909370	0.188817
1102.070066	0.193320
1102.230743	0.190235
1102.391403	0.184584
1102.552044	0.191174
1102.712667	0.197100
1102.873271	0.196280
1103.033858	0.197785
1103.194426	0.192175
1103.354976	0.189590
1103.515508	0.190802
1103.676021	0.190952
1103.836517	0.194761
1103.996994	0.190694
1104.157453	0.184878
1104.317893	0.181930
1104.478316	0.181421
1104.638720	0.183193
1104.799106	0.186697
1104.959474	0.180378
1105.119823	0.182562
1105.280155	0.181564
1105.440468	0.180325
1105.600763	0.183285
1105.761039	0.187200
1105.921298	0.189140
1106.081538	0.190058
1106.241760	0.191206
1106.401964	0.195915
1106.562149	0.200808
1106.722316	0.201843
1106.882465	0.210259
1107.042596	0.209774
1107.202709	0.210231
1107.362803	0.207926
1107.522879	0.209990
1107.682937	0.210999
1107.842977	0.213851
1108.002999	0.200203
1108.163002	0.202132
1108.322987	0.195001
1108.482954	0.198193
1108.642902	0.195559
1108.802833	0.201803
1108.962745	0.199000
1109.122639	0.195210
1109.282515	0.190340
1109.442372	0.202968
1109.602211	0.202461
1109.762032	0.197944
1109.921835	0.194190
1110.081620	0.192772
1110.241386	0.191664
1110.401134	0.193012
1110.560864	0.193288
1110.720576	0.191805
1110.880269	0.192209
1111.039945	0.195644
1111.199602	0.203034
1111.359240	0.206850
1111.518861	0.215761
1111.678463	0.209622
1111.838047	0.208821
1111.997613	0.206530
1112.157161	0.206600
1112.316690	0.204180
1112.476202	0.204368
1112.635695	0.203433
1112.795169	0.204141
1112.954626	0.195723
1113.114064	0.198384
1113.273484	0.198527
1113.432886	0.198646
1113.592270	0.204091
1113.751635	0.203925
1113.910983	0.202883
1114.070312	0.199651
1114.229622	0.198643
1114.388915	0.197348
1114.548189	0.197940
1114.707445	0.194087
1114.866683	0.195837
1115.025903	0.192454
1115.185104	0.190378
1115.344287	0.190087
1115.503452	0.188711
1115.662599	0.188038
1115.821727	0.191002
1115.980838	0.189517
1116.139930	0.196791
1116.299004	0.195864
1116.458059	0.197280
1116.617097	0.201018
1116.776116	0.203085
1116.935117	0.207089
1117.094099	0.208077
1117.253064	0.213171
1117.412010	0.214775
1117.570938	0.208292
1117.729848	0.213134
1117.888740	0.215653
1118.047613	0.216200
1118.206468	0.209320
1118.365305	0.209740
1118.524124	0.204807
1118.682924	0.202165
1118.841707	0.205750
1119.000471	0.206466
1119.159216	0.199772
1119.317944	0.193378
1119.476653	0.186741
1119.635344	0.192904
1119.794017	0.188292
1119.952672	0.189505
1120.111308	0.183994
1120.269927	0.180353
1120.428527	0.186549
1120.587108	0.194053
1120.745672	0.202046
1120.904217	0.207928
1121.062744	0.201646
1121.221253	0.208297
1121.379744	0.205029
1121.538216	0.210591
1121.696671	0.206766
1121.855107	0.207490
1122.013524	0.207887
1122.171924	0.202693
1122.330305	0.203926
1122.488668	0.210815
1122.647013	0.207804
1122.805340	0.220406
1122.963648	0.218277
1123.121938	0.223923
1123.280210	0.210832
1123.438464	0.210713
1123.596700	0.215709
1123.754917	0.218809
1123.913116	0.215433
1124.071297	0.214079
1124.229459	0.205365
1124.387604	0.205793
1124.545730	0.213748
1124.703838	0.225830
1124.861928	0.219060
1125.019999	0.217553
1125.178052	0.211379
1125.336088	0.206080
1125.494104	0.209762
1125.652103	0.211809
1125.810083	0.207444
1125.968045	0.206700
1126.125989	0.208505
1126.283915	0.209549
1126.441823	0.209723
1126.599712	0.202420
1126.757583	0.209986
1126.915436	0.210790
1127.073270	0.215061
1127.231087	0.226654
1127.388885	0.216413
1127.546665	0.209693
1127.704426	0.209901
1127.862170	0.213755
1128.019895	0.220626
1128.177602	0.214527
1128.335291	0.211002
1128.492961	0.204244
1128.650614	0.197932
1128.808248	0.202286
1128.965864	0.204829
1129.123461	0.210424
1129.281041	0.206734
1129.438602	0.214100
1129.596145	0.216708
1129.753670	0.222090
1129.911176	0.224785
1130.068665	0.226601
1130.226135	0.220107
1130.383587	0.225327
1130.541020	0.219828
1130.698436	0.227097
1130.855833	0.217664
1131.013212	0.220045
1131.170573	0.222316
1131.327915	0.215585
1131.485239	0.214629
1131.642545	0.211759
1131.799833	0.204718
1131.957103	0.209146
1132.114354	0.199437
1132.271588	0.202648
1132.428803	0.204865
1132.585999	0.202336
1132.743178	0.218494
1132.900338	0.221428
1133.057480	0.232450
1133.214604	0.228986
1133.371710	0.230897
1133.528797	0.231994
1133.685866	0.232245
1133.842917	0.236003
1133.999950	0.239709
1134.156964	0.227330
1134.313960	0.227512
1134.470938	0.221745
1134.627898	0.227461
1134.784840	0.230072
1134.941763	0.228803
1135.098668	0.222831
1135.255555	0.219913
1135.412424	0.212865
1135.569274	0.212688
1135.726107	0.214378
1135.882921	0.224346
1136.039716	0.225151
1136.196494	0.218415
1136.353253	0.216167
1136.509995	0.217160
1136.666717	0.217879
1136.823422	0.211120
1136.980109	0.212906
1137.136777	0.223352
1137.293427	0.222508
1137.450059	0.221715
1137.606672	0.214467
1137.763267	0.215313
1137.919844	0.224501
1138.076403	0.216181
1138.232944	0.224860
1138.389466	0.227927
1138.545971	0.210713
1138.702457	0.201080
1138.858924	0.199035
1139.015374	0.207969
1139.171805	0.220629
1139.328218	0.215806
1139.484613	0.220948
1139.640990	0.213431
1139.797348	0.211273
1139.953688	0.207580
1140.110010	0.218917
1140.266314	0.227606
1140.422600	0.229930
1140.578867	0.219237
1140.735116	0.228293
1140.891347	0.219926
1141.047559	0.231346
1141.203754	0.228536
1141.359930	0.232092
1141.516088	0.236712
1141.672228	0.226825
1141.828349	0.230937
1141.984452	0.247728
1142.140537	0.236473
1142.296604	0.232901
1142.452653	0.215545
1142.608683	0.216142
1142.764695	0.232485
1142.920689	0.214122
1143.076665	0.217684
1143.232622	0.203647
1143.388562	0.184285
1143.544483	0.177736
1143.700385	0.196792
1143.856270	0.217105
1144.012136	0.215192
1144.167985	0.196869
1144.323814	0.200619
1144.479626	0.200224
1144.635420	0.218603
1144.791195	0.221595
1144.946952	0.234793
1145.102691	0.220760
1145.258411	0.212081
1145.414113	0.222393
1145.569798	0.226163
1145.725463	0.224138
1145.881111	0.231890
1146.036741	0.214275
1146.192352	0.222732
1146.347945	0.216663
1146.503519	0.211375
1146.659076	0.211662
1146.814614	0.211480
1146.970134	0.216743
1147.125636	0.232679
1147.281120	0.224464
1147.436585	0.237295
1147.592032	0.241645
1147.747461	0.250967
1147.902872	0.266001
1148.058265	0.271441
1148.213639	0.275144
1148.368995	0.293230
1148.524333	0.275675
1148.679653	0.293668
1148.834954	0.287851
1148.990237	0.290130
1149.145502	0.291037
1149.300749	0.287734
1149.455977	0.284099
1149.611188	0.266160
1149.766380	0.248179
1149.921553	0.251047
1150.076709	0.237590
1150.231846	0.239454
1150.386966	0.230096
1150.542066	0.228434
1150.697149	0.223222
1150.852214	0.218487
1151.007260	0.217280
1151.162288	0.209654
1151.317298	0.214083
1151.472289	0.215618
1151.627263	0.210026
1151.782218	0.202577
1151.937155	0.204602
1152.092073	0.198272
1152.246974	0.196403
1152.401856	0.214284
1152.556720	0.223481
1152.711566	0.209974
1152.866393	0.201971
1153.021203	0.209037
1153.175994	0.211903
1153.330767	0.205477
1153.485521	0.215666
1153.640258	0.213239
1153.794976	0.206646
1153.949676	0.187420
1154.104358	0.206299
1154.259021	0.199897
1154.413667	0.196678
1154.568294	0.202025
1154.722903	0.203632
1154.877493	0.196001
1155.032066	0.200272
1155.186620	0.190022
1155.341156	0.214181
1155.495674	0.211978
1155.650173	0.217231
1155.804654	0.211518
1155.959118	0.205608
1156.113562	0.207500
1156.267989	0.217084
1156.422397	0.212282
1156.576788	0.221382
1156.731160	0.203654
1156.885513	0.188289
1157.039849	0.198982
1157.194166	0.200381
1157.348465	0.218139
1157.502746	0.218549
1157.657009	0.206941
1157.811253	0.201957
1157.965479	0.196473
1158.119687	0.206426
1158.273877	0.217751
1158.428048	0.202962
1158.582201	0.203801
1158.736337	0.184487
1158.890453	0.181939
1159.044552	0.200341
1159.198632	0.218374
1159.352694	0.227459
1159.506738	0.230661
1159.660764	0.227146
1159.814771	0.249906
1159.968761	0.244414
1160.122732	0.251465
1160.276685	0.250839
1160.430619	0.244972
1160.584535	0.255729
1160.738434	0.276987
1160.892313	0.266691
1161.046175	0.267576
1161.200019	0.257972
1161.353844	0.255583
1161.507651	0.284228
1161.661440	0.284255
1161.815210	0.275190
1161.968962	0.259863
1162.122697	0.233707
1162.276412	0.251082
1162.430110	0.258532
1162.583789	0.249543
1162.737451	0.251666
1162.891094	0.237604
1163.044718	0.224250
1163.198325	0.222089
1163.351913	0.222306
1163.505483	0.240439
1163.659035	0.240174
1163.812569	0.228098
1163.966084	0.222479
1164.119581	0.235828
1164.273060	0.225244
1164.426521	0.264651
1164.579964	0.262883
1164.733388	0.235428
1164.886794	0.228670
1165.040182	0.224703
1165.193551	0.231081
1165.346903	0.233468
1165.500236	0.231993
1165.653551	0.229453
1165.806848	0.221421
1165.960126	0.248514
1166.113386	0.273885
1166.266628	0.281276
1166.419852	0.280882
1166.573058	0.266358
1166.726245	0.273989
1166.879414	0.295392
1167.032565	0.291912
1167.185698	0.277751
1167.338812	0.228863
1167.491909	0.235900
1167.644987	0.221859
1167.798046	0.212578
1167.951088	0.230333
1168.104111	0.239879
1168.257117	0.211348
1168.410103	0.192776
1168.563072	0.178862
1168.716023	0.210087
1168.868955	0.208693
1169.021869	0.200154
1169.174765	0.204325
1169.327642	0.227766
1169.480501	0.234682
1169.633343	0.236291
1169.786165	0.259051
1169.938970	0.309525
1170.091757	0.270486
1170.244525	0.257146
1170.397275	0.260491
1170.550007	0.284586
1170.702720	0.265274
1170.855415	0.272337
1171.008092	0.289449
1171.160751	0.299866
1171.313392	0.273829
1171.466014	0.474157
1171.618619	0.325916
1171.771205	0.325916
1171.923772	0.325916
