sample name	sample
index	1446
start time	 05-10-2021  01:16:30 PM


Wavelength (nm)	Absorbance
494.344910	0.000495
494.563924	0.000495
494.782919	0.000495
495.001897	0.016263
495.220856	0.002476
495.439797	0.001806
495.658719	0.004961
495.877624	0.006424
496.096510	0.003221
496.315378	0.000423
496.534227	-0.002331
496.753059	0.002458
496.971872	-0.005628
497.190667	0.034177
497.409444	0.054202
497.628203	0.061453
497.846943	0.066405
498.065665	0.069506
498.284369	0.073197
498.503055	0.074367
498.721723	0.077415
498.940372	0.077952
499.159003	0.079050
499.377616	0.080632
499.596210	0.081536
499.814787	0.082334
500.033345	0.082512
500.251885	0.081964
500.470406	0.081364
500.688910	0.079483
500.907395	0.079747
501.125862	0.079664
501.344311	0.078868
501.562742	0.078812
501.781154	0.078182
501.999548	0.078579
502.217924	0.079255
502.436282	0.080551
502.654621	0.080861
502.872942	0.081425
503.091245	0.080595
503.309530	0.081394
503.527797	0.081089
503.746045	0.081094
503.964275	0.081186
504.182487	0.081242
504.400681	0.080388
504.618856	0.080848
504.837013	0.080559
505.055152	0.081145
505.273273	0.080649
505.491376	0.081218
505.709460	0.081192
505.927526	0.080657
506.145574	0.080280
506.363604	0.081385
506.581615	0.081223
506.799608	0.081123
507.017583	0.081270
507.235540	0.081993
507.453478	0.082018
507.671399	0.082317
507.889301	0.083008
508.107185	0.082890
508.325050	0.081937
508.542898	0.081569
508.760727	0.081317
508.978538	0.082184
509.196330	0.081489
509.414105	0.081087
509.631861	0.081751
509.849599	0.081587
510.067319	0.081980
510.285021	0.081961
510.502704	0.082503
510.720369	0.082373
510.938016	0.082460
511.155645	0.083199
511.373255	0.084142
511.590848	0.083045
511.808422	0.082580
512.025977	0.081996
512.243515	0.082588
512.461034	0.082245
512.678536	0.082689
512.896018	0.081884
513.113483	0.080695
513.330930	0.079520
513.548358	0.079503
513.765768	0.080036
513.983160	0.080301
514.200533	0.080357
514.417889	0.081269
514.635226	0.081660
514.852545	0.081715
515.069845	0.082146
515.287128	0.082955
515.504392	0.083723
515.721638	0.084150
515.938866	0.084283
516.156075	0.083884
516.373267	0.083397
516.590440	0.083135
516.807594	0.083841
517.024731	0.083630
517.241850	0.083370
517.458950	0.083641
517.676032	0.083775
517.893095	0.083793
518.110141	0.084296
518.327168	0.084740
518.544177	0.085159
518.761168	0.085429
518.978141	0.085983
519.195095	0.086279
519.412031	0.085997
519.628949	0.085078
519.845849	0.085176
520.062731	0.085600
520.279594	0.085819
520.496439	0.086088
520.713266	0.085743
520.930074	0.086226
521.146865	0.085869
521.363637	0.086062
521.580391	0.087049
521.797127	0.087329
522.013844	0.087007
522.230543	0.086437
522.447224	0.085810
522.663887	0.085404
522.880532	0.085094
523.097158	0.084777
523.313766	0.084563
523.530356	0.083889
523.746928	0.084738
523.963481	0.085658
524.180017	0.086055
524.396534	0.086593
524.613032	0.087036
524.829513	0.086750
525.045975	0.087529
525.262420	0.088252
525.478845	0.089447
525.695253	0.088376
525.911643	0.087677
526.128014	0.087773
526.344367	0.088225
526.560702	0.088356
526.777018	0.089245
526.993316	0.089587
527.209597	0.089522
527.425858	0.089095
527.642102	0.089325
527.858328	0.089858
528.074535	0.089924
528.290724	0.089844
528.506894	0.090099
528.723047	0.089926
528.939181	0.089564
529.155297	0.089463
529.371395	0.089948
529.587475	0.090092
529.803536	0.089955
530.019579	0.089966
530.235604	0.089935
530.451611	0.090338
530.667600	0.090527
530.883570	0.090763
531.099522	0.090801
531.315456	0.090258
531.531372	0.090578
531.747269	0.091019
531.963148	0.091270
532.179009	0.091617
532.394852	0.091546
532.610676	0.091465
532.826482	0.091586
533.042271	0.092380
533.258040	0.092293
533.473792	0.092206
533.689525	0.091989
533.905240	0.092492
534.120937	0.092374
534.336616	0.091874
534.552277	0.092075
534.767919	0.092800
534.983543	0.092877
535.199149	0.093937
535.414736	0.094096
535.630306	0.093994
535.845857	0.093504
536.061390	0.093829
536.276904	0.094872
536.492401	0.094720
536.707879	0.093782
536.923339	0.093505
537.138781	0.093283
537.354204	0.093389
537.569610	0.094002
537.784997	0.093956
538.000366	0.093713
538.215716	0.093739
538.431049	0.093710
538.646363	0.094494
538.861659	0.094141
539.076937	0.093669
539.292196	0.093462
539.507438	0.093255
539.722661	0.093692
539.937866	0.093287
540.153052	0.092945
540.368221	0.093219
540.583371	0.093272
540.798503	0.093802
541.013617	0.094146
541.228712	0.094919
541.443789	0.094891
541.658848	0.095043
541.873889	0.095846
542.088912	0.096037
542.303916	0.096273
542.518902	0.096202
542.733870	0.096316
542.948820	0.096911
543.163752	0.097201
543.378665	0.096944
543.593560	0.096845
543.808437	0.096981
544.023295	0.097367
544.238136	0.097663
544.452958	0.097669
544.667762	0.097718
544.882548	0.097633
545.097315	0.097112
545.312064	0.097794
545.526795	0.097867
545.741508	0.098306
545.956203	0.098103
546.170879	0.098111
546.385537	0.098538
546.600177	0.098530
546.814799	0.098329
547.029402	0.098794
547.243988	0.099107
547.458555	0.099319
547.673103	0.099484
547.887634	0.099586
548.102146	0.099290
548.316640	0.099226
548.531116	0.099252
548.745574	0.099596
548.960013	0.099646
549.174435	0.099781
549.388838	0.100152
549.603222	0.099768
549.817589	0.100017
550.031937	0.100675
550.246267	0.100694
550.460579	0.101348
550.674873	0.101381
550.889148	0.101435
551.103405	0.101372
551.317644	0.101345
551.531865	0.101453
551.746068	0.101402
551.960252	0.101294
552.174418	0.101403
552.388566	0.101344
552.602696	0.101204
552.816807	0.101394
553.030900	0.101494
553.244975	0.101316
553.459032	0.101316
553.673070	0.101633
553.887091	0.101981
554.101093	0.102352
554.315077	0.102525
554.529042	0.102572
554.742990	0.102054
554.956919	0.101860
555.170830	0.102116
555.384722	0.102155
555.598597	0.101840
555.812453	0.101655
556.026291	0.101545
556.240111	0.101073
556.453913	0.101328
556.667696	0.101756
556.881461	0.102100
557.095208	0.101994
557.308937	0.101700
557.522647	0.101854
557.736339	0.101811
557.950013	0.102098
558.163669	0.101778
558.377307	0.101724
558.590926	0.101625
558.804527	0.101096
559.018110	0.100916
559.231675	0.101358
559.445221	0.101352
559.658749	0.101393
559.872259	0.101292
560.085751	0.101932
560.299225	0.101845
560.512680	0.102290
560.726117	0.102345
560.939536	0.103032
561.152937	0.103199
561.366319	0.103070
561.579683	0.102967
561.793029	0.102645
562.006357	0.102946
562.219667	0.103532
562.432958	0.103485
562.646231	0.103844
562.859486	0.103374
563.072723	0.103127
563.285941	0.103321
563.499141	0.103504
563.712323	0.103831
563.925487	0.103637
564.138632	0.103144
564.351760	0.103217
564.564869	0.103071
564.777960	0.103464
564.991032	0.103692
565.204087	0.104039
565.417123	0.104032
565.630141	0.104148
565.843140	0.104175
566.056122	0.104697
566.269085	0.104761
566.482030	0.105196
566.694957	0.105053
566.907866	0.105361
567.120756	0.105496
567.333628	0.105510
567.546482	0.105546
567.759318	0.105659
567.972135	0.105529
568.184935	0.105675
568.397716	0.105781
568.610478	0.106285
568.823223	0.106177
569.035949	0.106464
569.248657	0.106922
569.461347	0.106728
569.674019	0.106986
569.886672	0.107052
570.099308	0.106810
570.311925	0.106397
570.524523	0.106256
570.737104	0.106693
570.949666	0.106421
571.162210	0.106277
571.374736	0.106632
571.587244	0.106201
571.799733	0.106509
572.012205	0.106690
572.224658	0.106890
572.437092	0.107089
572.649509	0.107070
572.861907	0.107081
573.074287	0.107172
573.286649	0.107409
573.498993	0.107819
573.711318	0.107654
573.923625	0.108190
574.135914	0.108531
574.348185	0.108212
574.560438	0.108235
574.772672	0.108301
574.984888	0.108644
575.197086	0.108628
575.409266	0.109255
575.621427	0.109262
575.833570	0.108925
576.045695	0.109257
576.257802	0.109728
576.469890	0.109688
576.681961	0.109742
576.894013	0.109403
577.106046	0.109305
577.318062	0.108961
577.530059	0.109198
577.742039	0.109394
577.954000	0.109144
578.165942	0.109152
578.377867	0.109470
578.589773	0.110266
578.801661	0.110580
579.013531	0.111150
579.225382	0.111292
579.437216	0.111784
579.649031	0.111806
579.860828	0.112163
580.072606	0.112332
580.284367	0.112221
580.496109	0.111590
580.707833	0.111571
580.919539	0.111525
581.131227	0.111475
581.342896	0.111421
581.554547	0.111503
581.766180	0.111703
581.977795	0.111739
582.189391	0.111959
582.400969	0.112138
582.612529	0.112551
582.824071	0.112473
583.035595	0.112438
583.247100	0.112271
583.458587	0.112922
583.670056	0.112725
583.881506	0.112803
584.092939	0.112733
584.304353	0.112816
584.515749	0.113001
584.727127	0.113548
584.938486	0.113904
585.149828	0.114356
585.361151	0.114207
585.572456	0.114566
585.783742	0.114875
585.995011	0.115203
586.206261	0.115539
586.417493	0.115793
586.628706	0.115451
586.839902	0.115704
587.051079	0.115878
587.262238	0.115997
587.473379	0.115972
587.684502	0.116261
587.895606	0.116264
588.106692	0.116281
588.317760	0.116426
588.528810	0.116882
588.739841	0.116843
588.950855	0.116801
589.161850	0.116511
589.372827	0.116890
589.583785	0.116820
589.794726	0.116868
590.005648	0.117097
590.216552	0.116869
590.427437	0.116897
590.638305	0.117090
590.849154	0.117111
591.059985	0.117249
591.270798	0.117388
591.481592	0.117408
591.692369	0.117798
591.903127	0.117820
592.113867	0.117847
592.324588	0.117837
592.535292	0.117829
592.745977	0.117769
592.956644	0.118162
593.167293	0.118189
593.377923	0.118232
593.588536	0.118029
593.799130	0.118032
594.009706	0.118039
594.220263	0.117881
594.430803	0.118084
594.641324	0.118142
594.851827	0.117930
595.062312	0.117766
595.272778	0.117520
595.483227	0.117564
595.693657	0.117835
595.904069	0.117917
596.114462	0.118022
596.324838	0.117988
596.535195	0.118019
596.745534	0.118310
596.955855	0.118346
597.166157	0.118730
597.376441	0.119113
597.586707	0.119056
597.796955	0.119656
598.007185	0.119712
598.217396	0.119614
598.427589	0.119765
598.637764	0.119856
598.847921	0.120125
599.058060	0.120101
599.268180	0.120306
599.478282	0.120336
599.688366	0.119743
599.898431	0.120322
600.108479	0.120449
600.318508	0.120553
600.528519	0.120556
600.738511	0.120648
600.948486	0.120766
601.158442	0.120591
601.368380	0.120463
601.578300	0.120858
601.788202	0.120827
601.998085	0.120893
602.207950	0.121088
602.417797	0.121198
602.627626	0.121064
602.837436	0.121119
603.047228	0.121205
603.257002	0.121450
603.466758	0.121215
603.676496	0.121394
603.886215	0.121268
604.095916	0.121487
604.305599	0.121576
604.515264	0.121724
604.724910	0.121974
604.934538	0.121657
605.144148	0.121577
605.353740	0.121846
605.563314	0.121616
605.772869	0.121826
605.982406	0.121550
606.191925	0.121558
606.401425	0.121896
606.610908	0.121787
606.820372	0.122142
607.029818	0.122631
607.239246	0.123077
607.448655	0.123342
607.658047	0.123586
607.867420	0.124014
608.076775	0.124297
608.286111	0.124384
608.495430	0.124578
608.704730	0.124699
608.914012	0.124495
609.123275	0.124405
609.332521	0.124383
609.541748	0.124323
609.750957	0.124260
609.960148	0.124189
610.169321	0.124345
610.378475	0.124326
610.587611	0.124309
610.796729	0.124694
611.005829	0.124498
611.214910	0.124456
611.423974	0.124810
611.633019	0.125151
611.842045	0.125320
612.051054	0.125094
612.260044	0.125073
612.469017	0.125516
612.677970	0.125531
612.886906	0.125686
613.095824	0.125830
613.304723	0.125772
613.513604	0.125702
613.722467	0.125779
613.931311	0.125904
614.140138	0.125968
614.348946	0.125841
614.557736	0.125796
614.766507	0.125784
614.975261	0.125755
615.183996	0.125787
615.392713	0.125850
615.601412	0.126115
615.810092	0.126101
616.018754	0.126474
616.227399	0.126447
616.436024	0.126583
616.644632	0.127006
616.853222	0.127249
617.061793	0.127680
617.270346	0.127802
617.478880	0.127766
617.687397	0.127882
617.895895	0.128020
618.104375	0.128224
618.312837	0.128495
618.521281	0.128581
618.729706	0.128598
618.938113	0.128428
619.146502	0.128481
619.354873	0.128403
619.563226	0.128610
619.771560	0.128512
619.979876	0.128702
620.188174	0.128314
620.396453	0.128437
620.604715	0.128308
620.812958	0.128354
621.021183	0.128182
621.229390	0.128323
621.437578	0.128115
621.645748	0.128201
621.853900	0.127936
622.062034	0.128394
622.270150	0.128175
622.478247	0.128572
622.686326	0.128524
622.894387	0.128824
623.102430	0.128956
623.310454	0.129181
623.518461	0.129243
623.726449	0.129601
623.934418	0.129521
624.142370	0.129735
624.350303	0.129653
624.558218	0.129791
624.766115	0.129788
624.973994	0.129896
625.181855	0.129925
625.389697	0.130175
625.597521	0.129992
625.805327	0.130074
626.013114	0.129957
626.220883	0.129897
626.428634	0.130110
626.636367	0.130053
626.844082	0.130014
627.051778	0.130171
627.259457	0.129909
627.467117	0.130214
627.674758	0.130225
627.882382	0.130464
628.089987	0.130694
628.297574	0.130600
628.505143	0.130619
628.712694	0.130795
628.920226	0.130427
629.127740	0.130522
629.335236	0.130645
629.542714	0.130624
629.750174	0.130576
629.957615	0.130522
630.165038	0.130675
630.372443	0.130704
630.579829	0.130618
630.787198	0.131109
630.994548	0.130910
631.201880	0.130465
631.409194	0.130386
631.616489	0.130303
631.823766	0.130264
632.031025	0.130112
632.238266	0.130467
632.445489	0.130503
632.652693	0.130557
632.859879	0.130795
633.067047	0.131083
633.274197	0.131383
633.481329	0.131435
633.688442	0.131847
633.895537	0.132146
634.102614	0.132071
634.309672	0.132138
634.516713	0.132355
634.723735	0.132701
634.930739	0.132831
635.137724	0.133102
635.344692	0.133401
635.551641	0.133142
635.758572	0.133036
635.965485	0.133192
636.172379	0.133184
636.379256	0.133187
636.586114	0.132986
636.792954	0.133183
636.999775	0.133329
637.206579	0.133695
637.413364	0.134100
637.620131	0.134703
637.826880	0.134770
638.033610	0.135124
638.240323	0.135225
638.447017	0.135752
638.653692	0.136060
638.860350	0.136126
639.066990	0.136140
639.273611	0.136346
639.480214	0.136411
639.686798	0.136748
639.893365	0.136923
640.099913	0.137139
640.306443	0.137168
640.512955	0.137061
640.719449	0.136930
640.925924	0.136822
641.132381	0.136782
641.338820	0.136410
641.545241	0.136321
641.751644	0.136339
641.958028	0.136332
642.164394	0.136337
642.370742	0.136443
642.577071	0.136671
642.783383	0.137062
642.989676	0.137459
643.195951	0.137747
643.402207	0.137858
643.608446	0.138058
643.814666	0.138014
644.020868	0.138214
644.227052	0.138116
644.433218	0.137994
644.639365	0.137898
644.845494	0.137698
645.051605	0.137775
645.257698	0.137845
645.463772	0.137750
645.669828	0.138007
645.875866	0.137927
646.081886	0.137975
646.287888	0.138222
646.493871	0.138203
646.699836	0.138206
646.905783	0.138264
647.111712	0.138369
647.317622	0.138416
647.523514	0.138369
647.729388	0.138463
647.935244	0.138640
648.141082	0.138466
648.346901	0.138681
648.552702	0.138748
648.758485	0.138688
648.964250	0.138545
649.169996	0.138638
649.375724	0.138642
649.581434	0.138626
649.787126	0.138742
649.992800	0.138923
650.198455	0.138833
650.404092	0.139014
650.609711	0.139149
650.815311	0.139188
651.020894	0.139121
651.226458	0.139291
651.432004	0.139343
651.637532	0.139445
651.843041	0.139530
652.048532	0.139712
652.254006	0.139746
652.459460	0.139761
652.664897	0.139748
652.870315	0.139889
653.075716	0.140001
653.281097	0.140126
653.486461	0.140134
653.691807	0.140419
653.897134	0.140586
654.102443	0.140542
654.307734	0.140807
654.513006	0.141192
654.718261	0.141453
654.923497	0.141472
655.128715	0.141652
655.333915	0.142095
655.539096	0.141991
655.744259	0.142129
655.949404	0.142341
656.154531	0.142476
656.359640	0.142757
656.564730	0.142848
656.769802	0.142968
656.974856	0.143231
657.179892	0.143092
657.384909	0.143272
657.589908	0.143216
657.794889	0.143430
657.999852	0.143507
658.204797	0.143536
658.409723	0.143625
658.614631	0.143878
658.819521	0.143739
659.024393	0.143546
659.229246	0.143704
659.434081	0.143783
659.638898	0.143707
659.843697	0.143697
660.048478	0.143716
660.253240	0.143709
660.457984	0.143622
660.662710	0.143741
660.867417	0.144104
661.072107	0.144289
661.276778	0.144441
661.481431	0.144627
661.686066	0.144945
661.890682	0.144892
662.095281	0.145325
662.299861	0.145412
662.504422	0.145400
662.708966	0.145397
662.913491	0.145449
663.117999	0.145659
663.322488	0.145722
663.526958	0.145524
663.731411	0.145726
663.935845	0.145735
664.140261	0.145663
664.344659	0.145652
664.549038	0.145780
664.753400	0.145718
664.957743	0.145733
665.162068	0.145966
665.366375	0.146215
665.570663	0.146250
665.774933	0.146088
665.979185	0.146216
666.183419	0.146507
666.387635	0.146667
666.591832	0.146724
666.796011	0.146698
667.000172	0.146608
667.204315	0.146638
667.408439	0.146741
667.612545	0.146722
667.816634	0.146874
668.020703	0.146920
668.224755	0.147006
668.428788	0.147265
668.632803	0.147470
668.836800	0.147365
669.040779	0.147729
669.244739	0.147798
669.448681	0.147803
669.652605	0.148001
669.856511	0.148292
670.060399	0.148508
670.264268	0.148650
670.468119	0.148686
670.671952	0.149027
670.875767	0.148856
671.079563	0.149044
671.283341	0.149313
671.487101	0.149473
671.690843	0.149540
671.894567	0.149519
672.098272	0.149593
672.301959	0.149580
672.505628	0.149510
672.709278	0.149688
672.912911	0.149704
673.116525	0.149915
673.320121	0.149839
673.523699	0.149949
673.727258	0.149977
673.930799	0.150115
674.134322	0.150305
674.337827	0.150646
674.541314	0.150655
674.744782	0.150750
674.948232	0.150853
675.151664	0.151361
675.355078	0.151403
675.558474	0.151525
675.761851	0.151408
675.965210	0.151522
676.168551	0.151413
676.371873	0.151442
676.575178	0.151619
676.778464	0.151476
676.981732	0.151301
677.184981	0.151153
677.388213	0.151190
677.591426	0.151261
677.794621	0.151270
677.997798	0.151520
678.200956	0.151760
678.404097	0.151689
678.607219	0.151943
678.810323	0.151823
679.013408	0.152123
679.216476	0.152298
679.419525	0.152519
679.622556	0.152576
679.825569	0.152432
680.028563	0.152517
680.231540	0.152700
680.434498	0.152810
680.637438	0.153133
680.840359	0.153132
681.043263	0.153057
681.246148	0.153130
681.449015	0.153379
681.651864	0.153509
681.854694	0.153604
682.057506	0.153671
682.260301	0.153556
682.463076	0.153477
682.665834	0.153526
682.868573	0.153801
683.071295	0.153857
683.273998	0.154045
683.476682	0.154100
683.679349	0.154207
683.881997	0.154404
684.084627	0.154824
684.287239	0.155129
684.489833	0.155352
684.692408	0.155602
684.894965	0.155690
685.097504	0.155658
685.300025	0.155807
685.502527	0.155645
685.705012	0.155821
685.907478	0.155892
686.109925	0.155919
686.312355	0.156129
686.514766	0.155844
686.717159	0.155953
686.919534	0.155782
687.121891	0.155628
687.324230	0.155778
687.526550	0.155579
687.728852	0.155389
687.931136	0.155330
688.133401	0.155035
688.335649	0.155291
688.537878	0.155176
688.740089	0.155526
688.942281	0.155765
689.144456	0.156030
689.346612	0.156322
689.548750	0.156466
689.750870	0.156688
689.952971	0.156869
690.155055	0.156914
690.357120	0.157002
690.559167	0.156905
690.761195	0.157266
690.963206	0.157157
691.165198	0.156974
691.367172	0.157079
691.569128	0.156986
691.771065	0.157383
691.972984	0.157660
692.174885	0.157841
692.376768	0.157961
692.578633	0.157850
692.780479	0.158097
692.982308	0.158126
693.184118	0.158266
693.385909	0.158437
693.587683	0.158264
693.789438	0.158145
693.991175	0.158391
694.192894	0.158504
694.394595	0.158557
694.596277	0.158517
694.797941	0.158997
694.999587	0.159122
695.201215	0.159231
695.402824	0.159289
695.604416	0.159427
695.805989	0.159539
696.007543	0.159641
696.209080	0.159804
696.410598	0.160031
696.612099	0.160062
696.813580	0.160083
697.015044	0.160004
697.216490	0.160280
697.417917	0.160276
697.619326	0.160148
697.820717	0.160284
698.022089	0.160313
698.223444	0.160327
698.424780	0.160167
698.626098	0.160160
698.827397	0.160578
699.028679	0.160491
699.229942	0.160576
699.431187	0.160698
699.632414	0.160702
699.833622	0.160751
700.034813	0.160849
700.235985	0.161066
700.437139	0.161268
700.638274	0.161227
700.839392	0.161483
701.040491	0.161664
701.241572	0.161770
701.442635	0.161809
701.643679	0.161943
701.844706	0.161936
702.045714	0.161862
702.246704	0.161877
702.447675	0.161914
702.648629	0.161862
702.849564	0.162000
703.050481	0.161928
703.251380	0.162062
703.452260	0.161970
703.653122	0.161980
703.853966	0.161903
704.054792	0.161898
704.255600	0.161867
704.456389	0.161946
704.657160	0.161851
704.857913	0.162110
705.058648	0.161978
705.259365	0.162098
705.460063	0.162171
705.660743	0.162394
705.861405	0.162492
706.062048	0.162342
706.262674	0.162185
706.463281	0.161981
706.663870	0.161772
706.864441	0.161673
707.064993	0.161620
707.265527	0.161732
707.466043	0.161718
707.666541	0.161743
707.867021	0.161788
708.067482	0.161754
708.267925	0.162075
708.468350	0.162180
708.668757	0.162331
708.869145	0.162558
709.069516	0.162471
709.269868	0.162503
709.470201	0.162516
709.670517	0.162648
709.870814	0.162730
710.071093	0.162485
710.271354	0.162351
710.471597	0.162546
710.671821	0.162566
710.872028	0.162599
711.072216	0.162694
711.272385	0.162657
711.472537	0.162629
711.672670	0.162646
711.872785	0.162954
712.072882	0.162986
712.272961	0.162988
712.473021	0.162814
712.673063	0.162894
712.873087	0.162930
713.073093	0.163084
713.273081	0.163405
713.473050	0.163662
713.673001	0.163703
713.872934	0.164077
714.072849	0.164123
714.272745	0.164331
714.472623	0.164369
714.672483	0.164378
714.872325	0.164645
715.072148	0.164581
715.271954	0.164945
715.471741	0.164904
715.671509	0.165017
715.871260	0.165047
716.070992	0.165074
716.270707	0.164986
716.470403	0.165143
716.670080	0.164998
716.869740	0.165001
717.069381	0.164620
717.269004	0.164798
717.468609	0.164579
717.668195	0.164489
717.867764	0.164426
718.067314	0.164621
718.266846	0.164597
718.466360	0.164365
718.665855	0.164327
718.865332	0.164062
719.064791	0.163837
719.264232	0.163808
719.463655	0.163834
719.663059	0.163658
719.862445	0.163461
720.061813	0.163294
720.261163	0.163110
720.460494	0.163037
720.659807	0.163117
720.859102	0.163144
721.058379	0.162874
721.257638	0.162848
721.456878	0.162874
721.656100	0.162817
721.855304	0.162844
722.054490	0.163012
722.253657	0.162950
722.452806	0.162819
722.651937	0.162699
722.851050	0.162944
723.050145	0.162897
723.249221	0.163099
723.448279	0.163083
723.647319	0.162937
723.846340	0.162900
724.045344	0.162959
724.244329	0.162994
724.443296	0.162894
724.642245	0.162834
724.841175	0.162806
725.040088	0.162463
725.238982	0.162257
725.437857	0.162194
725.636715	0.162104
725.835554	0.161720
726.034376	0.161581
726.233179	0.161448
726.431963	0.161272
726.630730	0.161217
726.829478	0.161012
727.028208	0.160954
727.226920	0.160692
727.425614	0.160791
727.624289	0.160866
727.822946	0.160803
728.021585	0.160575
728.220206	0.160465
728.418808	0.160204
728.617392	0.160240
728.815958	0.160201
729.014506	0.160216
729.213036	0.159694
729.411547	0.159641
729.610040	0.159450
729.808515	0.159433
730.006972	0.159296
730.205410	0.159295
730.403831	0.159295
730.602233	0.159298
730.800616	0.159101
730.998982	0.159093
731.197329	0.158981
731.395658	0.159050
731.593969	0.158868
731.792262	0.158848
731.990536	0.158706
732.188793	0.158709
732.387031	0.158475
732.585250	0.158667
732.783452	0.158661
732.981635	0.158633
733.179800	0.158801
733.377947	0.159068
733.576076	0.158840
733.774186	0.158797
733.972278	0.158540
734.170352	0.158544
734.368408	0.158376
734.566446	0.158388
734.764465	0.158216
734.962466	0.157748
735.160449	0.157634
735.358413	0.157775
735.556360	0.157606
735.754288	0.157533
735.952198	0.157197
736.150090	0.157034
736.347963	0.156852
736.545818	0.156644
736.743655	0.156638
736.941474	0.156381
737.139275	0.156036
737.337057	0.155896
737.534821	0.155623
737.732567	0.155721
737.930295	0.155519
738.128005	0.155280
738.325696	0.155305
738.523369	0.155272
738.721024	0.155128
738.918660	0.155239
739.116279	0.155271
739.313879	0.155493
739.511461	0.155372
739.709024	0.155517
739.906570	0.155752
740.104097	0.155641
740.301606	0.155665
740.499097	0.155724
740.696569	0.155666
740.894024	0.155582
741.091460	0.155391
741.288878	0.155458
741.486277	0.155413
741.683659	0.155339
741.881022	0.155206
742.078367	0.155093
742.275694	0.154799
742.473002	0.154617
742.670293	0.154329
742.867565	0.154169
743.064819	0.153963
743.262054	0.153527
743.459272	0.153203
743.656471	0.152929
743.853652	0.152833
744.050815	0.152712
744.247959	0.152560
744.445085	0.152584
744.642194	0.152586
744.839283	0.152623
745.036355	0.153032
745.233408	0.152963
745.430444	0.153197
745.627461	0.153037
745.824459	0.153407
746.021440	0.153419
746.218402	0.153278
746.415346	0.153247
746.612272	0.153006
746.809180	0.152805
747.006069	0.152880
747.202940	0.152928
747.399793	0.153055
747.596628	0.152984
747.793444	0.153042
747.990243	0.153121
748.187023	0.153154
748.383784	0.153565
748.580528	0.153455
748.777253	0.153211
748.973960	0.153254
749.170649	0.153082
749.367320	0.152757
749.563973	0.152691
749.760607	0.152401
749.957223	0.152360
750.153821	0.152148
750.350400	0.151959
750.546962	0.152036
750.743505	0.151889
750.940030	0.151820
751.136536	0.151727
751.333025	0.151622
751.529495	0.151852
751.725947	0.151510
751.922381	0.150868
752.118796	0.150785
752.315194	0.150459
752.511573	0.150126
752.707934	0.149921
752.904276	0.149893
753.100601	0.149820
753.296907	0.149553
753.493195	0.149413
753.689465	0.149494
753.885716	0.149257
754.081949	0.149406
754.278164	0.149258
754.474361	0.149322
754.670540	0.149140
754.866700	0.149237
755.062843	0.149227
755.258967	0.149289
755.455072	0.149317
755.651160	0.149528
755.847229	0.149598
756.043280	0.149776
756.239313	0.149616
756.435328	0.149821
756.631324	0.149483
756.827302	0.149446
757.023262	0.149407
757.219204	0.149442
757.415127	0.149399
757.611033	0.149494
757.806920	0.149124
758.002788	0.149053
758.198639	0.148750
758.394471	0.148777
758.590286	0.148932
758.786081	0.149024
758.981859	0.149001
759.177619	0.148855
759.373360	0.148586
759.569083	0.148751
759.764788	0.148816
759.960474	0.148744
760.156143	0.148596
760.351793	0.148322
760.547425	0.148015
760.743038	0.147849
760.938634	0.147807
761.134211	0.147636
761.329770	0.147429
761.525311	0.147062
761.720833	0.147008
761.916338	0.146915
762.111824	0.146754
762.307292	0.146689
762.502741	0.146641
762.698173	0.146611
762.893586	0.146441
763.088981	0.146423
763.284358	0.146574
763.479716	0.146503
763.675057	0.146607
763.870379	0.146693
764.065683	0.146633
764.260968	0.146569
764.456236	0.146584
764.651485	0.146543
764.846716	0.146754
765.041929	0.146679
765.237123	0.146733
765.432299	0.146611
765.627457	0.146564
765.822597	0.146653
766.017719	0.146591
766.212822	0.146240
766.407907	0.146443
766.602974	0.146142
766.798023	0.146299
766.993054	0.146200
767.188066	0.146211
767.383060	0.146162
767.578036	0.146103
767.772993	0.146192
767.967933	0.146312
768.162854	0.146305
768.357757	0.146179
768.552642	0.145953
768.747508	0.145893
768.942356	0.145607
769.137186	0.145389
769.331998	0.145171
769.526792	0.145082
769.721567	0.145059
769.916324	0.144838
770.111063	0.145039
770.305784	0.145089
770.500486	0.145292
770.695171	0.145594
770.889837	0.145617
771.084484	0.145865
771.279114	0.145813
771.473725	0.145853
771.668318	0.145907
771.862893	0.146026
772.057450	0.145911
772.251988	0.145954
772.446509	0.145792
772.641011	0.145809
772.835494	0.145867
773.029960	0.146044
773.224407	0.145725
773.418836	0.145672
773.613247	0.145450
773.807640	0.145293
774.002014	0.145006
774.196370	0.144935
774.390708	0.145118
774.585028	0.144852
774.779330	0.144611
774.973613	0.144754
775.167878	0.144698
775.362125	0.144661
775.556354	0.144565
775.750564	0.144702
775.944756	0.144657
776.138930	0.144277
776.333086	0.144545
776.527223	0.144578
776.721343	0.144570
776.915444	0.144381
777.109526	0.144092
777.303591	0.144196
777.497637	0.144214
777.691666	0.144126
777.885676	0.144108
778.079667	0.143792
778.273641	0.143635
778.467596	0.143512
778.661533	0.143769
778.855452	0.144153
779.049352	0.144291
779.243235	0.144007
779.437099	0.144015
779.630945	0.144101
779.824773	0.144407
780.018582	0.144530
780.212373	0.144569
780.406146	0.144449
780.599901	0.144568
780.793638	0.144350
780.987356	0.144573
781.181056	0.144917
781.374738	0.145092
781.568402	0.144987
781.762047	0.145119
781.955674	0.145315
782.149283	0.145507
782.342874	0.145413
782.536447	0.145660
782.730001	0.145682
782.923537	0.145678
783.117055	0.145772
783.310555	0.145992
783.504036	0.146114
783.697499	0.146331
783.890944	0.146370
784.084371	0.146474
784.277780	0.146814
784.471170	0.147107
784.664542	0.147169
784.857896	0.147280
785.051231	0.147280
785.244549	0.147466
785.437848	0.147620
785.631129	0.147569
785.824392	0.147617
786.017636	0.147531
786.210863	0.147177
786.404071	0.147091
786.597260	0.147219
786.790432	0.147298
786.983585	0.147272
787.176721	0.147063
787.369838	0.147348
787.562936	0.147390
787.756017	0.147356
787.949079	0.147482
788.142123	0.147763
788.335149	0.147633
788.528156	0.147617
788.721146	0.147428
788.914117	0.147479
789.107070	0.147393
789.300005	0.147550
789.492921	0.147701
789.685819	0.147852
789.878699	0.147536
790.071561	0.147681
790.264405	0.147594
790.457230	0.147570
790.650037	0.147541
790.842826	0.147700
791.035597	0.147278
791.228349	0.146886
791.421084	0.146662
791.613800	0.147013
791.806497	0.146981
791.999177	0.147094
792.191838	0.147377
792.384481	0.147650
792.577106	0.147661
792.769713	0.147934
792.962301	0.148031
793.154871	0.148342
793.347423	0.148156
793.539957	0.148149
793.732473	0.148297
793.924970	0.148281
794.117449	0.148275
794.309910	0.148365
794.502353	0.148582
794.694777	0.149077
794.887183	0.149315
795.079571	0.149365
795.271941	0.149761
795.464293	0.149745
795.656626	0.149836
795.848941	0.149855
796.041238	0.149818
796.233516	0.150056
796.425777	0.150258
796.618019	0.150118
796.810243	0.150307
797.002449	0.150392
797.194636	0.150621
797.386805	0.150894
797.578956	0.151056
797.771089	0.151266
797.963204	0.151271
798.155300	0.151130
798.347378	0.151333
798.539438	0.151422
798.731480	0.151416
798.923503	0.151412
799.115509	0.151304
799.307496	0.151278
799.499465	0.151428
799.691415	0.151626
799.883348	0.151736
800.075262	0.151725
800.267158	0.151885
800.459035	0.151981
800.650895	0.152241
800.842736	0.152363
801.034559	0.152520
801.226364	0.152595
801.418150	0.152509
801.609919	0.152556
801.801669	0.152989
801.993401	0.153000
802.185114	0.153291
802.376810	0.153356
802.568487	0.153742
802.760146	0.154001
802.951787	0.154272
803.143409	0.154505
803.335014	0.154851
803.526600	0.154907
803.718168	0.155230
803.909717	0.155046
804.101249	0.155320
804.292762	0.155139
804.484257	0.155304
804.675734	0.155234
804.867192	0.155303
805.058632	0.155172
805.250054	0.155160
805.441458	0.155208
805.632844	0.155216
805.824211	0.155287
806.015561	0.155674
806.206891	0.155886
806.398204	0.156170
806.589499	0.156428
806.780775	0.156583
806.972033	0.156774
807.163273	0.157134
807.354495	0.157618
807.545698	0.157858
807.736883	0.158164
807.928050	0.158289
808.119199	0.158520
808.310329	0.158879
808.501441	0.159484
808.692535	0.159831
808.883611	0.160039
809.074669	0.160339
809.265708	0.160680
809.456729	0.160765
809.647732	0.161251
809.838717	0.161535
810.029683	0.161620
810.220632	0.161999
810.411562	0.162164
810.602474	0.162617
810.793367	0.162850
810.984242	0.162976
811.175100	0.163161
811.365938	0.163194
811.556759	0.163388
811.747562	0.163587
811.938346	0.163678
812.129112	0.163841
812.319860	0.164037
812.510589	0.164061
812.701300	0.164221
812.891994	0.164330
813.082668	0.164306
813.273325	0.164495
813.463964	0.164708
813.654584	0.164864
813.845186	0.165426
814.035769	0.165404
814.226335	0.165761
814.416882	0.165813
814.607411	0.166166
814.797922	0.166434
814.988415	0.166657
815.178889	0.167186
815.369345	0.167393
815.559783	0.167437
815.750203	0.167669
815.940605	0.167913
816.130988	0.168421
816.321353	0.168594
816.511700	0.168988
816.702028	0.169390
816.892339	0.169468
817.082631	0.169674
817.272905	0.169835
817.463161	0.169919
817.653398	0.170190
817.843617	0.170126
818.033819	0.170614
818.224001	0.170876
818.414166	0.170695
818.604312	0.170767
818.794440	0.170905
818.984550	0.171028
819.174642	0.171289
819.364716	0.171181
819.554771	0.171396
819.744808	0.171197
819.934827	0.171251
820.124827	0.171464
820.314810	0.171406
820.504774	0.171850
820.694720	0.172034
820.884647	0.172128
821.074557	0.172494
821.264448	0.172530
821.454321	0.172662
821.644176	0.172638
821.834012	0.172884
822.023831	0.173259
822.213631	0.173059
822.403413	0.173204
822.593176	0.173422
822.782922	0.173704
822.972649	0.174133
823.162358	0.174510
823.352049	0.174861
823.541721	0.175155
823.731376	0.175478
823.921012	0.175815
824.110629	0.176133
824.300229	0.176527
824.489811	0.176652
824.679374	0.176955
824.868919	0.177434
825.058445	0.177921
825.247954	0.178172
825.437444	0.178551
825.626916	0.178874
825.816370	0.179225
826.005806	0.179506
826.195223	0.179778
826.384622	0.179680
826.574003	0.179660
826.763366	0.179816
826.952711	0.180005
827.142037	0.179984
827.331345	0.180147
827.520635	0.180266
827.709906	0.180232
827.899160	0.180324
828.088395	0.180714
828.277612	0.180894
828.466810	0.181034
828.655991	0.181215
828.845153	0.181446
829.034297	0.181568
829.223423	0.181684
829.412531	0.181655
829.601620	0.182013
829.790691	0.182405
829.979744	0.182558
830.168779	0.182899
830.357795	0.183024
830.546793	0.183086
830.735773	0.183382
830.924735	0.183657
831.113679	0.184148
831.302604	0.184324
831.491511	0.184303
831.680400	0.184636
831.869271	0.184884
832.058123	0.184835
832.246957	0.185170
832.435773	0.185252
832.624571	0.185448
832.813351	0.185681
833.002112	0.185661
833.190855	0.185955
833.379580	0.186179
833.568287	0.186145
833.756975	0.186410
833.945645	0.186856
834.134297	0.187037
834.322931	0.187333
834.511547	0.187610
834.700144	0.187957
834.888723	0.188512
835.077284	0.188876
835.265826	0.189357
835.454351	0.190150
835.642857	0.190336
835.831345	0.190791
836.019815	0.191309
836.208266	0.191787
836.396699	0.192294
836.585114	0.192398
836.773511	0.192655
836.961890	0.192591
837.150250	0.192877
837.338592	0.193074
837.526916	0.193613
837.715222	0.193703
837.903510	0.193840
838.091779	0.194212
838.280030	0.194357
838.468263	0.194746
838.656477	0.195283
838.844674	0.195273
839.032852	0.195731
839.221012	0.195678
839.409153	0.196142
839.597277	0.196691
839.785382	0.197042
839.973469	0.197410
840.161538	0.197794
840.349589	0.198128
840.537621	0.198361
840.725635	0.198589
840.913631	0.199202
841.101609	0.199540
841.289568	0.199735
841.477509	0.199674
841.665432	0.199997
841.853337	0.200129
842.041224	0.200267
842.229092	0.200946
842.416942	0.200946
842.604774	0.201200
842.792588	0.201163
842.980383	0.201277
843.168160	0.201619
843.355919	0.201689
843.543660	0.202043
843.731382	0.202361
843.919087	0.202515
844.106773	0.203129
844.294441	0.203081
844.482090	0.203608
844.669722	0.204006
844.857335	0.204194
845.044930	0.204750
845.232507	0.205113
845.420065	0.205594
845.607605	0.205781
845.795127	0.205946
845.982631	0.206483
846.170117	0.206602
846.357584	0.206901
846.545033	0.207524
846.732464	0.207678
846.919877	0.207943
847.107272	0.207931
847.294648	0.208180
847.482006	0.208643
847.669346	0.208846
847.856667	0.208919
848.043971	0.209079
848.231256	0.209393
848.418523	0.209603
848.605771	0.209780
848.793002	0.209972
848.980214	0.210155
849.167408	0.210417
849.354584	0.210731
849.541742	0.211061
849.728881	0.211577
849.916002	0.211913
850.103105	0.212271
850.290190	0.212633
850.477256	0.213352
850.664304	0.213794
850.851334	0.213922
851.038346	0.214169
851.225340	0.214772
851.412315	0.214875
851.599272	0.214925
851.786211	0.215192
851.973132	0.215208
852.160034	0.215293
852.346918	0.215619
852.533784	0.215542
852.720632	0.216075
852.907462	0.216175
853.094273	0.216501
853.281066	0.217294
853.467841	0.217719
853.654598	0.218270
853.841336	0.218572
854.028056	0.218801
854.214758	0.219581
854.401442	0.219520
854.588107	0.219792
854.774755	0.219886
854.961384	0.219887
855.147995	0.219775
855.334587	0.219789
855.521162	0.220342
855.707718	0.220760
855.894256	0.221141
856.080775	0.221425
856.267277	0.221646
856.453760	0.222093
856.640225	0.222087
856.826672	0.222797
857.013101	0.223322
857.199511	0.223370
857.385903	0.223970
857.572277	0.224127
857.758633	0.224461
857.944970	0.224937
858.131290	0.225027
858.317591	0.225433
858.503873	0.225718
858.690138	0.225743
858.876384	0.225970
859.062612	0.225932
859.248822	0.225913
859.435014	0.226004
859.621188	0.226131
859.807343	0.226590
859.993480	0.226630
860.179599	0.226722
860.365699	0.227039
860.551781	0.227365
860.737846	0.227838
860.923891	0.228184
861.109919	0.228486
861.295929	0.229064
861.481920	0.229595
861.667893	0.230145
861.853848	0.230639
862.039784	0.230932
862.225702	0.231278
862.411603	0.231258
862.597484	0.231709
862.783348	0.232158
862.969193	0.231852
863.155021	0.231788
863.340830	0.231850
863.526620	0.231750
863.712393	0.231922
863.898147	0.232163
864.083883	0.232417
864.269601	0.232541
864.455301	0.232831
864.640982	0.233143
864.826645	0.233101
865.012290	0.233319
865.197917	0.233726
865.383526	0.233919
865.569116	0.234119
865.754688	0.234300
865.940242	0.234422
866.125777	0.234633
866.311295	0.234903
866.496794	0.235240
866.682275	0.235561
866.867737	0.235420
867.053182	0.235387
867.238608	0.235222
867.424016	0.235485
867.609406	0.235790
867.794778	0.235676
867.980131	0.235895
868.165466	0.236100
868.350783	0.235896
868.536082	0.236271
868.721362	0.236402
868.906625	0.236581
869.091869	0.236240
869.277094	0.236035
869.462302	0.236167
869.647491	0.236410
869.832662	0.236181
870.017815	0.236504
870.202950	0.236535
870.388066	0.237182
870.573165	0.237636
870.758245	0.238170
870.943306	0.238644
871.128350	0.239017
871.313375	0.239380
871.498382	0.240261
871.683371	0.240790
871.868342	0.241301
872.053294	0.241543
872.238229	0.241601
872.423144	0.242490
872.608042	0.242999
872.792922	0.243441
872.977783	0.243296
873.162626	0.243540
873.347451	0.243712
873.532258	0.244477
873.717046	0.244620
873.901816	0.245582
874.086568	0.245208
874.271302	0.245395
874.456017	0.245623
874.640715	0.246100
874.825394	0.246722
875.010055	0.246979
875.194697	0.246666
875.379322	0.247105
875.563928	0.246820
875.748516	0.247171
875.933085	0.247062
876.117637	0.247096
876.302170	0.247303
876.486685	0.247134
876.671182	0.247376
876.855661	0.247475
877.040121	0.247550
877.224563	0.247741
877.408987	0.247642
877.593393	0.248031
877.777780	0.248320
877.962150	0.248325
878.146501	0.247955
878.330833	0.247826
878.515148	0.248134
878.699444	0.248320
878.883722	0.247997
879.067982	0.248188
879.252224	0.247883
879.436447	0.247788
879.620653	0.248246
879.804840	0.248314
879.989008	0.248645
880.173159	0.248566
880.357291	0.248244
880.541405	0.248376
880.725501	0.248378
880.909579	0.248662
881.093638	0.249057
881.277680	0.248574
881.461703	0.248961
881.645707	0.248476
881.829694	0.248556
882.013662	0.248881
882.197612	0.249353
882.381544	0.249729
882.565458	0.249921
882.749353	0.249972
882.933230	0.250543
883.117089	0.250992
883.300930	0.251474
883.484753	0.251584
883.668557	0.251641
883.852343	0.251522
884.036111	0.250910
884.219861	0.251145
884.403592	0.250911
884.587305	0.250905
884.771000	0.250372
884.954677	0.250243
885.138335	0.250020
885.321976	0.249753
885.505598	0.249856
885.689201	0.250572
885.872787	0.250250
886.056354	0.250158
886.239904	0.249858
886.423434	0.250197
886.606947	0.250405
886.790442	0.250557
886.973918	0.250958
887.157376	0.250959
887.340816	0.250585
887.524237	0.250789
887.707641	0.250613
887.891026	0.250697
888.074393	0.250542
888.257741	0.250610
888.441072	0.251097
888.624384	0.251253
888.807678	0.251208
888.990954	0.251795
889.174211	0.251926
889.357451	0.252190
889.540672	0.252077
889.723875	0.252470
889.907059	0.252882
890.090226	0.252409
890.273374	0.252369
890.456504	0.253037
890.639616	0.252864
890.822709	0.252597
891.005785	0.253146
891.188842	0.253275
891.371881	0.253354
891.554901	0.253359
891.737904	0.253490
891.920888	0.253616
892.103854	0.253193
892.286802	0.253465
892.469731	0.253831
892.652643	0.253444
892.835536	0.253473
893.018410	0.253138
893.201267	0.252679
893.384106	0.252620
893.566926	0.252188
893.749728	0.251929
893.932511	0.251595
894.115277	0.250899
894.298024	0.250593
894.480753	0.250647
894.663464	0.250573
894.846157	0.250762
895.028831	0.250632
895.211487	0.250477
895.394125	0.250495
895.576745	0.250497
895.759346	0.250935
895.941930	0.251094
896.124495	0.250873
896.307041	0.250936
896.489570	0.250513
896.672080	0.251116
896.854573	0.251330
897.037046	0.251318
897.219502	0.251379
897.401940	0.250968
897.584359	0.250843
897.766760	0.251146
897.949143	0.251423
898.131507	0.251323
898.313854	0.250891
898.496182	0.250838
898.678492	0.250523
898.860783	0.249701
899.043057	0.249680
899.225312	0.249874
899.407549	0.249634
899.589768	0.249053
899.771968	0.249135
899.954151	0.248812
900.136315	0.248505
900.318461	0.248601
900.500588	0.248714
900.682698	0.248548
900.864789	0.248415
901.046862	0.248058
901.228917	0.247420
901.410953	0.247219
901.592971	0.246970
901.774972	0.246492
901.956953	0.245984
902.138917	0.245679
902.320862	0.245430
902.502790	0.244994
902.684699	0.244784
902.866589	0.244857
903.048462	0.244598
903.230316	0.244693
903.412152	0.244646
903.593970	0.244671
903.775770	0.244914
903.957551	0.244751
904.139314	0.244796
904.321059	0.244923
904.502786	0.244891
904.684494	0.244346
904.866185	0.244081
905.047857	0.244298
905.229510	0.243882
905.411146	0.243408
905.592763	0.243717
905.774363	0.243113
905.955943	0.242978
906.137506	0.242696
906.319051	0.242933
906.500577	0.242740
906.682085	0.242364
906.863575	0.242343
907.045046	0.241485
907.226500	0.241209
907.407935	0.241004
907.589352	0.240248
907.770750	0.239925
907.952131	0.239592
908.133493	0.239143
908.314837	0.238509
908.496163	0.238414
908.677470	0.238901
908.858760	0.238199
909.040031	0.237699
909.221284	0.237430
909.402518	0.237098
909.583735	0.236794
909.764933	0.236119
909.946113	0.235885
910.127275	0.234872
910.308418	0.234292
910.489544	0.233735
910.670651	0.233428
910.851740	0.233495
911.032810	0.232889
911.213863	0.232073
911.394897	0.231510
911.575913	0.230693
911.756911	0.230650
911.937890	0.230498
912.118851	0.230861
912.299794	0.230208
912.480719	0.229074
912.661626	0.228988
912.842514	0.228656
913.023384	0.228430
913.204236	0.228348
913.385070	0.227980
913.565886	0.227343
913.746683	0.226634
913.927462	0.226505
914.108223	0.226399
914.288965	0.225953
914.469690	0.225934
914.650396	0.225615
914.831084	0.225373
915.011754	0.224709
915.192405	0.224083
915.373038	0.223381
915.553653	0.222896
915.734250	0.223060
915.914829	0.222754
916.095389	0.222276
916.275931	0.222195
916.456455	0.222089
916.636961	0.222036
916.817448	0.221430
916.997917	0.220572
917.178368	0.220582
917.358801	0.218978
917.539216	0.218372
917.719612	0.217549
917.899990	0.216853
918.080350	0.216117
918.260692	0.215522
918.441015	0.215399
918.621320	0.215651
918.801607	0.215156
918.981876	0.215166
919.162127	0.215018
919.342359	0.215026
919.522573	0.215173
919.702769	0.215234
919.882947	0.215005
920.063106	0.214684
920.243247	0.214159
920.423370	0.213752
920.603475	0.213516
920.783562	0.212969
920.963630	0.212268
921.143680	0.211398
921.323712	0.210579
921.503725	0.209535
921.683721	0.209391
921.863698	0.208706
922.043657	0.207807
922.223598	0.207664
922.403520	0.207110
922.583424	0.206561
922.763311	0.205731
922.943178	0.204556
923.123028	0.204565
923.302859	0.203605
923.482673	0.203006
923.662467	0.202531
923.842244	0.201735
924.022003	0.200886
924.201743	0.199997
924.381465	0.199882
924.561169	0.199784
924.740854	0.198786
924.920522	0.198337
925.100171	0.198411
925.279802	0.197810
925.459414	0.197453
925.639009	0.197208
925.818585	0.197372
925.998143	0.196368
926.177683	0.195662
926.357205	0.195712
926.536708	0.195190
926.716193	0.194683
926.895660	0.194277
927.075109	0.193353
927.254539	0.192801
927.433951	0.191826
927.613345	0.191227
927.792721	0.190707
927.972079	0.190092
928.151418	0.189604
928.330739	0.188586
928.510042	0.187896
928.689327	0.187600
928.868593	0.186556
929.047841	0.185905
929.227071	0.185448
929.406283	0.184890
929.585476	0.183895
929.764652	0.182455
929.943809	0.182162
930.122948	0.181291
930.302068	0.180983
930.481171	0.180586
930.660255	0.180048
930.839321	0.179448
931.018369	0.178904
931.197398	0.178341
931.376409	0.178585
931.555402	0.177826
931.734377	0.178161
931.913334	0.176928
932.092272	0.175722
932.271192	0.175635
932.450094	0.175362
932.628978	0.175069
932.807844	0.173996
932.986691	0.173244
933.165520	0.172568
933.344331	0.170609
933.523123	0.169963
933.701898	0.170143
933.880654	0.169227
934.059392	0.168350
934.238111	0.166919
934.416813	0.166633
934.595496	0.165731
934.774161	0.164388
934.952808	0.164317
935.131437	0.164237
935.310047	0.163675
935.488639	0.162801
935.667213	0.162233
935.845769	0.162095
936.024306	0.161021
936.202825	0.160988
936.381326	0.160290
936.559809	0.159528
936.738274	0.158499
936.916720	0.157642
937.095148	0.156669
937.273558	0.155964
937.451950	0.155450
937.630323	0.154800
937.808678	0.152940
937.987015	0.152405
938.165334	0.152282
938.343635	0.150699
938.521917	0.150237
938.700181	0.150082
938.878427	0.149372
939.056655	0.148513
939.234864	0.148184
939.413055	0.148468
939.591228	0.147790
939.769383	0.146110
939.947519	0.145800
940.125638	0.144647
940.303738	0.143209
940.481820	0.141596
940.659883	0.140971
940.837929	0.139755
941.015956	0.138034
941.193965	0.137560
941.371955	0.136427
941.549928	0.135554
941.727882	0.134579
941.905818	0.134059
942.083736	0.133986
942.261636	0.133371
942.439517	0.134249
942.617380	0.133082
942.795225	0.132429
942.973052	0.132204
943.150860	0.132301
943.328651	0.132279
943.506423	0.132091
943.684176	0.130869
943.861912	0.129675
944.039629	0.127546
944.217328	0.127134
944.395009	0.126223
944.572672	0.126396
944.750317	0.125642
944.927943	0.123761
945.105551	0.123108
945.283141	0.123345
945.460712	0.122260
945.638265	0.121471
945.815801	0.120245
945.993317	0.119523
946.170816	0.117961
946.348297	0.116783
946.525759	0.117215
946.703203	0.116161
946.880629	0.115919
947.058036	0.115526
947.235425	0.116324
947.412797	0.118282
947.590149	0.117654
947.767484	0.117052
947.944800	0.116295
948.122099	0.114371
948.299379	0.114104
948.476640	0.112377
948.653884	0.111181
948.831109	0.109325
949.008316	0.107862
949.185505	0.106586
949.362676	0.106054
949.539828	0.105409
949.716962	0.104821
949.894078	0.104149
950.071176	0.102534
950.248256	0.102872
950.425317	0.102535
950.602360	0.100449
950.779385	0.100663
950.956391	0.100332
951.133380	0.100752
951.310350	0.100592
951.487302	0.098182
951.664235	0.098867
951.841151	0.096950
952.018048	0.096798
952.194927	0.097281
952.371788	0.096124
952.548631	0.095120
952.725455	0.092203
952.902261	0.092103
953.079049	0.091839
953.255819	0.090351
953.432570	0.090748
953.609303	0.089818
953.786018	0.089843
953.962715	0.089683
954.139394	0.089687
954.316054	0.090346
954.492696	0.089992
954.669320	0.091782
954.845926	0.091682
955.022513	0.091578
955.199083	0.091648
955.375634	0.090012
955.552166	0.089798
955.728681	0.087232
955.905177	0.086014
956.081655	0.087137
956.258115	0.085288
956.434557	0.084197
956.610980	0.082834
956.787385	0.082706
956.963772	0.082250
957.140141	0.081807
957.316492	0.084022
957.492824	0.085814
957.669138	0.084439
957.845434	0.082920
958.021712	0.082716
958.197971	0.082754
958.374212	0.081852
958.550435	0.082597
958.726640	0.080370
958.902826	0.078113
959.078995	0.075785
959.255145	0.072915
959.431277	0.076080
959.607390	0.077182
959.783486	0.078309
959.959563	0.076035
960.135622	0.075740
960.311662	0.076483
960.487685	0.077209
960.663689	0.078704
960.839675	0.082201
961.015643	0.079556
961.191593	0.077696
961.367524	0.076392
961.543437	0.077787
961.719332	0.077081
961.895209	0.076925
962.071067	0.078138
962.246907	0.078285
962.422730	0.076964
962.598533	0.077938
962.774319	0.078964
962.950086	0.077460
963.125835	0.076396
963.301566	0.076133
963.477279	0.076686
963.652973	0.075933
963.828650	0.072739
964.004308	0.071894
964.179947	0.071367
964.355569	0.070502
964.531172	0.073087
964.706757	0.075899
964.882324	0.076839
965.057873	0.078202
965.233403	0.077747
965.408916	0.081451
965.584410	0.082484
965.759885	0.080685
965.935343	0.081732
966.110782	0.081985
966.286203	0.081321
966.461606	0.080917
966.636991	0.079558
966.812357	0.081782
966.987705	0.080150
967.163035	0.078676
967.338347	0.080639
967.513641	0.082014
967.688916	0.079602
967.864173	0.077418
968.039412	0.077261
968.214632	0.078016
968.389835	0.076090
968.565019	0.075185
968.740185	0.075795
968.915333	0.075271
969.090462	0.074225
969.265573	0.074045
969.440667	0.074894
969.615741	0.072469
969.790798	0.072392
969.965836	0.071731
970.140856	0.072882
970.315858	0.071479
970.490842	0.071325
970.665808	0.071230
970.840755	0.071097
971.015684	0.071294
971.190595	0.074549
971.365487	0.073354
971.540362	0.075212
971.715218	0.075407
971.890056	0.076443
972.064875	0.075746
972.239677	0.075239
972.414460	0.073883
972.589225	0.071779
972.763972	0.071476
972.938700	0.070387
973.113411	0.068932
973.288103	0.067580
973.462777	0.068581
973.637432	0.071137
973.812070	0.071553
973.986689	0.073913
974.161290	0.074894
974.335873	0.073618
974.510437	0.074616
974.684984	0.074381
974.859512	0.074101
975.034022	0.073497
975.208513	0.070974
975.382987	0.068813
975.557442	0.069278
975.731879	0.071708
975.906298	0.071973
976.080698	0.071707
976.255080	0.072340
976.429445	0.073917
976.603790	0.073611
976.778118	0.074355
976.952427	0.076089
977.126719	0.075993
977.300992	0.073782
977.475246	0.073971
977.649483	0.072641
977.823701	0.073642
977.997901	0.073374
978.172083	0.073994
978.346247	0.076137
978.520392	0.075943
978.694519	0.075558
978.868628	0.077440
979.042719	0.078104
979.216791	0.079160
979.390845	0.076325
979.564882	0.076083
979.738899	0.072941
979.912899	0.069678
980.086880	0.069728
980.260843	0.069395
980.434788	0.068221
980.608715	0.066363
980.782623	0.067642
980.956514	0.069606
981.130386	0.066468
981.304240	0.070556
981.478075	0.071320
981.651892	0.072609
981.825692	0.071810
981.999472	0.070935
982.173235	0.071349
982.346980	0.070793
982.520706	0.071704
982.694414	0.073931
982.868104	0.072130
983.041775	0.073052
983.215428	0.072646
983.389064	0.072682
983.562680	0.074113
983.736279	0.075201
983.909860	0.073876
984.083422	0.071176
984.256966	0.073236
984.430491	0.075059
984.603999	0.075113
984.777488	0.076856
984.950959	0.079255
985.124412	0.078095
985.297847	0.077706
985.471263	0.078161
985.644661	0.079239
985.818041	0.078315
985.991403	0.078142
986.164747	0.077072
986.338072	0.076439
986.511379	0.075569
986.684668	0.076631
986.857938	0.076221
987.031191	0.077945
987.204425	0.077333
987.377641	0.077930
987.550839	0.078142
987.724018	0.078461
987.897179	0.077873
988.070322	0.077584
988.243447	0.077707
988.416554	0.078310
988.589642	0.076874
988.762712	0.077720
988.935764	0.077095
989.108798	0.075349
989.281813	0.075167
989.454811	0.074711
989.627790	0.076960
989.800751	0.075585
989.973693	0.076101
990.146617	0.077751
990.319524	0.077477
990.492412	0.076973
990.665281	0.076541
990.838133	0.077570
991.010966	0.075917
991.183781	0.073331
991.356578	0.072446
991.529356	0.071239
991.702117	0.070156
991.874859	0.070896
992.047583	0.070482
992.220288	0.071589
992.392976	0.071617
992.565645	0.073578
992.738296	0.072735
992.910929	0.075674
993.083543	0.075936
993.256139	0.076200
993.428718	0.075364
993.601277	0.077529
993.773819	0.077148
993.946342	0.076866
994.118848	0.075768
994.291335	0.077387
994.463803	0.075284
994.636254	0.075284
994.808686	0.074920
994.981100	0.075357
995.153496	0.075144
995.325874	0.074913
995.498233	0.074122
995.670574	0.073873
995.842897	0.073113
996.015202	0.072660
996.187488	0.070795
996.359757	0.071383
996.532007	0.071736
996.704239	0.070046
996.876452	0.069976
997.048648	0.069351
997.220825	0.067764
997.392984	0.068777
997.565124	0.069166
997.737247	0.072541
997.909351	0.071879
998.081437	0.070840
998.253505	0.070107
998.425554	0.068796
998.597586	0.071466
998.769599	0.074384
998.941594	0.073444
999.113571	0.074546
999.285529	0.073348
999.457469	0.073361
999.629391	0.075230
999.801295	0.076207
999.973181	0.077938
1000.145048	0.077008
1000.316897	0.076861
1000.488728	0.077194
1000.660541	0.075770
1000.832335	0.076279
1001.004111	0.075660
1001.175869	0.072921
1001.347609	0.074355
1001.519331	0.075238
1001.691034	0.073917
1001.862719	0.072336
1002.034386	0.072505
1002.206035	0.072832
1002.377665	0.073853
1002.549277	0.073871
1002.720871	0.074522
1002.892447	0.071842
1003.064004	0.070453
1003.235544	0.070620
1003.407065	0.072285
1003.578568	0.072429
1003.750052	0.074721
1003.921519	0.072501
1004.092967	0.075406
1004.264397	0.075135
1004.435809	0.075128
1004.607202	0.074427
1004.778577	0.074105
1004.949934	0.071729
1005.121273	0.072556
1005.292594	0.071997
1005.463896	0.071849
1005.635180	0.069984
1005.806446	0.071639
1005.977694	0.072918
1006.148923	0.075490
1006.320135	0.074690
1006.491328	0.075991
1006.662503	0.074644
1006.833659	0.072468
1007.004798	0.072610
1007.175918	0.073458
1007.347020	0.072722
1007.518103	0.073814
1007.689169	0.072315
1007.860216	0.072848
1008.031245	0.072688
1008.202256	0.072426
1008.373248	0.073041
1008.544223	0.073569
1008.715179	0.070997
1008.886117	0.071587
1009.057036	0.071093
1009.227938	0.070673
1009.398821	0.071867
1009.569686	0.071569
1009.740533	0.071257
1009.911361	0.070829
1010.082172	0.070106
1010.252964	0.071327
1010.423738	0.070432
1010.594493	0.069697
1010.765231	0.069059
1010.935950	0.068893
1011.106651	0.070105
1011.277334	0.071889
1011.447998	0.072466
1011.618645	0.073371
1011.789273	0.071580
1011.959882	0.071423
1012.130474	0.070744
1012.301048	0.073335
1012.471603	0.074273
1012.642140	0.074358
1012.812658	0.073457
1012.983159	0.074426
1013.153641	0.074647
1013.324105	0.076135
1013.494551	0.076804
1013.664979	0.076709
1013.835388	0.075297
1014.005779	0.073239
1014.176152	0.071460
1014.346507	0.071471
1014.516843	0.070149
1014.687162	0.069050
1014.857462	0.067502
1015.027744	0.067220
1015.198007	0.068030
1015.368252	0.066486
1015.538480	0.066178
1015.708689	0.068213
1015.878879	0.067802
1016.049052	0.068421
1016.219206	0.068247
1016.389342	0.071611
1016.559460	0.070267
1016.729559	0.069699
1016.899641	0.071191
1017.069704	0.072529
1017.239749	0.070847
1017.409775	0.070004
1017.579784	0.069090
1017.749774	0.069882
1017.919746	0.068427
1018.089700	0.069064
1018.259635	0.070316
1018.429553	0.071658
1018.599452	0.070611
1018.769333	0.070931
1018.939195	0.071217
1019.109040	0.072086
1019.278866	0.072559
1019.448674	0.071992
1019.618464	0.072376
1019.788235	0.071346
1019.957989	0.069391
1020.127724	0.068922
1020.297441	0.068778
1020.467139	0.069769
1020.636820	0.071008
1020.806482	0.070883
1020.976126	0.071323
1021.145752	0.070510
1021.315359	0.069358
1021.484948	0.069883
1021.654519	0.071877
1021.824072	0.072258
1021.993607	0.072347
1022.163123	0.070763
1022.332621	0.069811
1022.502101	0.069900
1022.671563	0.071023
1022.841007	0.073254
1023.010432	0.073637
1023.179839	0.072936
1023.349228	0.073383
1023.518598	0.074532
1023.687951	0.074279
1023.857285	0.075261
1024.026601	0.074835
1024.195899	0.073413
1024.365178	0.071507
1024.534439	0.070271
1024.703682	0.070102
1024.872907	0.070104
1025.042114	0.067777
1025.211302	0.067958
1025.380472	0.068380
1025.549624	0.068212
1025.718758	0.070378
1025.887873	0.071676
1026.056970	0.072618
1026.226049	0.073429
1026.395110	0.072084
1026.564153	0.074198
1026.733177	0.074176
1026.902183	0.073460
1027.071171	0.073943
1027.240141	0.071616
1027.409092	0.069806
1027.578026	0.069118
1027.746940	0.069263
1027.915837	0.070109
1028.084716	0.067487
1028.253576	0.068723
1028.422418	0.067357
1028.591242	0.066023
1028.760048	0.065850
1028.928835	0.068060
1029.097604	0.067569
1029.266355	0.067008
1029.435088	0.065962
1029.603803	0.067680
1029.772499	0.065713
1029.941177	0.066473
1030.109837	0.068452
1030.278478	0.069605
1030.447102	0.069209
1030.615707	0.070119
1030.784294	0.069996
1030.952863	0.071636
1031.121413	0.069413
1031.289945	0.071542
1031.458460	0.071528
1031.626955	0.069825
1031.795433	0.071284
1031.963892	0.071698
1032.132334	0.072854
1032.300756	0.072250
1032.469161	0.069851
1032.637548	0.069890
1032.805916	0.067450
1032.974266	0.066784
1033.142598	0.067839
1033.310911	0.066586
1033.479207	0.065031
1033.647484	0.063057
1033.815743	0.061715
1033.983983	0.062984
1034.152206	0.065729
1034.320410	0.067734
1034.488596	0.067613
1034.656764	0.066968
1034.824914	0.067303
1034.993045	0.068211
1035.161158	0.067708
1035.329253	0.068425
1035.497330	0.068891
1035.665388	0.066918
1035.833428	0.065171
1036.001450	0.066549
1036.169454	0.068411
1036.337440	0.067106
1036.505407	0.066487
1036.673356	0.066616
1036.841287	0.066395
1037.009200	0.065220
1037.177094	0.064152
1037.344970	0.065693
1037.512828	0.064539
1037.680668	0.063801
1037.848489	0.065573
1038.016293	0.065578
1038.184078	0.066451
1038.351845	0.068052
1038.519593	0.068941
1038.687324	0.069317
1038.855036	0.066936
1039.022730	0.066213
1039.190406	0.066072
1039.358063	0.065515
1039.525702	0.066268
1039.693323	0.065832
1039.860926	0.063329
1040.028511	0.062599
1040.196077	0.065347
1040.363625	0.067561
1040.531155	0.068361
1040.698667	0.067642
1040.866161	0.067259
1041.033636	0.066439
1041.201093	0.066552
1041.368532	0.069108
1041.535952	0.069074
1041.703355	0.068012
1041.870739	0.066996
1042.038105	0.066944
1042.205452	0.066726
1042.372782	0.067036
1042.540093	0.068033
1042.707386	0.067923
1042.874661	0.066441
1043.041918	0.066070
1043.209156	0.065541
1043.376376	0.066695
1043.543578	0.066903
1043.710762	0.066777
1043.877927	0.066962
1044.045074	0.064314
1044.212203	0.064491
1044.379314	0.066215
1044.546407	0.068197
1044.713481	0.068810
1044.880537	0.068690
1045.047575	0.070778
1045.214595	0.072408
1045.381596	0.071479
1045.548579	0.072050
1045.715544	0.072168
1045.882491	0.071237
1046.049420	0.070917
1046.216330	0.069867
1046.383222	0.069237
1046.550096	0.068100
1046.716951	0.066714
1046.883789	0.066927
1047.050608	0.067174
1047.217409	0.067679
1047.384192	0.067420
1047.550956	0.066039
1047.717703	0.066235
1047.884431	0.066594
1048.051140	0.064537
1048.217832	0.065629
1048.384505	0.067521
1048.551161	0.069046
1048.717798	0.067311
1048.884416	0.068626
1049.051017	0.070662
1049.217599	0.069171
1049.384163	0.068407
1049.550709	0.068627
1049.717237	0.069274
1049.883746	0.067211
1050.050237	0.068399
1050.216710	0.069513
1050.383165	0.067667
1050.549601	0.066680
1050.716019	0.069039
1050.882420	0.068851
1051.048801	0.070420
1051.215165	0.070061
1051.381510	0.069620
1051.547837	0.067372
1051.714146	0.066619
1051.880437	0.067726
1052.046709	0.068292
1052.212964	0.068401
1052.379200	0.069994
1052.545417	0.070844
1052.711617	0.069357
1052.877798	0.069472
1053.043961	0.070720
1053.210106	0.072000
1053.376233	0.070804
1053.542341	0.071557
1053.708432	0.070840
1053.874504	0.068094
1054.040557	0.067319
1054.206593	0.068214
1054.372610	0.069772
1054.538609	0.069288
1054.704590	0.068467
1054.870553	0.068711
1055.036497	0.067797
1055.202424	0.066940
1055.368331	0.066645
1055.534221	0.066280
1055.700093	0.064336
1055.865946	0.063322
1056.031781	0.064352
1056.197598	0.064323
1056.363397	0.065917
1056.529177	0.066305
1056.694939	0.066585
1056.860683	0.069628
1057.026409	0.069282
1057.192116	0.069721
1057.357806	0.070598
1057.523477	0.069704
1057.689130	0.070265
1057.854764	0.069481
1058.020381	0.068707
1058.185979	0.069587
1058.351559	0.068186
1058.517120	0.068122
1058.682664	0.068813
1058.848189	0.067635
1059.013696	0.067133
1059.179185	0.066634
1059.344656	0.065245
1059.510108	0.065293
1059.675542	0.065784
1059.840958	0.065820
1060.006356	0.066724
1060.171735	0.067126
1060.337096	0.067525
1060.502439	0.068021
1060.667764	0.068002
1060.833071	0.070274
1060.998359	0.070030
1061.163629	0.070688
1061.328881	0.069441
1061.494115	0.068167
1061.659330	0.068237
1061.824527	0.069850
1061.989706	0.069844
1062.154867	0.070683
1062.320010	0.068898
1062.485134	0.069372
1062.650240	0.066711
1062.815328	0.068591
1062.980398	0.069399
1063.145449	0.069981
1063.310482	0.068531
1063.475497	0.067741
1063.640494	0.067279
1063.805473	0.066966
1063.970433	0.067593
1064.135375	0.068438
1064.300299	0.067537
1064.465204	0.067629
1064.630092	0.066413
1064.794961	0.067011
1064.959812	0.067810
1065.124645	0.069102
1065.289459	0.072556
1065.454256	0.071858
1065.619034	0.072006
1065.783793	0.071528
1065.948535	0.070161
1066.113258	0.070751
1066.277964	0.069485
1066.442651	0.069924
1066.607319	0.068485
1066.771970	0.065912
1066.936602	0.065544
1067.101216	0.065938
1067.265812	0.066851
1067.430389	0.069219
1067.594949	0.068860
1067.759490	0.071040
1067.924013	0.068703
1068.088518	0.068595
1068.253004	0.068218
1068.417472	0.067167
1068.581922	0.067924
1068.746354	0.069105
1068.910768	0.069302
1069.075163	0.069834
1069.239540	0.067093
1069.403899	0.069441
1069.568240	0.070315
1069.732562	0.072336
1069.896866	0.072193
1070.061152	0.069686
1070.225420	0.068412
1070.389670	0.068102
1070.553901	0.068196
1070.718114	0.068721
1070.882309	0.067731
1071.046486	0.068038
1071.210644	0.066075
1071.374784	0.065746
1071.538906	0.066349
1071.703010	0.068835
1071.867096	0.068773
1072.031163	0.066176
1072.195212	0.066584
1072.359243	0.068911
1072.523256	0.068626
1072.687250	0.068616
1072.851226	0.069494
1073.015184	0.070969
1073.179124	0.067612
1073.343045	0.067014
1073.506949	0.069015
1073.670834	0.067016
1073.834701	0.064365
1073.998549	0.064884
1074.162380	0.066549
1074.326192	0.067240
1074.489986	0.066445
1074.653761	0.069023
1074.817519	0.068041
1074.981258	0.066893
1075.144979	0.069734
1075.308682	0.067921
1075.472367	0.067807
1075.636033	0.066271
1075.799681	0.065095
1075.963311	0.066000
1076.126923	0.063432
1076.290516	0.064996
1076.454092	0.067843
1076.617649	0.068336
1076.781187	0.071352
1076.944708	0.069816
1077.108210	0.071192
1077.271695	0.073051
1077.435160	0.073728
1077.598608	0.074631
1077.762038	0.072653
1077.925449	0.072719
1078.088842	0.071426
1078.252217	0.071766
1078.415573	0.073411
1078.578912	0.074157
1078.742232	0.073900
1078.905534	0.074119
1079.068817	0.073893
1079.232083	0.073821
1079.395330	0.073646
1079.558559	0.072086
1079.721770	0.070597
1079.884962	0.069315
1080.048136	0.068849
1080.211293	0.069146
1080.374430	0.068297
1080.537550	0.069778
1080.700651	0.072202
1080.863735	0.069128
1081.026800	0.071778
1081.189846	0.072586
1081.352875	0.074263
1081.515885	0.071972
1081.678877	0.072779
1081.841851	0.073948
1082.004807	0.074316
1082.167744	0.072762
1082.330663	0.075116
1082.493564	0.077495
1082.656447	0.077865
1082.819312	0.076191
1082.982158	0.077150
1083.144986	0.074984
1083.307796	0.073057
1083.470587	0.071262
1083.633361	0.073093
1083.796116	0.072067
1083.958853	0.068560
1084.121571	0.068030
1084.284272	0.068055
1084.446954	0.070104
1084.609618	0.072173
1084.772264	0.071228
1084.934892	0.070657
1085.097501	0.070199
1085.260092	0.070090
1085.422665	0.069752
1085.585220	0.070050
1085.747756	0.071709
1085.910274	0.070566
1086.072774	0.067388
1086.235256	0.067310
1086.397720	0.066879
1086.560165	0.068925
1086.722592	0.068606
1086.885001	0.066985
1087.047392	0.065527
1087.209764	0.062917
1087.372119	0.060699
1087.534455	0.063509
1087.696772	0.065410
1087.859072	0.068203
1088.021353	0.063859
1088.183616	0.062827
1088.345861	0.064952
1088.508088	0.065546
1088.670296	0.067252
1088.832486	0.070297
1088.994658	0.067971
1089.156812	0.068606
1089.318948	0.066726
1089.481065	0.069464
1089.643164	0.071941
1089.805245	0.070281
1089.967308	0.069765
1090.129352	0.068509
1090.291378	0.067315
1090.453386	0.068398
1090.615376	0.066987
1090.777347	0.068479
1090.939301	0.067257
1091.101236	0.065564
1091.263153	0.068130
1091.425051	0.068333
1091.586932	0.068961
1091.748794	0.069611
1091.910638	0.069106
1092.072463	0.067638
1092.234271	0.063867
1092.396060	0.063464
1092.557831	0.064312
1092.719584	0.064511
1092.881319	0.062958
1093.043035	0.062498
1093.204733	0.061598
1093.366413	0.062474
1093.528075	0.061502
1093.689718	0.064205
1093.851343	0.063984
1094.012950	0.062397
1094.174539	0.060526
1094.336110	0.063229
1094.497662	0.061871
1094.659196	0.060681
1094.820712	0.062002
1094.982210	0.065215
1095.143689	0.065230
1095.305151	0.067867
1095.466594	0.071509
1095.628018	0.071496
1095.789425	0.072848
1095.950813	0.073136
1096.112183	0.072421
1096.273535	0.073149
1096.434869	0.073005
1096.596184	0.071197
1096.757482	0.068560
1096.918761	0.069323
1097.080021	0.070725
1097.241264	0.071517
1097.402488	0.070128
1097.563694	0.070805
1097.724882	0.069645
1097.886052	0.068891
1098.047203	0.069527
1098.208336	0.070455
1098.369451	0.067501
1098.530548	0.066557
1098.691627	0.064281
1098.852687	0.066299
1099.013729	0.067820
1099.174753	0.067228
1099.335758	0.066102
1099.496746	0.066249
1099.657715	0.064893
1099.818666	0.061578
1099.979599	0.061098
1100.140513	0.058707
1100.301409	0.061582
1100.462287	0.061085
1100.623147	0.059180
1100.783989	0.064460
1100.944812	0.064463
1101.105617	0.065615
1101.266404	0.069164
1101.427173	0.070970
1101.587923	0.072266
1101.748656	0.068660
1101.909370	0.067546
1102.070066	0.067071
1102.230743	0.063533
1102.391403	0.064646
1102.552044	0.063649
1102.712667	0.062328
1102.873271	0.060643
1103.033858	0.060592
1103.194426	0.063840
1103.354976	0.064674
1103.515508	0.065061
1103.676021	0.065529
1103.836517	0.064238
1103.996994	0.066133
1104.157453	0.068912
1104.317893	0.067725
1104.478316	0.067311
1104.638720	0.067477
1104.799106	0.068105
1104.959474	0.066973
1105.119823	0.065601
1105.280155	0.067931
1105.440468	0.067141
1105.600763	0.067478
1105.761039	0.069041
1105.921298	0.071280
1106.081538	0.069814
1106.241760	0.070161
1106.401964	0.074384
1106.562149	0.073325
1106.722316	0.070253
1106.882465	0.066995
1107.042596	0.063539
1107.202709	0.063293
1107.362803	0.060989
1107.522879	0.060452
1107.682937	0.059728
1107.842977	0.055856
1108.002999	0.056076
1108.163002	0.061338
1108.322987	0.059214
1108.482954	0.060788
1108.642902	0.060624
1108.802833	0.061980
1108.962745	0.061251
1109.122639	0.063651
1109.282515	0.065140
1109.442372	0.065853
1109.602211	0.062480
1109.762032	0.066744
1109.921835	0.066648
1110.081620	0.065383
1110.241386	0.063677
1110.401134	0.065387
1110.560864	0.063388
1110.720576	0.065392
1110.880269	0.066889
1111.039945	0.066766
1111.199602	0.066416
1111.359240	0.066474
1111.518861	0.065119
1111.678463	0.066817
1111.838047	0.065699
1111.997613	0.062787
1112.157161	0.061514
1112.316690	0.054672
1112.476202	0.054403
1112.635695	0.051561
1112.795169	0.051293
1112.954626	0.051594
1113.114064	0.050931
1113.273484	0.051022
1113.432886	0.054547
1113.592270	0.050731
1113.751635	0.054902
1113.910983	0.053949
1114.070312	0.055753
1114.229622	0.052626
1114.388915	0.055565
1114.548189	0.057970
1114.707445	0.055494
1114.866683	0.051576
1115.025903	0.055498
1115.185104	0.057773
1115.344287	0.060343
1115.503452	0.065772
1115.662599	0.069011
1115.821727	0.071949
1115.980838	0.069427
1116.139930	0.072138
1116.299004	0.077540
1116.458059	0.076011
1116.617097	0.074046
1116.776116	0.072454
1116.935117	0.067789
1117.094099	0.066701
1117.253064	0.060899
1117.412010	0.059806
1117.570938	0.060691
1117.729848	0.059374
1117.888740	0.059783
1118.047613	0.058789
1118.206468	0.057881
1118.365305	0.060092
1118.524124	0.063417
1118.682924	0.068996
1118.841707	0.071788
1119.000471	0.069447
1119.159216	0.070382
1119.317944	0.069061
1119.476653	0.069164
1119.635344	0.073342
1119.794017	0.070159
1119.952672	0.065411
1120.111308	0.064731
1120.269927	0.067477
1120.428527	0.066115
1120.587108	0.064712
1120.745672	0.068726
1120.904217	0.070520
1121.062744	0.066512
1121.221253	0.069746
1121.379744	0.071971
1121.538216	0.071558
1121.696671	0.066336
1121.855107	0.068172
1122.013524	0.068547
1122.171924	0.067064
1122.330305	0.070810
1122.488668	0.072268
1122.647013	0.072813
1122.805340	0.068500
1122.963648	0.068113
1123.121938	0.073164
1123.280210	0.074165
1123.438464	0.075182
1123.596700	0.074843
1123.754917	0.075054
1123.913116	0.074102
1124.071297	0.070895
1124.229459	0.076742
1124.387604	0.080148
1124.545730	0.076621
1124.703838	0.076520
1124.861928	0.075472
1125.019999	0.074668
1125.178052	0.069327
1125.336088	0.067849
1125.494104	0.067299
1125.652103	0.066368
1125.810083	0.058008
1125.968045	0.060674
1126.125989	0.057002
1126.283915	0.056535
1126.441823	0.055542
1126.599712	0.056532
1126.757583	0.059642
1126.915436	0.060206
1127.073270	0.057682
1127.231087	0.062130
1127.388885	0.059414
1127.546665	0.064024
1127.704426	0.067795
1127.862170	0.064349
1128.019895	0.065915
1128.177602	0.062416
1128.335291	0.065569
1128.492961	0.064879
1128.650614	0.062619
1128.808248	0.064764
1128.965864	0.065137
1129.123461	0.059922
1129.281041	0.064210
1129.438602	0.063885
1129.596145	0.065701
1129.753670	0.064317
1129.911176	0.067605
1130.068665	0.067735
1130.226135	0.062702
1130.383587	0.065026
1130.541020	0.062961
1130.698436	0.068986
1130.855833	0.069692
1131.013212	0.063107
1131.170573	0.063999
1131.327915	0.063573
1131.485239	0.068034
1131.642545	0.071822
1131.799833	0.065715
1131.957103	0.069330
1132.114354	0.061042
1132.271588	0.055111
1132.428803	0.058448
1132.585999	0.060069
1132.743178	0.058468
1132.900338	0.054058
1133.057480	0.051174
1133.214604	0.051933
1133.371710	0.051675
1133.528797	0.057815
1133.685866	0.062966
1133.842917	0.067760
1133.999950	0.068679
1134.156964	0.067042
1134.313960	0.066188
1134.470938	0.067225
1134.627898	0.067012
1134.784840	0.064350
1134.941763	0.060922
1135.098668	0.059979
1135.255555	0.061489
1135.412424	0.055038
1135.569274	0.062576
1135.726107	0.062359
1135.882921	0.063192
1136.039716	0.067115
1136.196494	0.070398
1136.353253	0.069139
1136.509995	0.068234
1136.666717	0.064492
1136.823422	0.067873
1136.980109	0.059065
1137.136777	0.060242
1137.293427	0.057482
1137.450059	0.056310
1137.606672	0.051129
1137.763267	0.049978
1137.919844	0.049225
1138.076403	0.050431
1138.232944	0.047358
1138.389466	0.050296
1138.545971	0.052505
1138.702457	0.055003
1138.858924	0.050347
1139.015374	0.052561
1139.171805	0.056519
1139.328218	0.055720
1139.484613	0.054889
1139.640990	0.055212
1139.797348	0.055033
1139.953688	0.057607
1140.110010	0.056374
1140.266314	0.062181
1140.422600	0.061851
1140.578867	0.062895
1140.735116	0.064160
1140.891347	0.065410
1141.047559	0.065904
1141.203754	0.062624
1141.359930	0.057931
1141.516088	0.058047
1141.672228	0.057328
1141.828349	0.059886
1141.984452	0.052402
1142.140537	0.054924
1142.296604	0.054665
1142.452653	0.050266
1142.608683	0.055443
1142.764695	0.060039
1142.920689	0.062692
1143.076665	0.059116
1143.232622	0.053102
1143.388562	0.057738
1143.544483	0.054491
1143.700385	0.057823
1143.856270	0.063032
1144.012136	0.056782
1144.167985	0.050634
1144.323814	0.045940
1144.479626	0.047856
1144.635420	0.052754
1144.791195	0.055423
1144.946952	0.056347
1145.102691	0.056074
1145.258411	0.055625
1145.414113	0.057788
1145.569798	0.052909
1145.725463	0.054257
1145.881111	0.053291
1146.036741	0.047794
1146.192352	0.039958
1146.347945	0.040716
1146.503519	0.033450
1146.659076	0.033502
1146.814614	0.036285
1146.970134	0.043069
1147.125636	0.042669
1147.281120	0.042813
1147.436585	0.048314
1147.592032	0.054424
1147.747461	0.049556
1147.902872	0.055823
1148.058265	0.054823
1148.213639	0.056926
1148.368995	0.052168
1148.524333	0.053578
1148.679653	0.052681
1148.834954	0.051598
1148.990237	0.050350
1149.145502	0.051558
1149.300749	0.048399
1149.455977	0.053943
1149.611188	0.048254
1149.766380	0.046917
1149.921553	0.046382
1150.076709	0.045451
1150.231846	0.047963
1150.386966	0.051173
1150.542066	0.049357
1150.697149	0.050983
1150.852214	0.042968
1151.007260	0.050456
1151.162288	0.059632
1151.317298	0.059808
1151.472289	0.060791
1151.627263	0.054647
1151.782218	0.054127
1151.937155	0.063554
1152.092073	0.062855
1152.246974	0.065489
1152.401856	0.058992
1152.556720	0.051887
1152.711566	0.053735
1152.866393	0.058114
1153.021203	0.063509
1153.175994	0.062273
1153.330767	0.053697
1153.485521	0.057583
1153.640258	0.056444
1153.794976	0.055987
1153.949676	0.062477
1154.104358	0.062448
1154.259021	0.058381
1154.413667	0.058615
1154.568294	0.055850
1154.722903	0.054550
1154.877493	0.048254
1155.032066	0.043228
1155.186620	0.040744
1155.341156	0.038400
1155.495674	0.035918
1155.650173	0.036974
1155.804654	0.034604
1155.959118	0.035929
1156.113562	0.038802
1156.267989	0.041105
1156.422397	0.048144
1156.576788	0.055191
1156.731160	0.051100
1156.885513	0.056566
1157.039849	0.059269
1157.194166	0.061430
1157.348465	0.061665
1157.502746	0.064964
1157.657009	0.066786
1157.811253	0.063873
1157.965479	0.062115
1158.119687	0.064868
1158.273877	0.059035
1158.428048	0.050728
1158.582201	0.048781
1158.736337	0.045331
1158.890453	0.045228
1159.044552	0.040004
1159.198632	0.038634
1159.352694	0.037587
1159.506738	0.037954
1159.660764	0.029760
1159.814771	0.032599
1159.968761	0.033556
1160.122732	0.036893
1160.276685	0.036189
1160.430619	0.034193
1160.584535	0.033555
1160.738434	0.032228
1160.892313	0.031569
1161.046175	0.044871
1161.200019	0.050457
1161.353844	0.046477
1161.507651	0.046600
1161.661440	0.043788
1161.815210	0.051162
1161.968962	0.050144
1162.122697	0.055779
1162.276412	0.055455
1162.430110	0.053744
1162.583789	0.053182
1162.737451	0.056249
1162.891094	0.057672
1163.044718	0.056584
1163.198325	0.055937
1163.351913	0.067121
1163.505483	0.065575
1163.659035	0.061642
1163.812569	0.056067
1163.966084	0.048223
1164.119581	0.048176
1164.273060	0.042217
1164.426521	0.046845
1164.579964	0.047582
1164.733388	0.037172
1164.886794	0.034007
1165.040182	0.040458
1165.193551	0.043074
1165.346903	0.043728
1165.500236	0.043588
1165.653551	0.041483
1165.806848	0.036497
1165.960126	0.032085
1166.113386	0.040642
1166.266628	0.042925
1166.419852	0.038443
1166.573058	0.033037
1166.726245	0.035169
1166.879414	0.040187
1167.032565	0.045097
1167.185698	0.042927
1167.338812	0.038666
1167.491909	0.038554
1167.644987	0.034659
1167.798046	0.032023
1167.951088	0.034906
1168.104111	0.035663
1168.257117	0.025665
1168.410103	0.020808
1168.563072	0.034643
1168.716023	0.031706
1168.868955	0.029428
1169.021869	0.027260
1169.174765	0.031755
1169.327642	0.030968
1169.480501	0.027554
1169.633343	0.035745
1169.786165	0.044490
1169.938970	0.034587
1170.091757	0.035334
1170.244525	0.036513
1170.397275	0.037948
1170.550007	0.034380
1170.702720	0.039460
1170.855415	0.038838
1171.008092	0.033599
1171.160751	0.027137
1171.313392	0.025137
1171.466014	0.005251
1171.618619	0.022211
1171.771205	0.022211
1171.923772	0.022211
