sample name	sample
index	1370
start time	 05-03-2021  02:23:44 PM


Wavelength (nm)	Absorbance
494.344910	1.050994
494.563924	1.050994
494.782919	1.050994
495.001897	NaN
495.220856	0.390720
495.439797	0.653016
495.658719	0.354039
495.877624	0.182168
496.096510	0.098513
496.315378	0.055566
496.534227	0.183364
496.753059	0.118590
496.971872	0.216992
497.190667	0.100058
497.409444	0.092694
497.628203	0.092144
497.846943	0.093852
498.065665	0.091821
498.284369	0.090048
498.503055	0.089861
498.721723	0.089048
498.940372	0.089041
499.159003	0.088726
499.377616	0.088631
499.596210	0.087170
499.814787	0.085962
500.033345	0.086260
500.251885	0.087098
500.470406	0.086674
500.688910	0.087752
500.907395	0.086878
501.125862	0.087693
501.344311	0.085580
501.562742	0.087155
501.781154	0.087670
501.999548	0.087891
502.217924	0.086712
502.436282	0.086623
502.654621	0.086850
502.872942	0.086748
503.091245	0.086313
503.309530	0.087757
503.527797	0.087293
503.746045	0.086287
503.964275	0.085508
504.182487	0.086766
504.400681	0.086772
504.618856	0.086549
504.837013	0.087075
505.055152	0.086745
505.273273	0.087356
505.491376	0.087156
505.709460	0.087959
505.927526	0.088849
506.145574	0.088899
506.363604	0.088929
506.581615	0.088376
506.799608	0.087398
507.017583	0.087162
507.235540	0.085797
507.453478	0.085175
507.671399	0.085552
507.889301	0.085689
508.107185	0.085483
508.325050	0.085081
508.542898	0.085388
508.760727	0.086107
508.978538	0.085886
509.196330	0.086929
509.414105	0.087679
509.631861	0.087081
509.849599	0.086636
510.067319	0.086465
510.285021	0.086823
510.502704	0.086373
510.720369	0.086697
510.938016	0.087124
511.155645	0.086979
511.373255	0.087406
511.590848	0.088184
511.808422	0.088636
512.025977	0.088476
512.243515	0.088223
512.461034	0.088466
512.678536	0.088673
512.896018	0.089258
513.113483	0.089401
513.330930	0.089091
513.548358	0.088282
513.765768	0.087753
513.983160	0.088065
514.200533	0.088635
514.417889	0.088834
514.635226	0.088113
514.852545	0.088154
515.069845	0.087602
515.287128	0.087815
515.504392	0.088240
515.721638	0.088981
515.938866	0.089747
516.156075	0.090112
516.373267	0.091011
516.590440	0.092017
516.807594	0.092362
517.024731	0.092611
517.241850	0.092984
517.458950	0.093467
517.676032	0.092862
517.893095	0.092426
518.110141	0.092224
518.327168	0.091418
518.544177	0.090580
518.761168	0.090079
518.978141	0.090567
519.195095	0.090317
519.412031	0.089836
519.628949	0.090621
519.845849	0.090223
520.062731	0.090178
520.279594	0.090465
520.496439	0.090857
520.713266	0.091026
520.930074	0.091118
521.146865	0.091327
521.363637	0.091691
521.580391	0.091026
521.797127	0.091502
522.013844	0.091580
522.230543	0.091978
522.447224	0.092342
522.663887	0.092596
522.880532	0.092714
523.097158	0.092613
523.313766	0.092798
523.530356	0.093590
523.746928	0.093966
523.963481	0.094533
524.180017	0.094804
524.396534	0.094628
524.613032	0.093972
524.829513	0.094327
525.045975	0.093796
525.262420	0.093311
525.478845	0.093389
525.695253	0.093190
525.911643	0.092399
526.128014	0.091968
526.344367	0.092447
526.560702	0.093381
526.777018	0.092908
526.993316	0.093732
527.209597	0.094378
527.425858	0.094701
527.642102	0.095010
527.858328	0.095644
528.074535	0.095965
528.290724	0.096450
528.506894	0.095982
528.723047	0.096062
528.939181	0.096210
529.155297	0.095979
529.371395	0.095974
529.587475	0.095857
529.803536	0.096180
530.019579	0.096085
530.235604	0.095971
530.451611	0.096800
530.667600	0.097487
530.883570	0.098395
531.099522	0.098991
531.315456	0.099050
531.531372	0.099750
531.747269	0.099691
531.963148	0.100092
532.179009	0.100196
532.394852	0.100208
532.610676	0.099939
532.826482	0.099496
533.042271	0.100080
533.258040	0.100278
533.473792	0.099983
533.689525	0.100202
533.905240	0.100508
534.120937	0.100460
534.336616	0.100121
534.552277	0.100538
534.767919	0.100675
534.983543	0.100657
535.199149	0.100641
535.414736	0.100939
535.630306	0.101156
535.845857	0.101271
536.061390	0.101786
536.276904	0.102616
536.492401	0.102826
536.707879	0.103746
536.923339	0.103319
537.138781	0.103568
537.354204	0.103752
537.569610	0.104411
537.784997	0.105299
538.000366	0.105167
538.215716	0.105047
538.431049	0.105647
538.646363	0.104941
538.861659	0.105842
539.076937	0.106027
539.292196	0.106325
539.507438	0.105810
539.722661	0.105205
539.937866	0.105373
540.153052	0.105964
540.368221	0.105470
540.583371	0.105686
540.798503	0.105365
541.013617	0.105863
541.228712	0.105821
541.443789	0.106209
541.658848	0.106505
541.873889	0.106895
542.088912	0.106679
542.303916	0.106585
542.518902	0.106975
542.733870	0.107206
542.948820	0.107087
543.163752	0.107501
543.378665	0.106840
543.593560	0.106003
543.808437	0.105749
544.023295	0.105781
544.238136	0.105993
544.452958	0.105774
544.667762	0.105868
544.882548	0.106047
545.097315	0.105610
545.312064	0.106051
545.526795	0.107409
545.741508	0.107747
545.956203	0.107501
546.170879	0.107554
546.385537	0.107554
546.600177	0.107636
546.814799	0.107276
547.029402	0.107323
547.243988	0.108347
547.458555	0.107851
547.673103	0.107730
547.887634	0.108358
548.102146	0.108894
548.316640	0.109224
548.531116	0.108977
548.745574	0.109138
548.960013	0.109518
549.174435	0.109075
549.388838	0.109254
549.603222	0.109336
549.817589	0.109224
550.031937	0.109078
550.246267	0.108935
550.460579	0.109477
550.674873	0.109907
550.889148	0.110448
551.103405	0.110420
551.317644	0.110496
551.531865	0.110708
551.746068	0.110716
551.960252	0.111208
552.174418	0.111471
552.388566	0.111647
552.602696	0.111638
552.816807	0.111262
553.030900	0.111714
553.244975	0.111869
553.459032	0.111987
553.673070	0.112469
553.887091	0.112376
554.101093	0.112457
554.315077	0.112458
554.529042	0.112909
554.742990	0.113102
554.956919	0.112575
555.170830	0.112458
555.384722	0.112556
555.598597	0.112272
555.812453	0.112439
556.026291	0.112801
556.240111	0.113091
556.453913	0.112944
556.667696	0.112895
556.881461	0.113687
557.095208	0.114092
557.308937	0.114239
557.522647	0.114475
557.736339	0.114859
557.950013	0.114607
558.163669	0.114221
558.377307	0.114195
558.590926	0.114693
558.804527	0.114508
559.018110	0.114392
559.231675	0.114280
559.445221	0.114170
559.658749	0.113918
559.872259	0.114056
560.085751	0.114096
560.299225	0.114094
560.512680	0.114104
560.726117	0.114197
560.939536	0.114563
561.152937	0.114619
561.366319	0.114873
561.579683	0.114923
561.793029	0.115121
562.006357	0.115328
562.219667	0.115449
562.432958	0.115244
562.646231	0.114901
562.859486	0.115012
563.072723	0.115131
563.285941	0.115130
563.499141	0.115055
563.712323	0.114852
563.925487	0.115143
564.138632	0.115367
564.351760	0.115331
564.564869	0.115454
564.777960	0.115270
564.991032	0.115320
565.204087	0.115412
565.417123	0.115226
565.630141	0.115204
565.843140	0.115255
566.056122	0.115152
566.269085	0.115217
566.482030	0.115327
566.694957	0.115180
566.907866	0.115107
567.120756	0.114837
567.333628	0.115196
567.546482	0.115338
567.759318	0.115064
567.972135	0.115411
568.184935	0.115379
568.397716	0.115633
568.610478	0.115610
568.823223	0.115571
569.035949	0.115580
569.248657	0.115541
569.461347	0.115523
569.674019	0.115311
569.886672	0.114991
570.099308	0.114972
570.311925	0.115001
570.524523	0.115311
570.737104	0.115634
570.949666	0.115664
571.162210	0.115766
571.374736	0.116010
571.587244	0.116116
571.799733	0.115863
572.012205	0.115921
572.224658	0.115656
572.437092	0.115666
572.649509	0.115751
572.861907	0.115989
573.074287	0.115994
573.286649	0.115872
573.498993	0.116519
573.711318	0.116680
573.923625	0.117166
574.135914	0.117403
574.348185	0.117387
574.560438	0.117600
574.772672	0.117646
574.984888	0.117567
575.197086	0.117701
575.409266	0.117671
575.621427	0.117938
575.833570	0.117728
576.045695	0.117812
576.257802	0.118014
576.469890	0.117713
576.681961	0.117717
576.894013	0.117762
577.106046	0.117745
577.318062	0.117702
577.530059	0.117802
577.742039	0.117723
577.954000	0.117749
578.165942	0.117604
578.377867	0.117515
578.589773	0.117582
578.801661	0.117556
579.013531	0.117730
579.225382	0.117422
579.437216	0.117704
579.649031	0.118048
579.860828	0.117911
580.072606	0.118010
580.284367	0.118475
580.496109	0.118553
580.707833	0.118468
580.919539	0.118621
581.131227	0.119010
581.342896	0.118871
581.554547	0.118708
581.766180	0.119032
581.977795	0.119072
582.189391	0.118997
582.400969	0.119024
582.612529	0.119319
582.824071	0.119010
583.035595	0.118549
583.247100	0.118118
583.458587	0.118562
583.670056	0.118683
583.881506	0.118681
584.092939	0.118609
584.304353	0.118607
584.515749	0.118809
584.727127	0.119201
584.938486	0.119564
585.149828	0.119901
585.361151	0.119483
585.572456	0.119258
585.783742	0.119082
585.995011	0.119036
586.206261	0.119205
586.417493	0.119115
586.628706	0.119233
586.839902	0.119640
587.051079	0.119564
587.262238	0.119668
587.473379	0.119687
587.684502	0.120130
587.895606	0.120326
588.106692	0.120467
588.317760	0.120666
588.528810	0.120636
588.739841	0.120607
588.950855	0.121156
589.161850	0.121264
589.372827	0.122025
589.583785	0.122159
589.794726	0.122474
590.005648	0.122595
590.216552	0.122770
590.427437	0.122817
590.638305	0.122698
590.849154	0.122560
591.059985	0.122562
591.270798	0.122274
591.481592	0.122160
591.692369	0.121908
591.903127	0.121915
592.113867	0.121532
592.324588	0.121588
592.535292	0.121636
592.745977	0.121761
592.956644	0.122006
593.167293	0.122007
593.377923	0.122015
593.588536	0.122214
593.799130	0.122430
594.009706	0.122962
594.220263	0.122837
594.430803	0.122978
594.641324	0.122715
594.851827	0.122593
595.062312	0.122945
595.272778	0.123203
595.483227	0.123480
595.693657	0.123288
595.904069	0.122941
596.114462	0.123153
596.324838	0.123253
596.535195	0.123637
596.745534	0.124012
596.955855	0.124063
597.166157	0.124125
597.376441	0.124237
597.586707	0.124506
597.796955	0.125149
598.007185	0.125102
598.217396	0.124974
598.427589	0.124900
598.637764	0.124855
598.847921	0.124707
599.058060	0.124744
599.268180	0.124477
599.478282	0.124594
599.688366	0.124509
599.898431	0.125043
600.108479	0.125573
600.318508	0.125585
600.528519	0.125355
600.738511	0.125507
600.948486	0.125574
601.158442	0.125777
601.368380	0.125516
601.578300	0.125517
601.788202	0.125432
601.998085	0.125374
602.207950	0.125820
602.417797	0.126069
602.627626	0.126000
602.837436	0.126159
603.047228	0.126344
603.257002	0.126405
603.466758	0.126489
603.676496	0.126516
603.886215	0.126352
604.095916	0.126217
604.305599	0.126472
604.515264	0.126773
604.724910	0.126549
604.934538	0.126499
605.144148	0.127022
605.353740	0.127228
605.563314	0.127166
605.772869	0.127717
605.982406	0.127757
606.191925	0.127702
606.401425	0.127722
606.610908	0.127875
606.820372	0.127647
607.029818	0.127390
607.239246	0.127485
607.448655	0.127503
607.658047	0.127056
607.867420	0.127025
608.076775	0.127121
608.286111	0.126868
608.495430	0.127106
608.704730	0.127456
608.914012	0.127481
609.123275	0.127569
609.332521	0.127700
609.541748	0.127926
609.750957	0.128106
609.960148	0.128319
610.169321	0.128507
610.378475	0.128599
610.587611	0.128433
610.796729	0.128553
611.005829	0.128451
611.214910	0.128480
611.423974	0.128748
611.633019	0.128659
611.842045	0.128574
612.051054	0.128776
612.260044	0.128790
612.469017	0.129042
612.677970	0.129377
612.886906	0.129232
613.095824	0.129537
613.304723	0.129575
613.513604	0.129780
613.722467	0.129967
613.931311	0.129940
614.140138	0.129975
614.348946	0.130068
614.557736	0.129925
614.766507	0.129971
614.975261	0.130002
615.183996	0.129900
615.392713	0.129931
615.601412	0.129706
615.810092	0.129841
616.018754	0.129934
616.227399	0.129974
616.436024	0.129871
616.644632	0.129919
616.853222	0.129712
617.061793	0.129488
617.270346	0.129597
617.478880	0.129585
617.687397	0.129367
617.895895	0.129558
618.104375	0.129576
618.312837	0.129374
618.521281	0.129505
618.729706	0.129661
618.938113	0.130035
619.146502	0.130201
619.354873	0.130338
619.563226	0.130575
619.771560	0.130420
619.979876	0.130563
620.188174	0.131107
620.396453	0.131422
620.604715	0.131436
620.812958	0.131567
621.021183	0.131585
621.229390	0.131757
621.437578	0.131920
621.645748	0.131829
621.853900	0.131850
622.062034	0.132050
622.270150	0.132258
622.478247	0.132625
622.686326	0.132387
622.894387	0.132392
623.102430	0.132369
623.310454	0.132426
623.518461	0.132709
623.726449	0.132755
623.934418	0.132519
624.142370	0.132140
624.350303	0.131868
624.558218	0.132207
624.766115	0.132344
624.973994	0.132604
625.181855	0.132695
625.389697	0.132766
625.597521	0.132809
625.805327	0.132999
626.013114	0.133236
626.220883	0.133602
626.428634	0.133648
626.636367	0.133822
626.844082	0.133605
627.051778	0.133586
627.259457	0.133760
627.467117	0.133992
627.674758	0.134025
627.882382	0.134214
628.089987	0.134434
628.297574	0.134453
628.505143	0.134640
628.712694	0.134925
628.920226	0.134715
629.127740	0.134850
629.335236	0.134611
629.542714	0.134785
629.750174	0.134928
629.957615	0.134872
630.165038	0.135076
630.372443	0.134744
630.579829	0.135042
630.787198	0.135625
630.994548	0.135539
631.201880	0.135966
631.409194	0.136046
631.616489	0.136184
631.823766	0.136173
632.031025	0.136386
632.238266	0.136454
632.445489	0.136216
632.652693	0.136150
632.859879	0.136016
633.067047	0.135948
633.274197	0.135863
633.481329	0.135552
633.688442	0.135230
633.895537	0.134961
634.102614	0.135183
634.309672	0.135187
634.516713	0.135148
634.723735	0.135452
634.930739	0.135452
635.137724	0.135616
635.344692	0.135671
635.551641	0.136127
635.758572	0.136322
635.965485	0.136213
636.172379	0.136392
636.379256	0.136551
636.586114	0.136394
636.792954	0.136358
636.999775	0.136431
637.206579	0.136530
637.413364	0.136540
637.620131	0.136257
637.826880	0.136493
638.033610	0.136577
638.240323	0.136401
638.447017	0.136730
638.653692	0.136978
638.860350	0.136882
639.066990	0.137186
639.273611	0.137169
639.480214	0.137609
639.686798	0.137522
639.893365	0.137630
640.099913	0.137644
640.306443	0.137826
640.512955	0.138020
640.719449	0.138027
640.925924	0.137859
641.132381	0.137919
641.338820	0.137868
641.545241	0.138281
641.751644	0.138360
641.958028	0.138624
642.164394	0.138445
642.370742	0.138497
642.577071	0.138789
642.783383	0.138788
642.989676	0.138992
643.195951	0.139099
643.402207	0.138931
643.608446	0.138798
643.814666	0.138686
644.020868	0.138721
644.227052	0.138835
644.433218	0.139097
644.639365	0.139319
644.845494	0.139420
645.051605	0.139352
645.257698	0.139573
645.463772	0.139672
645.669828	0.140032
645.875866	0.139989
646.081886	0.139809
646.287888	0.139355
646.493871	0.139177
646.699836	0.139285
646.905783	0.139541
647.111712	0.139369
647.317622	0.139482
647.523514	0.139520
647.729388	0.139793
647.935244	0.140030
648.141082	0.140489
648.346901	0.140806
648.552702	0.140662
648.758485	0.140547
648.964250	0.140764
649.169996	0.140847
649.375724	0.141085
649.581434	0.141197
649.787126	0.141156
649.992800	0.141145
650.198455	0.141087
650.404092	0.141262
650.609711	0.141624
650.815311	0.141954
651.020894	0.142102
651.226458	0.141979
651.432004	0.142204
651.637532	0.142345
651.843041	0.142526
652.048532	0.142768
652.254006	0.142768
652.459460	0.142705
652.664897	0.142661
652.870315	0.142858
653.075716	0.143076
653.281097	0.143222
653.486461	0.143400
653.691807	0.143626
653.897134	0.143849
654.102443	0.144293
654.307734	0.144398
654.513006	0.144395
654.718261	0.144344
654.923497	0.144274
655.128715	0.144088
655.333915	0.144204
655.539096	0.144282
655.744259	0.144372
655.949404	0.144291
656.154531	0.144559
656.359640	0.144802
656.564730	0.144916
656.769802	0.145118
656.974856	0.145354
657.179892	0.145282
657.384909	0.145093
657.589908	0.144959
657.794889	0.144904
657.999852	0.144684
658.204797	0.144509
658.409723	0.144487
658.614631	0.144515
658.819521	0.144312
659.024393	0.144298
659.229246	0.144300
659.434081	0.144287
659.638898	0.144307
659.843697	0.144439
660.048478	0.144361
660.253240	0.144410
660.457984	0.144410
660.662710	0.144482
660.867417	0.144674
661.072107	0.144795
661.276778	0.144813
661.481431	0.144861
661.686066	0.144979
661.890682	0.145027
662.095281	0.145024
662.299861	0.144960
662.504422	0.145100
662.708966	0.145042
662.913491	0.145100
663.117999	0.145351
663.322488	0.145550
663.526958	0.145556
663.731411	0.145693
663.935845	0.145646
664.140261	0.145958
664.344659	0.146082
664.549038	0.146094
664.753400	0.146229
664.957743	0.146298
665.162068	0.146575
665.366375	0.146782
665.570663	0.147054
665.774933	0.147528
665.979185	0.147540
666.183419	0.147469
666.387635	0.147645
666.591832	0.147878
666.796011	0.148026
667.000172	0.147876
667.204315	0.147941
667.408439	0.148026
667.612545	0.148080
667.816634	0.148280
668.020703	0.148615
668.224755	0.148732
668.428788	0.148593
668.632803	0.148670
668.836800	0.148819
669.040779	0.148856
669.244739	0.148825
669.448681	0.148893
669.652605	0.148838
669.856511	0.149047
670.060399	0.149121
670.264268	0.149251
670.468119	0.149374
670.671952	0.149466
670.875767	0.149353
671.079563	0.149541
671.283341	0.149753
671.487101	0.149783
671.690843	0.149869
671.894567	0.150114
672.098272	0.150331
672.301959	0.150377
672.505628	0.150358
672.709278	0.150398
672.912911	0.150341
673.116525	0.150338
673.320121	0.150366
673.523699	0.150245
673.727258	0.150326
673.930799	0.150296
674.134322	0.150415
674.337827	0.150556
674.541314	0.150972
674.744782	0.151173
674.948232	0.151391
675.151664	0.151766
675.355078	0.152004
675.558474	0.152012
675.761851	0.152199
675.965210	0.152256
676.168551	0.152453
676.371873	0.152371
676.575178	0.152461
676.778464	0.152308
676.981732	0.151975
677.184981	0.151939
677.388213	0.151862
677.591426	0.152007
677.794621	0.152142
677.997798	0.151898
678.200956	0.152020
678.404097	0.152080
678.607219	0.152012
678.810323	0.152363
679.013408	0.152447
679.216476	0.152796
679.419525	0.153046
679.622556	0.153226
679.825569	0.153520
680.028563	0.153786
680.231540	0.154272
680.434498	0.154720
680.637438	0.154878
680.840359	0.155000
681.043263	0.155279
681.246148	0.155194
681.449015	0.155233
681.651864	0.155268
681.854694	0.155248
682.057506	0.155126
682.260301	0.155159
682.463076	0.155055
682.665834	0.155068
682.868573	0.155102
683.071295	0.155348
683.273998	0.155490
683.476682	0.155841
683.679349	0.156279
683.881997	0.156335
684.084627	0.156630
684.287239	0.156915
684.489833	0.157165
684.692408	0.157083
684.894965	0.156893
685.097504	0.156930
685.300025	0.156856
685.502527	0.156838
685.705012	0.156747
685.907478	0.156692
686.109925	0.156758
686.312355	0.156987
686.514766	0.157160
686.717159	0.157442
686.919534	0.157373
687.121891	0.157249
687.324230	0.157162
687.526550	0.157220
687.728852	0.157063
687.931136	0.157116
688.133401	0.156931
688.335649	0.156913
688.537878	0.156713
688.740089	0.156762
688.942281	0.157067
689.144456	0.156954
689.346612	0.157196
689.548750	0.157263
689.750870	0.157362
689.952971	0.157353
690.155055	0.157301
690.357120	0.157676
690.559167	0.157864
690.761195	0.158158
690.963206	0.158463
691.165198	0.158461
691.367172	0.158779
691.569128	0.158975
691.771065	0.159350
691.972984	0.159644
692.174885	0.159604
692.376768	0.159828
692.578633	0.159765
692.780479	0.159796
692.982308	0.159775
693.184118	0.159772
693.385909	0.159809
693.587683	0.159800
693.789438	0.159839
693.991175	0.159984
694.192894	0.160023
694.394595	0.159934
694.596277	0.159794
694.797941	0.159947
694.999587	0.160022
695.201215	0.160026
695.402824	0.159981
695.604416	0.159985
695.805989	0.160173
696.007543	0.160274
696.209080	0.160418
696.410598	0.160729
696.612099	0.160987
696.813580	0.161168
697.015044	0.161196
697.216490	0.161421
697.417917	0.161601
697.619326	0.161453
697.820717	0.161299
698.022089	0.161238
698.223444	0.161388
698.424780	0.161178
698.626098	0.161154
698.827397	0.161282
699.028679	0.161415
699.229942	0.161446
699.431187	0.161627
699.632414	0.161886
699.833622	0.162074
700.034813	0.162132
700.235985	0.162128
700.437139	0.162360
700.638274	0.162489
700.839392	0.162577
701.040491	0.162562
701.241572	0.162704
701.442635	0.162672
701.643679	0.162821
701.844706	0.162573
702.045714	0.162940
702.246704	0.162802
702.447675	0.162752
702.648629	0.162641
702.849564	0.162627
703.050481	0.162350
703.251380	0.162291
703.452260	0.162214
703.653122	0.162372
703.853966	0.162219
704.054792	0.162098
704.255600	0.162038
704.456389	0.161861
704.657160	0.161791
704.857913	0.161833
705.058648	0.161874
705.259365	0.161773
705.460063	0.161687
705.660743	0.161544
705.861405	0.161553
706.062048	0.161647
706.262674	0.161746
706.463281	0.161874
706.663870	0.162112
706.864441	0.162125
707.064993	0.162006
707.265527	0.162024
707.466043	0.162119
707.666541	0.162140
707.867021	0.162006
708.067482	0.161710
708.267925	0.161790
708.468350	0.161614
708.668757	0.161530
708.869145	0.161819
709.069516	0.161826
709.269868	0.161886
709.470201	0.161876
709.670517	0.162066
709.870814	0.162393
710.071093	0.162287
710.271354	0.162259
710.471597	0.162242
710.671821	0.162280
710.872028	0.162390
711.072216	0.162535
711.272385	0.162539
711.472537	0.162507
711.672670	0.162535
711.872785	0.162674
712.072882	0.162813
712.272961	0.162857
712.473021	0.162844
712.673063	0.162669
712.873087	0.162579
713.073093	0.162581
713.273081	0.162257
713.473050	0.162142
713.673001	0.161847
713.872934	0.161765
714.072849	0.161757
714.272745	0.161779
714.472623	0.161867
714.672483	0.161983
714.872325	0.162051
715.072148	0.162263
715.271954	0.162103
715.471741	0.162170
715.671509	0.162101
715.871260	0.162018
716.070992	0.161804
716.270707	0.161786
716.470403	0.161840
716.670080	0.161704
716.869740	0.161540
717.069381	0.161945
717.269004	0.161851
717.468609	0.161773
717.668195	0.161773
717.867764	0.161730
718.067314	0.161661
718.266846	0.161409
718.466360	0.161411
718.665855	0.161414
718.865332	0.161072
719.064791	0.161017
719.264232	0.160915
719.463655	0.160967
719.663059	0.160913
719.862445	0.160804
720.061813	0.160511
720.261163	0.160409
720.460494	0.160143
720.659807	0.160050
720.859102	0.159939
721.058379	0.159772
721.257638	0.159512
721.456878	0.159622
721.656100	0.159528
721.855304	0.159454
722.054490	0.159309
722.253657	0.159426
722.452806	0.159573
722.651937	0.159748
722.851050	0.159701
723.050145	0.159742
723.249221	0.159478
723.448279	0.159522
723.647319	0.159659
723.846340	0.159639
724.045344	0.159621
724.244329	0.159291
724.443296	0.158961
724.642245	0.159098
724.841175	0.158936
725.040088	0.158764
725.238982	0.158575
725.437857	0.158286
725.636715	0.158212
725.835554	0.158174
726.034376	0.158155
726.233179	0.158325
726.431963	0.158187
726.630730	0.158124
726.829478	0.158152
727.028208	0.158218
727.226920	0.158333
727.425614	0.158272
727.624289	0.157948
727.822946	0.157987
728.021585	0.157894
728.220206	0.157571
728.418808	0.157529
728.617392	0.157624
728.815958	0.157424
729.014506	0.157392
729.213036	0.157534
729.411547	0.157828
729.610040	0.157594
729.808515	0.157447
730.006972	0.157716
730.205410	0.157673
730.403831	0.157571
730.602233	0.157704
730.800616	0.157536
730.998982	0.157265
731.197329	0.157066
731.395658	0.156988
731.593969	0.156803
731.792262	0.156898
731.990536	0.156965
732.188793	0.156795
732.387031	0.156801
732.585250	0.156990
732.783452	0.157091
732.981635	0.157080
733.179800	0.157407
733.377947	0.157477
733.576076	0.157237
733.774186	0.157021
733.972278	0.157055
734.170352	0.156894
734.368408	0.156741
734.566446	0.156581
734.764465	0.156442
734.962466	0.156271
735.160449	0.156294
735.358413	0.156126
735.556360	0.156331
735.754288	0.156196
735.952198	0.156047
736.150090	0.156003
736.347963	0.156036
736.545818	0.156171
736.743655	0.156198
736.941474	0.156051
737.139275	0.156321
737.337057	0.155886
737.534821	0.155846
737.732567	0.156061
737.930295	0.155946
738.128005	0.156005
738.325696	0.156011
738.523369	0.155904
738.721024	0.155935
738.918660	0.155783
739.116279	0.156013
739.313879	0.156074
739.511461	0.155866
739.709024	0.155885
739.906570	0.155862
740.104097	0.155774
740.301606	0.155725
740.499097	0.155772
740.696569	0.155676
740.894024	0.155718
741.091460	0.155652
741.288878	0.155781
741.486277	0.155703
741.683659	0.155540
741.881022	0.155539
742.078367	0.155326
742.275694	0.155169
742.473002	0.155156
742.670293	0.155201
742.867565	0.155324
743.064819	0.155030
743.262054	0.155017
743.459272	0.155061
743.656471	0.155070
743.853652	0.155420
744.050815	0.155327
744.247959	0.155238
744.445085	0.155193
744.642194	0.154882
744.839283	0.154921
745.036355	0.154923
745.233408	0.154630
745.430444	0.154380
745.627461	0.154130
745.824459	0.154002
746.021440	0.153876
746.218402	0.153535
746.415346	0.153508
746.612272	0.153413
746.809180	0.153326
747.006069	0.153448
747.202940	0.153312
747.399793	0.152892
747.596628	0.152789
747.793444	0.152666
747.990243	0.152537
748.187023	0.152520
748.383784	0.152479
748.580528	0.152380
748.777253	0.152121
748.973960	0.151961
749.170649	0.152180
749.367320	0.152410
749.563973	0.152373
749.760607	0.152338
749.957223	0.152262
750.153821	0.152376
750.350400	0.152277
750.546962	0.152291
750.743505	0.152205
750.940030	0.152032
751.136536	0.152017
751.333025	0.152121
751.529495	0.152232
751.725947	0.152239
751.922381	0.151973
752.118796	0.151880
752.315194	0.151987
752.511573	0.151951
752.707934	0.151971
752.904276	0.151880
753.100601	0.151671
753.296907	0.151352
753.493195	0.151042
753.689465	0.150908
753.885716	0.150856
754.081949	0.150782
754.278164	0.150929
754.474361	0.150810
754.670540	0.150555
754.866700	0.150319
755.062843	0.150201
755.258967	0.150100
755.455072	0.149883
755.651160	0.149863
755.847229	0.149718
756.043280	0.149393
756.239313	0.149212
756.435328	0.149102
756.631324	0.149065
756.827302	0.149232
757.023262	0.149284
757.219204	0.149264
757.415127	0.149126
757.611033	0.149013
757.806920	0.149145
758.002788	0.149081
758.198639	0.149131
758.394471	0.149242
758.590286	0.149165
758.786081	0.149118
758.981859	0.149103
759.177619	0.149019
759.373360	0.148763
759.569083	0.148457
759.764788	0.148544
759.960474	0.148366
760.156143	0.148152
760.351793	0.148208
760.547425	0.148010
760.743038	0.147879
760.938634	0.147891
761.134211	0.147938
761.329770	0.148009
761.525311	0.147852
761.720833	0.147973
761.916338	0.148067
762.111824	0.147954
762.307292	0.148116
762.502741	0.148262
762.698173	0.148095
762.893586	0.147933
763.088981	0.147818
763.284358	0.147752
763.479716	0.147522
763.675057	0.147259
763.870379	0.146991
764.065683	0.146749
764.260968	0.146320
764.456236	0.146201
764.651485	0.146041
764.846716	0.146080
765.041929	0.145985
765.237123	0.145680
765.432299	0.145716
765.627457	0.145533
765.822597	0.145600
766.017719	0.145794
766.212822	0.145750
766.407907	0.145699
766.602974	0.145421
766.798023	0.145291
766.993054	0.145371
767.188066	0.145286
767.383060	0.145299
767.578036	0.145160
767.772993	0.145069
767.967933	0.145068
768.162854	0.145188
768.357757	0.145322
768.552642	0.145198
768.747508	0.145000
768.942356	0.144872
769.137186	0.144787
769.331998	0.144811
769.526792	0.144765
769.721567	0.144786
769.916324	0.144433
770.111063	0.144253
770.305784	0.144414
770.500486	0.144666
770.695171	0.144577
770.889837	0.144762
771.084484	0.144662
771.279114	0.144723
771.473725	0.144264
771.668318	0.144389
771.862893	0.144259
772.057450	0.144106
772.251988	0.143937
772.446509	0.144039
772.641011	0.143728
772.835494	0.143746
773.029960	0.143564
773.224407	0.143747
773.418836	0.143576
773.613247	0.143458
773.807640	0.143389
774.002014	0.143399
774.196370	0.143345
774.390708	0.143484
774.585028	0.143445
774.779330	0.143202
774.973613	0.143199
775.167878	0.143627
775.362125	0.143792
775.556354	0.144010
775.750564	0.143753
775.944756	0.143762
776.138930	0.143629
776.333086	0.143770
776.527223	0.144082
776.721343	0.144211
776.915444	0.144142
777.109526	0.144498
777.303591	0.144296
777.497637	0.144495
777.691666	0.144284
777.885676	0.144251
778.079667	0.144229
778.273641	0.144178
778.467596	0.144246
778.661533	0.144238
778.855452	0.144184
779.049352	0.144450
779.243235	0.144854
779.437099	0.145385
779.630945	0.145662
779.824773	0.145819
780.018582	0.146177
780.212373	0.146219
780.406146	0.146473
780.599901	0.146373
780.793638	0.146425
780.987356	0.146352
781.181056	0.146269
781.374738	0.146253
781.568402	0.146026
781.762047	0.145817
781.955674	0.145745
782.149283	0.145471
782.342874	0.145596
782.536447	0.145176
782.730001	0.145130
782.923537	0.144908
783.117055	0.144813
783.310555	0.144776
783.504036	0.144626
783.697499	0.144598
783.890944	0.144306
784.084371	0.144080
784.277780	0.144390
784.471170	0.144305
784.664542	0.144309
784.857896	0.144325
785.051231	0.144204
785.244549	0.144241
785.437848	0.144213
785.631129	0.144254
785.824392	0.144184
786.017636	0.144040
786.210863	0.143893
786.404071	0.143770
786.597260	0.143669
786.790432	0.143733
786.983585	0.143928
787.176721	0.143807
787.369838	0.144047
787.562936	0.144118
787.756017	0.144105
787.949079	0.144159
788.142123	0.144167
788.335149	0.144461
788.528156	0.144497
788.721146	0.144224
788.914117	0.144310
789.107070	0.144325
789.300005	0.144355
789.492921	0.144507
789.685819	0.144647
789.878699	0.144879
790.071561	0.144800
790.264405	0.144799
790.457230	0.145178
790.650037	0.145361
790.842826	0.145542
791.035597	0.145974
791.228349	0.146021
791.421084	0.145942
791.613800	0.146157
791.806497	0.146294
791.999177	0.146599
792.191838	0.146521
792.384481	0.146663
792.577106	0.146676
792.769713	0.146599
792.962301	0.146650
793.154871	0.147176
793.347423	0.147139
793.539957	0.147310
793.732473	0.147230
793.924970	0.147445
794.117449	0.147271
794.309910	0.147528
794.502353	0.147598
794.694777	0.147768
794.887183	0.147419
795.079571	0.147385
795.271941	0.147505
795.464293	0.147564
795.656626	0.147636
795.848941	0.147862
796.041238	0.147729
796.233516	0.147813
796.425777	0.147851
796.618019	0.148155
796.810243	0.148468
797.002449	0.148540
797.194636	0.148749
797.386805	0.148883
797.578956	0.149108
797.771089	0.149317
797.963204	0.149545
798.155300	0.149819
798.347378	0.150048
798.539438	0.150050
798.731480	0.150229
798.923503	0.150316
799.115509	0.150332
799.307496	0.150504
799.499465	0.150574
799.691415	0.150445
799.883348	0.150268
800.075262	0.150262
800.267158	0.150338
800.459035	0.150098
800.650895	0.149999
800.842736	0.150102
801.034559	0.149975
801.226364	0.149905
801.418150	0.149939
801.609919	0.150023
801.801669	0.150040
801.993401	0.149960
802.185114	0.150255
802.376810	0.150503
802.568487	0.150617
802.760146	0.150818
802.951787	0.151081
803.143409	0.151470
803.335014	0.151508
803.526600	0.151532
803.718168	0.151943
803.909717	0.152175
804.101249	0.152360
804.292762	0.152436
804.484257	0.152581
804.675734	0.152435
804.867192	0.152501
805.058632	0.152787
805.250054	0.153085
805.441458	0.153284
805.632844	0.153176
805.824211	0.153417
806.015561	0.153339
806.206891	0.153456
806.398204	0.153725
806.589499	0.153666
806.780775	0.153835
806.972033	0.153919
807.163273	0.153882
807.354495	0.154001
807.545698	0.154056
807.736883	0.154354
807.928050	0.154337
808.119199	0.154721
808.310329	0.154928
808.501441	0.154990
808.692535	0.155058
808.883611	0.155254
809.074669	0.155410
809.265708	0.155497
809.456729	0.155625
809.647732	0.155922
809.838717	0.155937
810.029683	0.156169
810.220632	0.156492
810.411562	0.156585
810.602474	0.156660
810.793367	0.156863
810.984242	0.156903
811.175100	0.156995
811.365938	0.157123
811.556759	0.157242
811.747562	0.157195
811.938346	0.157066
812.129112	0.157285
812.319860	0.157260
812.510589	0.157337
812.701300	0.157368
812.891994	0.157744
813.082668	0.157831
813.273325	0.158037
813.463964	0.158329
813.654584	0.158678
813.845186	0.158869
814.035769	0.159044
814.226335	0.159169
814.416882	0.159515
814.607411	0.159648
814.797922	0.159670
814.988415	0.159595
815.178889	0.159666
815.369345	0.159459
815.559783	0.159307
815.750203	0.159374
815.940605	0.159542
816.130988	0.159219
816.321353	0.159071
816.511700	0.159305
816.702028	0.159544
816.892339	0.159726
817.082631	0.159963
817.272905	0.160402
817.463161	0.160525
817.653398	0.160536
817.843617	0.161154
818.033819	0.161386
818.224001	0.161293
818.414166	0.161391
818.604312	0.161253
818.794440	0.161420
818.984550	0.161388
819.174642	0.161809
819.364716	0.162290
819.554771	0.162431
819.744808	0.162277
819.934827	0.162534
820.124827	0.162889
820.314810	0.163245
820.504774	0.163465
820.694720	0.163683
820.884647	0.163692
821.074557	0.163583
821.264448	0.163719
821.454321	0.164059
821.644176	0.164285
821.834012	0.164143
822.023831	0.164201
822.213631	0.164570
822.403413	0.164351
822.593176	0.164738
822.782922	0.165209
822.972649	0.165320
823.162358	0.165850
823.352049	0.166301
823.541721	0.166820
823.731376	0.167337
823.921012	0.167476
824.110629	0.168367
824.300229	0.168603
824.489811	0.168994
824.679374	0.169282
824.868919	0.169342
825.058445	0.169444
825.247954	0.169664
825.437444	0.169721
825.626916	0.170056
825.816370	0.169809
826.005806	0.169908
826.195223	0.169961
826.384622	0.170162
826.574003	0.170456
826.763366	0.170711
826.952711	0.170761
827.142037	0.170859
827.331345	0.171107
827.520635	0.171366
827.709906	0.171485
827.899160	0.171351
828.088395	0.171558
828.277612	0.171581
828.466810	0.171505
828.655991	0.171750
828.845153	0.171720
829.034297	0.171355
829.223423	0.171115
829.412531	0.171374
829.601620	0.171451
829.790691	0.171347
829.979744	0.171448
830.168779	0.171510
830.357795	0.171238
830.546793	0.171313
830.735773	0.171721
830.924735	0.172380
831.113679	0.172090
831.302604	0.172145
831.491511	0.172359
831.680400	0.172480
831.869271	0.172822
832.058123	0.173503
832.246957	0.173942
832.435773	0.173901
832.624571	0.173958
832.813351	0.174311
833.002112	0.174744
833.190855	0.174970
833.379580	0.174872
833.568287	0.175104
833.756975	0.174801
833.945645	0.174992
834.134297	0.175452
834.322931	0.175636
834.511547	0.175749
834.700144	0.175834
834.888723	0.175872
835.077284	0.176437
835.265826	0.176565
835.454351	0.176970
835.642857	0.177213
835.831345	0.177308
836.019815	0.177357
836.208266	0.177431
836.396699	0.177695
836.585114	0.178150
836.773511	0.178316
836.961890	0.178780
837.150250	0.179270
837.338592	0.179871
837.526916	0.180368
837.715222	0.181040
837.903510	0.181586
838.091779	0.182118
838.280030	0.182504
838.468263	0.182918
838.656477	0.183215
838.844674	0.183634
839.032852	0.183937
839.221012	0.184118
839.409153	0.184533
839.597277	0.184980
839.785382	0.185143
839.973469	0.185447
840.161538	0.185804
840.349589	0.185869
840.537621	0.185839
840.725635	0.186150
840.913631	0.186329
841.101609	0.186187
841.289568	0.186533
841.477509	0.186728
841.665432	0.186878
841.853337	0.187309
842.041224	0.187587
842.229092	0.188093
842.416942	0.188050
842.604774	0.188408
842.792588	0.188886
842.980383	0.189208
843.168160	0.189459
843.355919	0.189849
843.543660	0.189955
843.731382	0.190134
843.919087	0.190223
844.106773	0.190752
844.294441	0.190970
844.482090	0.191297
844.669722	0.191529
844.857335	0.191809
845.044930	0.191867
845.232507	0.191883
845.420065	0.192162
845.607605	0.192386
845.795127	0.192091
845.982631	0.192116
846.170117	0.192570
846.357584	0.192663
846.545033	0.192848
846.732464	0.193355
846.919877	0.193968
847.107272	0.194521
847.294648	0.195225
847.482006	0.195758
847.669346	0.196154
847.856667	0.196178
848.043971	0.196306
848.231256	0.197068
848.418523	0.196878
848.605771	0.196581
848.793002	0.196626
848.980214	0.196417
849.167408	0.196492
849.354584	0.196788
849.541742	0.196859
849.728881	0.197293
849.916002	0.197038
850.103105	0.197116
850.290190	0.197439
850.477256	0.197530
850.664304	0.197668
850.851334	0.197730
851.038346	0.198002
851.225340	0.197772
851.412315	0.197607
851.599272	0.197721
851.786211	0.198008
851.973132	0.198146
852.160034	0.198251
852.346918	0.198396
852.533784	0.198519
852.720632	0.198280
852.907462	0.198670
853.094273	0.199086
853.281066	0.199230
853.467841	0.199525
853.654598	0.199801
853.841336	0.200114
854.028056	0.200467
854.214758	0.200802
854.401442	0.201512
854.588107	0.201936
854.774755	0.202081
854.961384	0.202144
855.147995	0.202455
855.334587	0.202840
855.521162	0.203078
855.707718	0.203152
855.894256	0.203432
856.080775	0.203519
856.267277	0.203887
856.453760	0.204139
856.640225	0.204552
856.826672	0.204719
857.013101	0.204865
857.199511	0.205068
857.385903	0.205422
857.572277	0.205320
857.758633	0.205385
857.944970	0.205698
858.131290	0.205987
858.317591	0.206177
858.503873	0.206341
858.690138	0.206377
858.876384	0.206723
859.062612	0.206721
859.248822	0.207100
859.435014	0.207678
859.621188	0.207845
859.807343	0.208152
859.993480	0.208839
860.179599	0.209410
860.365699	0.209865
860.551781	0.210256
860.737846	0.210719
860.923891	0.211336
861.109919	0.211734
861.295929	0.212307
861.481920	0.212338
861.667893	0.212551
861.853848	0.212907
862.039784	0.213166
862.225702	0.212855
862.411603	0.213022
862.597484	0.213082
862.783348	0.213122
862.969193	0.212716
863.155021	0.213005
863.340830	0.213035
863.526620	0.213015
863.712393	0.212949
863.898147	0.213516
864.083883	0.213825
864.269601	0.214076
864.455301	0.214050
864.640982	0.214058
864.826645	0.214326
865.012290	0.214419
865.197917	0.214616
865.383526	0.215020
865.569116	0.215075
865.754688	0.214924
865.940242	0.214964
866.125777	0.215540
866.311295	0.215861
866.496794	0.216100
866.682275	0.216171
866.867737	0.216306
867.053182	0.216129
867.238608	0.216497
867.424016	0.216640
867.609406	0.216685
867.794778	0.216275
867.980131	0.216802
868.165466	0.216884
868.350783	0.217005
868.536082	0.217171
868.721362	0.217705
868.906625	0.217832
869.091869	0.218008
869.277094	0.218214
869.462302	0.218428
869.647491	0.218040
869.832662	0.218426
870.017815	0.218820
870.202950	0.219246
870.388066	0.219060
870.573165	0.219350
870.758245	0.219346
870.943306	0.219586
871.128350	0.219836
871.313375	0.220071
871.498382	0.220127
871.683371	0.220269
871.868342	0.220099
872.053294	0.220312
872.238229	0.220389
872.423144	0.220801
872.608042	0.221063
872.792922	0.221082
872.977783	0.221720
873.162626	0.221753
873.347451	0.221643
873.532258	0.221821
873.717046	0.221960
873.901816	0.222004
874.086568	0.222425
874.271302	0.222490
874.456017	0.222690
874.640715	0.222581
874.825394	0.222517
875.010055	0.222758
875.194697	0.223036
875.379322	0.223634
875.563928	0.223685
875.748516	0.223884
875.933085	0.224039
876.117637	0.224208
876.302170	0.224325
876.486685	0.224753
876.671182	0.224764
876.855661	0.224644
877.040121	0.224550
877.224563	0.224793
877.408987	0.224892
877.593393	0.225018
877.777780	0.224965
877.962150	0.225003
878.146501	0.225040
878.330833	0.224801
878.515148	0.224965
878.699444	0.225076
878.883722	0.225325
879.067982	0.225164
879.252224	0.225322
879.436447	0.225590
879.620653	0.225607
879.804840	0.225580
879.989008	0.225929
880.173159	0.225592
880.357291	0.225282
880.541405	0.225398
880.725501	0.225286
880.909579	0.225100
881.093638	0.224935
881.277680	0.225193
881.461703	0.225166
881.645707	0.225208
881.829694	0.225666
882.013662	0.226093
882.197612	0.225789
882.381544	0.225979
882.565458	0.226230
882.749353	0.226518
882.933230	0.226618
883.117089	0.226402
883.300930	0.226651
883.484753	0.226755
883.668557	0.226673
883.852343	0.226388
884.036111	0.226112
884.219861	0.225822
884.403592	0.225849
884.587305	0.225710
884.771000	0.226040
884.954677	0.225762
885.138335	0.225428
885.321976	0.225750
885.505598	0.226146
885.689201	0.226637
885.872787	0.226797
886.056354	0.226778
886.239904	0.227068
886.423434	0.227201
886.606947	0.227577
886.790442	0.227758
886.973918	0.227727
887.157376	0.227727
887.340816	0.227926
887.524237	0.228024
887.707641	0.228241
887.891026	0.227817
888.074393	0.227136
888.257741	0.226917
888.441072	0.227061
888.624384	0.226771
888.807678	0.226659
888.990954	0.226246
889.174211	0.226060
889.357451	0.225818
889.540672	0.226102
889.723875	0.226507
889.907059	0.226769
890.090226	0.226676
890.273374	0.226790
890.456504	0.226701
890.639616	0.226692
890.822709	0.227193
891.005785	0.226765
891.188842	0.226288
891.371881	0.226120
891.554901	0.225685
891.737904	0.225646
891.920888	0.225575
892.103854	0.225270
892.286802	0.225233
892.469731	0.224829
892.652643	0.225276
892.835536	0.225317
893.018410	0.225568
893.201267	0.225611
893.384106	0.225760
893.566926	0.225490
893.749728	0.225879
893.932511	0.225933
894.115277	0.226026
894.298024	0.226019
894.480753	0.226270
894.663464	0.226213
894.846157	0.226582
895.028831	0.226507
895.211487	0.226519
895.394125	0.226195
895.576745	0.226059
895.759346	0.225770
895.941930	0.225412
896.124495	0.225127
896.307041	0.225030
896.489570	0.224486
896.672080	0.224339
896.854573	0.224637
897.037046	0.224828
897.219502	0.224859
897.401940	0.224719
897.584359	0.224782
897.766760	0.224688
897.949143	0.224074
898.131507	0.224196
898.313854	0.223883
898.496182	0.223712
898.678492	0.223388
898.860783	0.222994
899.043057	0.222965
899.225312	0.222936
899.407549	0.222565
899.589768	0.222437
899.771968	0.221925
899.954151	0.221325
900.136315	0.220723
900.318461	0.220524
900.500588	0.220557
900.682698	0.219664
900.864789	0.219530
901.046862	0.219459
901.228917	0.219498
901.410953	0.219495
901.592971	0.219954
901.774972	0.219885
901.956953	0.219575
902.138917	0.219378
902.320862	0.219659
902.502790	0.218998
902.684699	0.218743
902.866589	0.218698
903.048462	0.218681
903.230316	0.218247
903.412152	0.218032
903.593970	0.217955
903.775770	0.217312
903.957551	0.216752
904.139314	0.216440
904.321059	0.216099
904.502786	0.215880
904.684494	0.215616
904.866185	0.215463
905.047857	0.215775
905.229510	0.215664
905.411146	0.215631
905.592763	0.216191
905.774363	0.216495
905.955943	0.216780
906.137506	0.216667
906.319051	0.216500
906.500577	0.216802
906.682085	0.216213
906.863575	0.216468
907.045046	0.216269
907.226500	0.215916
907.407935	0.215730
907.589352	0.215382
907.770750	0.215195
907.952131	0.214960
908.133493	0.214188
908.314837	0.214100
908.496163	0.213337
908.677470	0.213474
908.858760	0.213927
909.040031	0.213830
909.221284	0.214066
909.402518	0.213864
909.583735	0.213917
909.764933	0.213807
909.946113	0.213661
910.127275	0.214003
910.308418	0.213324
910.489544	0.212702
910.670651	0.212740
910.851740	0.212262
911.032810	0.211959
911.213863	0.211145
911.394897	0.211026
911.575913	0.210486
911.756911	0.209971
911.937890	0.210131
912.118851	0.209692
912.299794	0.208669
912.480719	0.208017
912.661626	0.207739
912.842514	0.208003
913.023384	0.207385
913.204236	0.206993
913.385070	0.206376
913.565886	0.205609
913.746683	0.205104
913.927462	0.204852
914.108223	0.204525
914.288965	0.203923
914.469690	0.202928
914.650396	0.202880
914.831084	0.202592
915.011754	0.202289
915.192405	0.202098
915.373038	0.201626
915.553653	0.201653
915.734250	0.201365
915.914829	0.201122
916.095389	0.200721
916.275931	0.200141
916.456455	0.199175
916.636961	0.198314
916.817448	0.197823
916.997917	0.197375
917.178368	0.196441
917.358801	0.195955
917.539216	0.195766
917.719612	0.195727
917.899990	0.195198
918.080350	0.195064
918.260692	0.194930
918.441015	0.194783
918.621320	0.194120
918.801607	0.193625
918.981876	0.193520
919.162127	0.193167
919.342359	0.192812
919.522573	0.192450
919.702769	0.192240
919.882947	0.191679
920.063106	0.190993
920.243247	0.190722
920.423370	0.190197
920.603475	0.189637
920.783562	0.189108
920.963630	0.188741
921.143680	0.188798
921.323712	0.188439
921.503725	0.188735
921.683721	0.189100
921.863698	0.188822
922.043657	0.188695
922.223598	0.188095
922.403520	0.188000
922.583424	0.187018
922.763311	0.186342
922.943178	0.185884
923.123028	0.185032
923.302859	0.183808
923.482673	0.183222
923.662467	0.182986
923.842244	0.182619
924.022003	0.182040
924.201743	0.181880
924.381465	0.181004
924.561169	0.180681
924.740854	0.179878
924.920522	0.179615
925.100171	0.179178
925.279802	0.178884
925.459414	0.178667
925.639009	0.177871
925.818585	0.176939
925.998143	0.176532
926.177683	0.176414
926.357205	0.175938
926.536708	0.175262
926.716193	0.174241
926.895660	0.173420
927.075109	0.172735
927.254539	0.172135
927.433951	0.172197
927.613345	0.171462
927.792721	0.170092
927.972079	0.169800
928.151418	0.169704
928.330739	0.170159
928.510042	0.169982
928.689327	0.169525
928.868593	0.169098
929.047841	0.168413
929.227071	0.168068
929.406283	0.167937
929.585476	0.167387
929.764652	0.166120
929.943809	0.165025
930.122948	0.164128
930.302068	0.163192
930.481171	0.162925
930.660255	0.162235
930.839321	0.161465
931.018369	0.160187
931.197398	0.160059
931.376409	0.159169
931.555402	0.158747
931.734377	0.157879
931.913334	0.157272
932.092272	0.156428
932.271192	0.155643
932.450094	0.155693
932.628978	0.155850
932.807844	0.154541
932.986691	0.154479
933.165520	0.154121
933.344331	0.153759
933.523123	0.153722
933.701898	0.153598
933.880654	0.153858
934.059392	0.153063
934.238111	0.153326
934.416813	0.152272
934.595496	0.151361
934.774161	0.151464
934.952808	0.151386
935.131437	0.151192
935.310047	0.149984
935.488639	0.148831
935.667213	0.148396
935.845769	0.146857
936.024306	0.146530
936.202825	0.147005
936.381326	0.145492
936.559809	0.144401
936.738274	0.143561
936.916720	0.142737
937.095148	0.142234
937.273558	0.140945
937.451950	0.140893
937.630323	0.140580
937.808678	0.139564
937.987015	0.138345
938.165334	0.136956
938.343635	0.136311
938.521917	0.135307
938.700181	0.134896
938.878427	0.135299
939.056655	0.134581
939.234864	0.133816
939.413055	0.133823
939.591228	0.133665
939.769383	0.133999
939.947519	0.132480
940.125638	0.132801
940.303738	0.131535
940.481820	0.129835
940.659883	0.127895
940.837929	0.128000
941.015956	0.126641
941.193965	0.126370
941.371955	0.125633
941.549928	0.124885
941.727882	0.123392
941.905818	0.122319
942.083736	0.122115
942.261636	0.122534
942.439517	0.121238
942.617380	0.120428
942.795225	0.120550
942.973052	0.120103
943.150860	0.119199
943.328651	0.119420
943.506423	0.119366
943.684176	0.119217
943.861912	0.117665
944.039629	0.118156
944.217328	0.117322
944.395009	0.115940
944.572672	0.115621
944.750317	0.115196
944.927943	0.113384
945.105551	0.112382
945.283141	0.110832
945.460712	0.110242
945.638265	0.108920
945.815801	0.108728
945.993317	0.107822
946.170816	0.105766
946.348297	0.105590
946.525759	0.106526
946.703203	0.106687
946.880629	0.106494
947.058036	0.107568
947.235425	0.106721
947.412797	0.105402
947.590149	0.104046
947.767484	0.104334
947.944800	0.103960
948.122099	0.101444
948.299379	0.100584
948.476640	0.099595
948.653884	0.098008
948.831109	0.095864
949.008316	0.095780
949.185505	0.095197
949.362676	0.094978
949.539828	0.095082
949.716962	0.096808
949.894078	0.096844
950.071176	0.097221
950.248256	0.096126
950.425317	0.097697
950.602360	0.097699
950.779385	0.097622
950.956391	0.096903
951.133380	0.096651
951.310350	0.094542
951.487302	0.094468
951.664235	0.092050
951.841151	0.092368
952.018048	0.091292
952.194927	0.090530
952.371788	0.091005
952.548631	0.089668
952.725455	0.088221
952.902261	0.088006
953.079049	0.087877
953.255819	0.089806
953.432570	0.088463
953.609303	0.088674
953.786018	0.088398
953.962715	0.089019
954.139394	0.087464
954.316054	0.086836
954.492696	0.087293
954.669320	0.086251
954.845926	0.086081
955.022513	0.087897
955.199083	0.088842
955.375634	0.087936
955.552166	0.086361
955.728681	0.088014
955.905177	0.087754
956.081655	0.086487
956.258115	0.084478
956.434557	0.084214
956.610980	0.083549
956.787385	0.081246
956.963772	0.081514
957.140141	0.081953
957.316492	0.083041
957.492824	0.083894
957.669138	0.083464
957.845434	0.085079
958.021712	0.082356
958.197971	0.080730
958.374212	0.080839
958.550435	0.079430
958.726640	0.080520
958.902826	0.079160
959.078995	0.078914
959.255145	0.081187
959.431277	0.083000
959.607390	0.084938
959.783486	0.086209
959.959563	0.088201
960.135622	0.087435
960.311662	0.086136
960.487685	0.086694
960.663689	0.085414
960.839675	0.082853
961.015643	0.077613
961.191593	0.077917
961.367524	0.077428
961.543437	0.077244
961.719332	0.077865
961.895209	0.076733
962.071067	0.077592
962.246907	0.078288
962.422730	0.078955
962.598533	0.082076
962.774319	0.081666
962.950086	0.082844
963.125835	0.083495
963.301566	0.084919
963.477279	0.087627
963.652973	0.086526
963.828650	0.084211
964.004308	0.085474
964.179947	0.084366
964.355569	0.083164
964.531172	0.082381
964.706757	0.080909
964.882324	0.080915
965.057873	0.079465
965.233403	0.079530
965.408916	0.080836
965.584410	0.081049
965.759885	0.082837
965.935343	0.082781
966.110782	0.081940
966.286203	0.081611
966.461606	0.080813
966.636991	0.080231
966.812357	0.079589
966.987705	0.080611
967.163035	0.079698
967.338347	0.078622
967.513641	0.077639
967.688916	0.076848
967.864173	0.075777
968.039412	0.075827
968.214632	0.078302
968.389835	0.078055
968.565019	0.075903
968.740185	0.077100
968.915333	0.075572
969.090462	0.076778
969.265573	0.076003
969.440667	0.079628
969.615741	0.081119
969.790798	0.078782
969.965836	0.080859
970.140856	0.081112
970.315858	0.078844
970.490842	0.080371
970.665808	0.081323
970.840755	0.082358
971.015684	0.079534
971.190595	0.077494
971.365487	0.078786
971.540362	0.075651
971.715218	0.077861
971.890056	0.079162
972.064875	0.080531
972.239677	0.079749
972.414460	0.079685
972.589225	0.081577
972.763972	0.083166
972.938700	0.080543
973.113411	0.081987
973.288103	0.080159
973.462777	0.080864
973.637432	0.080845
973.812070	0.080982
973.986689	0.081740
974.161290	0.080807
974.335873	0.080232
974.510437	0.083835
974.684984	0.082178
974.859512	0.084580
975.034022	0.084367
975.208513	0.082556
975.382987	0.084055
975.557442	0.084076
975.731879	0.083335
975.906298	0.083760
976.080698	0.083662
976.255080	0.084438
976.429445	0.083573
976.603790	0.083268
976.778118	0.086438
976.952427	0.081498
977.126719	0.081695
977.300992	0.079727
977.475246	0.078416
977.649483	0.076244
977.823701	0.076996
977.997901	0.075028
978.172083	0.077323
978.346247	0.075442
978.520392	0.079905
978.694519	0.078776
978.868628	0.080780
979.042719	0.082793
979.216791	0.082865
979.390845	0.082222
979.564882	0.082825
979.738899	0.080263
979.912899	0.079980
980.086880	0.077865
980.260843	0.078550
980.434788	0.078871
980.608715	0.078710
980.782623	0.076836
980.956514	0.078036
981.130386	0.080438
981.304240	0.079363
981.478075	0.077378
981.651892	0.078760
981.825692	0.077903
981.999472	0.077611
982.173235	0.079397
982.346980	0.082357
982.520706	0.081564
982.694414	0.078872
982.868104	0.078078
983.041775	0.078612
983.215428	0.079696
983.389064	0.079235
983.562680	0.078869
983.736279	0.075836
983.909860	0.075555
984.083422	0.075356
984.256966	0.075978
984.430491	0.078202
984.603999	0.075885
984.777488	0.075943
984.950959	0.077004
985.124412	0.076591
985.297847	0.076600
985.471263	0.077093
985.644661	0.077319
985.818041	0.077411
985.991403	0.078748
986.164747	0.081756
986.338072	0.079710
986.511379	0.080984
986.684668	0.082550
986.857938	0.081036
987.031191	0.080816
987.204425	0.081898
987.377641	0.082195
987.550839	0.081823
987.724018	0.081195
987.897179	0.081482
988.070322	0.079338
988.243447	0.077638
988.416554	0.079913
988.589642	0.077446
988.762712	0.077991
988.935764	0.077370
989.108798	0.074907
989.281813	0.077032
989.454811	0.075454
989.627790	0.077898
989.800751	0.078925
989.973693	0.079404
990.146617	0.081155
990.319524	0.080184
990.492412	0.080041
990.665281	0.080842
990.838133	0.079269
991.010966	0.080336
991.183781	0.078636
991.356578	0.078499
991.529356	0.076768
991.702117	0.077457
991.874859	0.076950
992.047583	0.077355
992.220288	0.078163
992.392976	0.078774
992.565645	0.079465
992.738296	0.080494
992.910929	0.080385
993.083543	0.082953
993.256139	0.081862
993.428718	0.084252
993.601277	0.085316
993.773819	0.084530
993.946342	0.083221
994.118848	0.083106
994.291335	0.081344
994.463803	0.080410
994.636254	0.078650
994.808686	0.077638
994.981100	0.076967
995.153496	0.077744
995.325874	0.078521
995.498233	0.078741
995.670574	0.078265
995.842897	0.078789
996.015202	0.080279
996.187488	0.078643
996.359757	0.081054
996.532007	0.079021
996.704239	0.075786
996.876452	0.074713
997.048648	0.075678
997.220825	0.076693
997.392984	0.076599
997.565124	0.076196
997.737247	0.077279
997.909351	0.075788
998.081437	0.077792
998.253505	0.078678
998.425554	0.078088
998.597586	0.076918
998.769599	0.076708
998.941594	0.076596
999.113571	0.076409
999.285529	0.075591
999.457469	0.075080
999.629391	0.074331
999.801295	0.073740
999.973181	0.073922
1000.145048	0.074814
1000.316897	0.074211
1000.488728	0.073634
1000.660541	0.074045
1000.832335	0.076044
1001.004111	0.074792
1001.175869	0.073938
1001.347609	0.075528
1001.519331	0.076763
1001.691034	0.075490
1001.862719	0.077229
1002.034386	0.078316
1002.206035	0.075459
1002.377665	0.073948
1002.549277	0.075431
1002.720871	0.074673
1002.892447	0.074428
1003.064004	0.073795
1003.235544	0.074845
1003.407065	0.075345
1003.578568	0.075741
1003.750052	0.077862
1003.921519	0.077357
1004.092967	0.077237
1004.264397	0.077603
1004.435809	0.076902
1004.607202	0.076282
1004.778577	0.073500
1004.949934	0.072031
1005.121273	0.071360
1005.292594	0.071373
1005.463896	0.072181
1005.635180	0.071963
1005.806446	0.071070
1005.977694	0.072172
1006.148923	0.074114
1006.320135	0.075811
1006.491328	0.075427
1006.662503	0.074294
1006.833659	0.073690
1007.004798	0.073059
1007.175918	0.071749
1007.347020	0.074194
1007.518103	0.072457
1007.689169	0.070524
1007.860216	0.072241
1008.031245	0.071690
1008.202256	0.073742
1008.373248	0.074730
1008.544223	0.075431
1008.715179	0.076476
1008.886117	0.074280
1009.057036	0.075085
1009.227938	0.076349
1009.398821	0.076440
1009.569686	0.075512
1009.740533	0.072865
1009.911361	0.071173
1010.082172	0.072044
1010.252964	0.071907
1010.423738	0.074028
1010.594493	0.073672
1010.765231	0.072795
1010.935950	0.071847
1011.106651	0.072743
1011.277334	0.071825
1011.447998	0.072929
1011.618645	0.072279
1011.789273	0.071739
1011.959882	0.070230
1012.130474	0.071065
1012.301048	0.072211
1012.471603	0.071768
1012.642140	0.070598
1012.812658	0.073526
1012.983159	0.072430
1013.153641	0.072251
1013.324105	0.073284
1013.494551	0.074526
1013.664979	0.074847
1013.835388	0.074606
1014.005779	0.074976
1014.176152	0.076784
1014.346507	0.076605
1014.516843	0.078601
1014.687162	0.078528
1014.857462	0.079577
1015.027744	0.077217
1015.198007	0.075240
1015.368252	0.073915
1015.538480	0.073590
1015.708689	0.073857
1015.878879	0.075023
1016.049052	0.074726
1016.219206	0.075488
1016.389342	0.073425
1016.559460	0.076677
1016.729559	0.077170
1016.899641	0.075276
1017.069704	0.076432
1017.239749	0.076128
1017.409775	0.074082
1017.579784	0.073059
1017.749774	0.073724
1017.919746	0.075248
1018.089700	0.074494
1018.259635	0.076361
1018.429553	0.079231
1018.599452	0.078850
1018.769333	0.078719
1018.939195	0.079974
1019.109040	0.080990
1019.278866	0.078803
1019.448674	0.078809
1019.618464	0.078468
1019.788235	0.078645
1019.957989	0.078986
1020.127724	0.077751
1020.297441	0.077664
1020.467139	0.075468
1020.636820	0.074918
1020.806482	0.076911
1020.976126	0.076071
1021.145752	0.075055
1021.315359	0.073859
1021.484948	0.075141
1021.654519	0.074927
1021.824072	0.075669
1021.993607	0.077644
1022.163123	0.077542
1022.332621	0.077928
1022.502101	0.078028
1022.671563	0.078766
1022.841007	0.079780
1023.010432	0.078745
1023.179839	0.079106
1023.349228	0.078897
1023.518598	0.079292
1023.687951	0.079884
1023.857285	0.077758
1024.026601	0.076697
1024.195899	0.076165
1024.365178	0.074867
1024.534439	0.074138
1024.703682	0.073915
1024.872907	0.073768
1025.042114	0.073504
1025.211302	0.073205
1025.380472	0.073833
1025.549624	0.074789
1025.718758	0.074071
1025.887873	0.073445
1026.056970	0.072110
1026.226049	0.072803
1026.395110	0.072320
1026.564153	0.070702
1026.733177	0.070807
1026.902183	0.071642
1027.071171	0.071661
1027.240141	0.074437
1027.409092	0.075987
1027.578026	0.077755
1027.746940	0.078517
1027.915837	0.077260
1028.084716	0.077942
1028.253576	0.078693
1028.422418	0.076737
1028.591242	0.076165
1028.760048	0.075845
1028.928835	0.074878
1029.097604	0.074067
1029.266355	0.072567
1029.435088	0.074232
1029.603803	0.074987
1029.772499	0.075223
1029.941177	0.075842
1030.109837	0.076161
1030.278478	0.074266
1030.447102	0.074763
1030.615707	0.074684
1030.784294	0.073534
1030.952863	0.072175
1031.121413	0.070662
1031.289945	0.070408
1031.458460	0.071498
1031.626955	0.071078
1031.795433	0.072278
1031.963892	0.072254
1032.132334	0.071983
1032.300756	0.074748
1032.469161	0.075539
1032.637548	0.076716
1032.805916	0.075693
1032.974266	0.073708
1033.142598	0.073965
1033.310911	0.072957
1033.479207	0.071962
1033.647484	0.073194
1033.815743	0.071957
1033.983983	0.072501
1034.152206	0.072451
1034.320410	0.070146
1034.488596	0.071862
1034.656764	0.073041
1034.824914	0.073451
1034.993045	0.074085
1035.161158	0.075006
1035.329253	0.077182
1035.497330	0.076244
1035.665388	0.075591
1035.833428	0.076596
1036.001450	0.074295
1036.169454	0.073590
1036.337440	0.072429
1036.505407	0.071695
1036.673356	0.070101
1036.841287	0.066997
1037.009200	0.067882
1037.177094	0.069691
1037.344970	0.069878
1037.512828	0.071240
1037.680668	0.069687
1037.848489	0.070889
1038.016293	0.069852
1038.184078	0.068818
1038.351845	0.070819
1038.519593	0.068645
1038.687324	0.069316
1038.855036	0.072053
1039.022730	0.072826
1039.190406	0.074078
1039.358063	0.074102
1039.525702	0.077045
1039.693323	0.076003
1039.860926	0.076245
1040.028511	0.078549
1040.196077	0.075740
1040.363625	0.073940
1040.531155	0.073647
1040.698667	0.074153
1040.866161	0.073174
1041.033636	0.070849
1041.201093	0.071649
1041.368532	0.071453
1041.535952	0.070899
1041.703355	0.070184
1041.870739	0.069105
1042.038105	0.068341
1042.205452	0.067705
1042.372782	0.067546
1042.540093	0.068624
1042.707386	0.070476
1042.874661	0.071571
1043.041918	0.073034
1043.209156	0.074338
1043.376376	0.073973
1043.543578	0.074870
1043.710762	0.076887
1043.877927	0.076070
1044.045074	0.073958
1044.212203	0.072114
1044.379314	0.069691
1044.546407	0.067815
1044.713481	0.067293
1044.880537	0.069117
1045.047575	0.068445
1045.214595	0.067711
1045.381596	0.067826
1045.548579	0.070136
1045.715544	0.069697
1045.882491	0.069151
1046.049420	0.069626
1046.216330	0.069782
1046.383222	0.069056
1046.550096	0.070019
1046.716951	0.067388
1046.883789	0.068654
1047.050608	0.066993
1047.217409	0.068607
1047.384192	0.069391
1047.550956	0.068862
1047.717703	0.068888
1047.884431	0.068039
1048.051140	0.066739
1048.217832	0.068645
1048.384505	0.067512
1048.551161	0.068658
1048.717798	0.066104
1048.884416	0.066251
1049.051017	0.066416
1049.217599	0.065886
1049.384163	0.066978
1049.550709	0.068042
1049.717237	0.065245
1049.883746	0.067655
1050.050237	0.068323
1050.216710	0.069955
1050.383165	0.069918
1050.549601	0.070964
1050.716019	0.071571
1050.882420	0.072359
1051.048801	0.070495
1051.215165	0.073512
1051.381510	0.071485
1051.547837	0.071975
1051.714146	0.071446
1051.880437	0.069712
1052.046709	0.067737
1052.212964	0.068732
1052.379200	0.067459
1052.545417	0.069854
1052.711617	0.068471
1052.877798	0.069068
1053.043961	0.068957
1053.210106	0.070496
1053.376233	0.072563
1053.542341	0.075128
1053.708432	0.072182
1053.874504	0.071977
1054.040557	0.071489
1054.206593	0.072375
1054.372610	0.072037
1054.538609	0.071452
1054.704590	0.071303
1054.870553	0.069519
1055.036497	0.066943
1055.202424	0.068323
1055.368331	0.068039
1055.534221	0.066870
1055.700093	0.068012
1055.865946	0.069703
1056.031781	0.069382
1056.197598	0.069954
1056.363397	0.071471
1056.529177	0.073459
1056.694939	0.075609
1056.860683	0.078164
1057.026409	0.078317
1057.192116	0.077199
1057.357806	0.075123
1057.523477	0.076561
1057.689130	0.076257
1057.854764	0.075717
1058.020381	0.075347
1058.185979	0.074210
1058.351559	0.072220
1058.517120	0.073257
1058.682664	0.073757
1058.848189	0.074383
1059.013696	0.072806
1059.179185	0.071988
1059.344656	0.072614
1059.510108	0.070952
1059.675542	0.070959
1059.840958	0.070049
1060.006356	0.070868
1060.171735	0.070076
1060.337096	0.071612
1060.502439	0.073307
1060.667764	0.073658
1060.833071	0.072582
1060.998359	0.073637
1061.163629	0.071397
1061.328881	0.071701
1061.494115	0.068436
1061.659330	0.067774
1061.824527	0.066183
1061.989706	0.066048
1062.154867	0.067686
1062.320010	0.069215
1062.485134	0.071070
1062.650240	0.073389
1062.815328	0.073118
1062.980398	0.077051
1063.145449	0.079054
1063.310482	0.078328
1063.475497	0.077284
1063.640494	0.075813
1063.805473	0.076317
1063.970433	0.075728
1064.135375	0.077745
1064.300299	0.078798
1064.465204	0.076824
1064.630092	0.077225
1064.794961	0.077038
1064.959812	0.079524
1065.124645	0.078256
1065.289459	0.077336
1065.454256	0.074032
1065.619034	0.073544
1065.783793	0.074076
1065.948535	0.074194
1066.113258	0.073232
1066.277964	0.076123
1066.442651	0.073266
1066.607319	0.075308
1066.771970	0.073252
1066.936602	0.074242
1067.101216	0.070562
1067.265812	0.070738
1067.430389	0.072435
1067.594949	0.072019
1067.759490	0.068161
1067.924013	0.068946
1068.088518	0.068130
1068.253004	0.070188
1068.417472	0.071649
1068.581922	0.075038
1068.746354	0.075117
1068.910768	0.075852
1069.075163	0.075394
1069.239540	0.077980
1069.403899	0.076512
1069.568240	0.076886
1069.732562	0.076371
1069.896866	0.076486
1070.061152	0.076800
1070.225420	0.075563
1070.389670	0.073907
1070.553901	0.076062
1070.718114	0.075741
1070.882309	0.077470
1071.046486	0.075728
1071.210644	0.074014
1071.374784	0.073483
1071.538906	0.072010
1071.703010	0.074774
1071.867096	0.074915
1072.031163	0.073500
1072.195212	0.074545
1072.359243	0.074335
1072.523256	0.074757
1072.687250	0.079157
1072.851226	0.079752
1073.015184	0.079334
1073.179124	0.074999
1073.343045	0.076453
1073.506949	0.076963
1073.670834	0.075706
1073.834701	0.077478
1073.998549	0.079472
1074.162380	0.076751
1074.326192	0.077558
1074.489986	0.079407
1074.653761	0.081836
1074.817519	0.081547
1074.981258	0.081913
1075.144979	0.082315
1075.308682	0.080389
1075.472367	0.082339
1075.636033	0.084208
1075.799681	0.082695
1075.963311	0.079580
1076.126923	0.080124
1076.290516	0.078984
1076.454092	0.078173
1076.617649	0.078244
1076.781187	0.079120
1076.944708	0.077345
1077.108210	0.077724
1077.271695	0.079042
1077.435160	0.080847
1077.598608	0.079082
1077.762038	0.077300
1077.925449	0.078579
1078.088842	0.078635
1078.252217	0.078670
1078.415573	0.079063
1078.578912	0.077707
1078.742232	0.075882
1078.905534	0.074463
1079.068817	0.075613
1079.232083	0.078123
1079.395330	0.078782
1079.558559	0.078056
1079.721770	0.078142
1079.884962	0.076680
1080.048136	0.075694
1080.211293	0.077712
1080.374430	0.080036
1080.537550	0.078786
1080.700651	0.077720
1080.863735	0.074664
1081.026800	0.076635
1081.189846	0.074109
1081.352875	0.073217
1081.515885	0.073820
1081.678877	0.072713
1081.841851	0.071755
1082.004807	0.071939
1082.167744	0.072046
1082.330663	0.074364
1082.493564	0.074015
1082.656447	0.074175
1082.819312	0.076878
1082.982158	0.078476
1083.144986	0.079437
1083.307796	0.079437
1083.470587	0.082977
1083.633361	0.083776
1083.796116	0.082656
1083.958853	0.082392
1084.121571	0.082054
1084.284272	0.080455
1084.446954	0.077867
1084.609618	0.079583
1084.772264	0.078944
1084.934892	0.080778
1085.097501	0.081400
1085.260092	0.079587
1085.422665	0.078996
1085.585220	0.079308
1085.747756	0.079914
1085.910274	0.080577
1086.072774	0.079612
1086.235256	0.083683
1086.397720	0.080478
1086.560165	0.079361
1086.722592	0.079851
1086.885001	0.080559
1087.047392	0.079844
1087.209764	0.079296
1087.372119	0.077711
1087.534455	0.076753
1087.696772	0.076246
1087.859072	0.073550
1088.021353	0.073447
1088.183616	0.075956
1088.345861	0.073344
1088.508088	0.075195
1088.670296	0.072783
1088.832486	0.073301
1088.994658	0.074121
1089.156812	0.072671
1089.318948	0.074994
1089.481065	0.069580
1089.643164	0.072342
1089.805245	0.076215
1089.967308	0.076493
1090.129352	0.078546
1090.291378	0.080477
1090.453386	0.081235
1090.615376	0.082684
1090.777347	0.082252
1090.939301	0.086743
1091.101236	0.084104
1091.263153	0.081477
1091.425051	0.081542
1091.586932	0.080601
1091.748794	0.080610
1091.910638	0.077692
1092.072463	0.075463
1092.234271	0.076682
1092.396060	0.075863
1092.557831	0.073761
1092.719584	0.076583
1092.881319	0.076638
1093.043035	0.078107
1093.204733	0.076436
1093.366413	0.075788
1093.528075	0.076520
1093.689718	0.074735
1093.851343	0.074004
1094.012950	0.074822
1094.174539	0.069866
1094.336110	0.067755
1094.497662	0.069005
1094.659196	0.071102
1094.820712	0.072217
1094.982210	0.069034
1095.143689	0.072286
1095.305151	0.074193
1095.466594	0.073339
1095.628018	0.072207
1095.789425	0.071603
1095.950813	0.070669
1096.112183	0.068482
1096.273535	0.066850
1096.434869	0.072401
1096.596184	0.069563
1096.757482	0.067662
1096.918761	0.071807
1097.080021	0.079374
1097.241264	0.080570
1097.402488	0.077313
1097.563694	0.080491
1097.724882	0.080624
1097.886052	0.077286
1098.047203	0.077094
1098.208336	0.082275
1098.369451	0.079262
1098.530548	0.075409
1098.691627	0.076838
1098.852687	0.082272
1099.013729	0.081579
1099.174753	0.088020
1099.335758	0.090223
1099.496746	0.092773
1099.657715	0.088574
1099.818666	0.088750
1099.979599	0.085770
1100.140513	0.085724
1100.301409	0.082396
1100.462287	0.082674
1100.623147	0.079061
1100.783989	0.076467
1100.944812	0.077126
1101.105617	0.076712
1101.266404	0.081054
1101.427173	0.080236
1101.587923	0.080780
1101.748656	0.080350
1101.909370	0.077893
1102.070066	0.078880
1102.230743	0.082531
1102.391403	0.080913
1102.552044	0.083048
1102.712667	0.081704
1102.873271	0.088744
1103.033858	0.087869
1103.194426	0.093159
1103.354976	0.096914
1103.515508	0.095498
1103.676021	0.091961
1103.836517	0.087953
1103.996994	0.088300
1104.157453	0.087779
1104.317893	0.083248
1104.478316	0.085342
1104.638720	0.084935
1104.799106	0.082317
1104.959474	0.080475
1105.119823	0.082480
1105.280155	0.083837
1105.440468	0.080258
1105.600763	0.073197
1105.761039	0.076594
1105.921298	0.074820
1106.081538	0.071918
1106.241760	0.071816
1106.401964	0.072407
1106.562149	0.065399
1106.722316	0.065946
1106.882465	0.068202
1107.042596	0.072714
1107.202709	0.068114
1107.362803	0.069972
1107.522879	0.070008
1107.682937	0.071856
1107.842977	0.072445
1108.002999	0.076558
1108.163002	0.078464
1108.322987	0.081305
1108.482954	0.081947
1108.642902	0.083316
1108.802833	0.078874
1108.962745	0.074859
1109.122639	0.074228
1109.282515	0.075047
1109.442372	0.077622
1109.602211	0.079852
1109.762032	0.079740
1109.921835	0.082008
1110.081620	0.086246
1110.241386	0.086565
1110.401134	0.094810
1110.560864	0.092889
1110.720576	0.092307
1110.880269	0.092146
1111.039945	0.089848
1111.199602	0.089061
1111.359240	0.089848
1111.518861	0.083428
1111.678463	0.087303
1111.838047	0.083395
1111.997613	0.086513
1112.157161	0.088414
1112.316690	0.084089
1112.476202	0.086123
1112.635695	0.085389
1112.795169	0.079259
1112.954626	0.077995
1113.114064	0.080213
1113.273484	0.083036
1113.432886	0.082596
1113.592270	0.074903
1113.751635	0.077024
1113.910983	0.075774
1114.070312	0.074922
1114.229622	0.080605
1114.388915	0.082491
1114.548189	0.083572
1114.707445	0.076136
1114.866683	0.078616
1115.025903	0.084895
1115.185104	0.086916
1115.344287	0.085354
1115.503452	0.087467
1115.662599	0.083591
1115.821727	0.087546
1115.980838	0.083436
1116.139930	0.085898
1116.299004	0.084429
1116.458059	0.087520
1116.617097	0.088119
1116.776116	0.091958
1116.935117	0.090701
1117.094099	0.093484
1117.253064	0.091242
1117.412010	0.092965
1117.570938	0.093534
1117.729848	0.089874
1117.888740	0.084093
1118.047613	0.082995
1118.206468	0.078304
1118.365305	0.075761
1118.524124	0.080295
1118.682924	0.086843
1118.841707	0.085383
1119.000471	0.089109
1119.159216	0.093048
1119.317944	0.093002
1119.476653	0.091214
1119.635344	0.091752
1119.794017	0.091522
1119.952672	0.082883
1120.111308	0.075216
1120.269927	0.072125
1120.428527	0.071041
1120.587108	0.073996
1120.745672	0.072800
1120.904217	0.070774
1121.062744	0.070642
1121.221253	0.080103
1121.379744	0.080556
1121.538216	0.084604
1121.696671	0.089044
1121.855107	0.088032
1122.013524	0.084254
1122.171924	0.090082
1122.330305	0.092220
1122.488668	0.091259
1122.647013	0.083863
1122.805340	0.086221
1122.963648	0.085205
1123.121938	0.088205
1123.280210	0.085514
1123.438464	0.082136
1123.596700	0.078613
1123.754917	0.080178
1123.913116	0.084469
1124.071297	0.084608
1124.229459	0.086174
1124.387604	0.090490
1124.545730	0.082604
1124.703838	0.083937
1124.861928	0.085960
1125.019999	0.086509
1125.178052	0.090444
1125.336088	0.088329
1125.494104	0.088026
1125.652103	0.083901
1125.810083	0.076935
1125.968045	0.084328
1126.125989	0.086104
1126.283915	0.085813
1126.441823	0.087149
1126.599712	0.086079
1126.757583	0.084317
1126.915436	0.085994
1127.073270	0.091392
1127.231087	0.095620
1127.388885	0.096143
1127.546665	0.103615
1127.704426	0.100505
1127.862170	0.098737
1128.019895	0.092286
1128.177602	0.093017
1128.335291	0.087631
1128.492961	0.082760
1128.650614	0.085474
1128.808248	0.076752
1128.965864	0.068692
1129.123461	0.078290
1129.281041	0.084572
1129.438602	0.083489
1129.596145	0.084160
1129.753670	0.085739
1129.911176	0.079590
1130.068665	0.074833
1130.226135	0.078473
1130.383587	0.080536
1130.541020	0.074645
1130.698436	0.068792
1130.855833	0.072934
1131.013212	0.076286
1131.170573	0.078751
1131.327915	0.094201
1131.485239	0.088625
1131.642545	0.090937
1131.799833	0.090240
1131.957103	0.086401
1132.114354	0.086751
1132.271588	0.087103
1132.428803	0.087575
1132.585999	0.094552
1132.743178	0.086757
1132.900338	0.088424
1133.057480	0.081473
1133.214604	0.081842
1133.371710	0.086598
1133.528797	0.091142
1133.685866	0.092416
1133.842917	0.084165
1133.999950	0.083339
1134.156964	0.087077
1134.313960	0.093357
1134.470938	0.096047
1134.627898	0.094652
1134.784840	0.090777
1134.941763	0.094627
1135.098668	0.091839
1135.255555	0.098274
1135.412424	0.093290
1135.569274	0.085924
1135.726107	0.090051
1135.882921	0.100942
1136.039716	0.099105
1136.196494	0.106488
1136.353253	0.104962
1136.509995	0.107496
1136.666717	0.111054
1136.823422	0.117665
1136.980109	0.110345
1137.136777	0.104000
1137.293427	0.098729
1137.450059	0.103803
1137.606672	0.092473
1137.763267	0.078014
1137.919844	0.081058
1138.076403	0.078345
1138.232944	0.075259
1138.389466	0.080750
1138.545971	0.074645
1138.702457	0.073667
1138.858924	0.070259
1139.015374	0.086816
1139.171805	0.102104
1139.328218	0.098960
1139.484613	0.096682
1139.640990	0.086833
1139.797348	0.087110
1139.953688	0.100362
1140.110010	0.100856
1140.266314	0.101632
1140.422600	0.092043
1140.578867	0.091469
1140.735116	0.087567
1140.891347	0.089339
1141.047559	0.090592
1141.203754	0.095603
1141.359930	0.091211
1141.516088	0.097693
1141.672228	0.093262
1141.828349	0.096123
1141.984452	0.087856
1142.140537	0.097420
1142.296604	0.094227
1142.452653	0.097075
1142.608683	0.092027
1142.764695	0.080619
1142.920689	0.074092
1143.076665	0.081918
1143.232622	0.079005
1143.388562	0.076596
1143.544483	0.076021
1143.700385	0.078795
1143.856270	0.084183
1144.012136	0.089039
1144.167985	0.096799
1144.323814	0.096016
1144.479626	0.088626
1144.635420	0.084746
1144.791195	0.094686
1144.946952	0.089801
1145.102691	0.098037
1145.258411	0.091772
1145.414113	0.092172
1145.569798	0.094164
1145.725463	0.096202
1145.881111	0.103458
1146.036741	0.103321
1146.192352	0.108897
1146.347945	0.108834
1146.503519	0.100339
1146.659076	0.110258
1146.814614	0.109005
1146.970134	0.107732
1147.125636	0.100647
1147.281120	0.098484
1147.436585	0.101140
1147.592032	0.084907
1147.747461	0.080474
1147.902872	0.080897
1148.058265	0.074456
1148.213639	0.070500
1148.368995	0.070155
1148.524333	0.079421
1148.679653	0.075347
1148.834954	0.072981
1148.990237	0.085580
1149.145502	0.090665
1149.300749	0.089094
1149.455977	0.097597
1149.611188	0.102605
1149.766380	0.117311
1149.921553	0.120839
1150.076709	0.123322
1150.231846	0.133483
1150.386966	0.124453
1150.542066	0.134393
1150.697149	0.140496
1150.852214	0.126222
1151.007260	0.129371
1151.162288	0.112229
1151.317298	0.100915
1151.472289	0.104763
1151.627263	0.099525
1151.782218	0.104297
1151.937155	0.103472
1152.092073	0.092826
1152.246974	0.097869
1152.401856	0.103597
1152.556720	0.113912
1152.711566	0.116397
1152.866393	0.106904
1153.021203	0.105986
1153.175994	0.113495
1153.330767	0.104376
1153.485521	0.108255
1153.640258	0.104155
1153.794976	0.093213
1153.949676	0.079725
1154.104358	0.074237
1154.259021	0.085405
1154.413667	0.085970
1154.568294	0.076269
1154.722903	0.071712
1154.877493	0.066032
1155.032066	0.073900
1155.186620	0.076001
1155.341156	0.079637
1155.495674	0.084969
1155.650173	0.090216
1155.804654	0.094854
1155.959118	0.095752
1156.113562	0.103388
1156.267989	0.126218
1156.422397	0.119602
1156.576788	0.113654
1156.731160	0.112311
1156.885513	0.111874
1157.039849	0.103182
1157.194166	0.101106
1157.348465	0.101435
1157.502746	0.105927
1157.657009	0.094400
1157.811253	0.096014
1157.965479	0.098624
1158.119687	0.104757
1158.273877	0.102787
1158.428048	0.098870
1158.582201	0.096741
1158.736337	0.093610
1158.890453	0.088329
1159.044552	0.081970
1159.198632	0.081797
1159.352694	0.087379
1159.506738	0.097573
1159.660764	0.099655
1159.814771	0.106338
1159.968761	0.111001
1160.122732	0.110916
1160.276685	0.096519
1160.430619	0.094560
1160.584535	0.114807
1160.738434	0.108982
1160.892313	0.101865
1161.046175	0.101081
1161.200019	0.087816
1161.353844	0.070994
1161.507651	0.078200
1161.661440	0.100551
1161.815210	0.112075
1161.968962	0.089260
1162.122697	0.092010
1162.276412	0.097131
1162.430110	0.109214
1162.583789	0.111622
1162.737451	0.123578
1162.891094	0.112775
1163.044718	0.097478
1163.198325	0.077799
1163.351913	0.082449
1163.505483	0.084471
1163.659035	0.073645
1163.812569	0.060105
1163.966084	0.060829
1164.119581	0.051994
1164.273060	0.062410
1164.426521	0.066735
1164.579964	0.073864
1164.733388	0.074251
1164.886794	0.066635
1165.040182	0.073045
1165.193551	0.082030
1165.346903	0.086585
1165.500236	0.101947
1165.653551	0.095819
1165.806848	0.082521
1165.960126	0.079724
1166.113386	0.065520
1166.266628	0.068135
1166.419852	0.054410
1166.573058	0.047025
1166.726245	0.047582
1166.879414	0.034548
1167.032565	0.033471
1167.185698	0.042093
1167.338812	0.055505
1167.491909	0.086689
1167.644987	0.103303
1167.798046	0.112667
1167.951088	0.128101
1168.104111	0.120264
1168.257117	0.127569
1168.410103	0.126758
1168.563072	0.132153
1168.716023	0.138319
1168.868955	0.121166
1169.021869	0.090519
1169.174765	0.094431
1169.327642	0.073557
1169.480501	0.079060
1169.633343	0.081834
1169.786165	0.090469
1169.938970	0.094908
1170.091757	0.080513
1170.244525	0.079334
1170.397275	0.106101
1170.550007	0.085525
1170.702720	0.094690
1170.855415	0.098270
1171.008092	0.099568
1171.160751	0.093002
1171.313392	0.092061
1171.466014	0.100917
1171.618619	0.121914
1171.771205	0.121914
1171.923772	0.121914
