sample name	sample
index	544
start time	 03-15-2021  10:50:30 AM
880	0.206646
Peak Time (s)	92.536
Peak Height 	0.2066
calc peak height	90,93
Baseline Time (s)	10.035
Baseline Value 	-0.004731
subtract baseline	10,4
Abs	0.149239
Peak Time (s)	91.035
Peak Height 	0.1492
calc peak height	90,93
Baseline Time (s)	11.536
Baseline Value 	0.003514
subtract baseline	10,3
PK_550	0.073706
Peak Time (s)	92.035
Peak Height 	0.07371
calc peak height	90,93
Baseline Time (s)	10.535
Baseline Value 	4.5276E-4
subtract baseline	10,2
PK_880	0.139567
Peak Time (s)	92.536
Peak Height 	0.1396
calc peak height	90,93
Baseline Time (s)	9.035
Baseline Value 	0.001742
subtract baseline	10,1


Time (s)	A880-A510	A880-A775	A880-A975	A880	I510	I775	I975	I880	
0.037500	0.000587	-0.000164	-0.004283	0.001025	6123.245143	40764.336703	3698.549347	21438.841681
0.535500	-0.001046	0.000333	-0.003174	0.005573	6075.706800	40411.598329	3690.895451	21244.127853
1.035500	-0.001031	-0.001287	-0.004991	0.005541	6076.073461	40274.316380	3686.949624	21245.525310
1.536500	-0.001355	0.000047	-0.004818	0.005171	6076.418035	40421.664753	3688.146567	21261.261719
2.038500	0.000272	-0.000095	-0.002905	-0.000500	6132.636899	40904.046832	3705.057030	21504.626813
2.539000	0.000394	-0.000335	0.005186	-0.000309	6132.098940	40866.218618	3722.988631	21496.370464
3.036500	-0.003575	-0.000756	-0.008090	0.005162	6059.578548	40353.006246	3680.962314	21261.660709
3.537000	-0.002533	-0.001278	0.000388	-0.000788	6113.134938	40825.462618	3713.143852	21517.039164
4.037500	-0.001089	-0.000331	-0.001567	0.000453	6114.701581	40799.714198	3705.923468	21463.474801
4.537500	0.000631	-0.000263	0.002043	0.000209	6129.912171	40827.139712	3714.639523	21474.018330
5.035500	-0.003153	-0.000511	0.000649	0.000234	6100.480742	40803.181617	3711.419188	21472.916235
5.535500	0.001578	-0.000448	-0.000261	0.000286	6136.677374	40804.148256	3709.246947	21470.707478
6.035500	0.000900	0.000440	0.000816	0.000686	6128.299973	40846.859910	3710.773723	21453.432773
6.536000	0.000509	0.000673	0.001071	0.000238	6128.742376	40906.612652	3712.368027	21472.766858
7.036500	-0.000756	-0.000226	0.000238	-0.000585	6125.313133	40899.993983	3712.345942	21508.286812
7.536500	-0.003011	0.000085	-0.003351	-0.000285	6105.569911	40900.945388	3703.573014	21495.334274
8.037000	0.000335	0.000398	-0.000058	-0.000268	6131.314926	40926.902477	3710.954261	21494.567670
8.537000	0.001284	0.000457	0.000868	0.000076	6136.018463	40901.833254	3712.272388	21479.730553
9.035000	0.000000	-0.000263	-0.000675	-0.000587	6131.192492	40896.849014	3710.280703	21508.349349
9.534500	-0.000474	0.000385	-0.000355	0.000509	6119.028971	40857.615255	3708.529960	21461.074759
10.035000	0.000556	0.000354	0.001835	0.000000	6130.954788	40899.567051	3714.639970	21483.023602
10.535000	-0.001060	0.000000	0.002613	0.000114	6117.546965	40858.430317	3716.148705	21478.085018
11.036000	0.000902	-0.000957	-0.002929	-0.000814	6139.968619	40855.918312	3705.709931	21518.167700
11.535500	-0.000305	-0.000100	0.000000	-0.000753	6130.113263	40925.769614	3712.185458	21515.528004
12.036500	-0.000799	-0.000440	0.004278	-0.000595	6125.061644	40882.089801	3721.564931	21508.711159
12.537000	0.000034	0.000746	0.005944	0.000326	6124.375262	40905.299355	3723.269542	21468.963761
13.034500	0.000568	0.000914	0.004674	-0.002118	6147.530336	41135.285797	3725.961776	21574.600612
13.537500	-0.000188	-0.000515	-0.000470	-0.001477	6136.644122	40952.895931	3712.759692	21546.827196
14.038000	0.001312	0.000564	-0.002365	-0.000009	6136.897983	40918.735072	3705.167628	21483.401742
14.535000	-0.001189	-0.000804	-0.005595	0.001727	6104.105049	40647.170261	3694.058981	21408.667298
15.035500	-0.000612	0.000439	0.001041	-0.000905	6128.911106	40986.535889	3714.891360	21522.095177
15.546000	-0.001355	0.000829	0.002007	-0.000923	6123.297466	41022.439650	3717.131216	21522.902780
16.035500	0.000370	0.000663	0.001618	-0.000897	6136.480135	41005.494509	3716.186713	21521.758060
16.536500	-0.001064	0.000165	0.005485	-0.000912	6125.466448	40963.050521	3725.055970	21522.418089
17.037000	0.000387	0.000131	-0.001069	-0.001618	6142.219718	41022.196301	3711.723992	21552.951462
17.537000	0.001620	0.000740	0.000071	-0.003430	6166.021844	41235.894461	3718.430631	21631.561889
18.037000	0.000125	0.000252	0.004631	0.000375	6124.700321	40857.617506	3720.154246	21466.837123
18.537500	-0.002668	0.000159	-0.003358	0.001008	6098.256275	40794.048031	3700.656519	21439.585755
19.038000	-0.002242	-0.000094	0.001758	0.000621	6104.514744	40805.772487	3713.057302	21456.253648
19.535000	-0.001655	0.000119	-0.001943	0.001098	6105.362149	40782.711231	3703.626962	21435.715346
20.036000	-0.000121	-0.000157	0.000028	0.000956	6118.299110	40770.929060	3708.384348	21441.819334
20.536000	-0.000239	-0.000193	0.001934	0.001252	6115.102383	40741.947138	3712.026179	21429.109940
21.036000	0.000175	-0.000475	-0.000600	0.000883	6121.157833	40749.546051	3707.133631	21444.968024
21.536500	-0.001212	-0.000903	0.000628	0.000560	6112.927917	40740.414443	3710.635927	21458.893489
22.037000	-0.000732	-0.000076	0.001455	0.000638	6116.036351	40805.892477	3712.331896	21455.535589
22.537500	-0.002138	-0.000141	-0.000341	0.001342	6099.763973	40738.649861	3706.683129	21425.229145
23.037500	0.000096	0.000478	-0.001868	0.001390	6116.619568	40788.551990	3703.139950	21423.160019
23.537500	-0.001990	-0.000336	0.002656	0.000498	6107.404496	40795.460206	3715.374912	21461.564530
24.035500	-0.000595	0.000124	-0.003250	0.000950	6114.683251	40796.153045	3701.028956	21442.097489
24.536000	0.000007	0.000069	-0.000470	0.001336	6116.349304	40757.473092	3706.404231	21425.466813
25.035500	-0.001955	-0.000850	0.001698	0.000375	6108.619747	40761.131181	3713.476990	21466.835076
25.536000	0.000070	0.000165	0.002308	0.001301	6117.107328	40768.902086	3712.761053	21426.962635
26.036500	-0.000851	-0.000392	-0.002594	0.000678	6114.809094	40774.746251	3703.109826	21453.799365
26.536500	-0.001197	0.000508	0.000102	0.001436	6106.286482	40787.103048	3707.467732	21421.160380
27.036500	-0.002663	0.000562	0.002358	0.001529	6094.292580	40783.763234	3712.356460	21417.169915
27.534500	-0.001858	-0.000298	0.000458	-0.001080	6120.611326	40937.122912	3713.965121	21529.672876
28.037500	0.000871	0.000088	0.001997	-0.002827	6155.433267	41124.961541	3721.451338	21605.361871
28.535000	0.001772	0.000533	-0.002122	-0.000573	6144.872803	40965.621890	3706.984490	21507.778902
29.035500	-0.001134	-0.000793	0.000076	0.001795	6104.008555	40642.158757	3706.600330	21405.742406
29.534500	-0.000347	-0.000456	0.008855	-0.001570	6136.136845	40966.334029	3734.344090	21550.877433
30.036000	0.001906	0.000468	0.001952	-0.001190	6150.736598	41014.171884	3717.614768	21534.447756
30.536000	-0.000499	-0.000289	-0.001244	-0.001331	6133.093087	40959.933860	3710.677171	21540.513846
31.064000	-0.003058	-0.000998	-0.005891	0.002453	6084.179905	40566.983333	3691.789896	21377.482770
31.537000	-0.000279	-0.000040	0.003420	0.002552	6104.762627	40641.856795	3712.447073	21373.254516
32.037000	0.000854	0.000235	0.000331	0.000399	6130.168354	40854.143677	3710.328626	21465.828337
32.563000	0.000934	0.000503	0.003857	-0.000627	6138.765672	40967.755450	3720.676563	21510.108677
33.045500	-0.004115	0.000545	-0.003668	0.005484	6053.032027	40437.741181	3689.997684	21247.926856
33.535000	-0.000082	-0.000633	0.001600	-0.001889	6140.676988	40978.781335	3718.403812	21564.675747
34.035000	0.002283	0.000737	-0.001320	-0.001019	6152.338371	41022.760947	3709.800301	21527.034716
34.535500	-0.002133	-0.000586	-0.000228	-0.001396	6120.929023	40939.623473	3713.125899	21543.347743
35.070500	-0.000015	0.000170	-0.004408	0.003123	6102.396061	40610.355928	3693.596911	21348.793007
35.536000	-0.002663	-0.000200	0.001770	0.001909	6091.380347	40683.976904	3710.167247	21400.866695
36.036000	-0.000395	-0.000218	-0.004384	0.001933	6108.641981	40680.298197	3696.298750	21399.820790
36.536500	-0.003318	-0.000130	0.000111	0.001839	6086.895839	40696.212465	3706.582221	21403.871240
37.036500	-0.002545	-0.000161	0.003130	0.001965	6091.851951	40682.407440	3713.118910	21398.428029
37.537000	-0.000315	0.000249	-0.003722	0.002013	6108.642573	40714.075429	3697.596513	21396.387269
38.035000	0.000225	0.000429	-0.000186	0.002240	6111.051038	40709.945016	3705.009778	21386.635372
38.535000	0.001533	0.000380	-0.001362	0.002003	6123.004622	40726.433398	3702.901177	21396.835201
39.035500	-0.001619	0.000393	0.001611	0.002331	6096.151129	40698.840377	3708.852356	21382.720437
39.540500	-0.001749	0.000491	-0.000265	0.002061	6097.230506	40731.078249	3705.235623	21394.328431
40.035000	-0.001547	0.000671	0.000686	0.002436	6095.903148	40713.978364	3706.531286	21378.232886
40.541500	-0.001729	0.000285	0.005569	0.002430	6094.550394	40680.842738	3717.605300	21378.488242
41.036500	-0.000003	0.000781	0.002440	0.002905	6104.164290	40682.648574	3709.429516	21358.113790
41.542500	0.000587	-0.000531	0.002262	0.001921	6116.312791	40654.074705	3711.253815	21400.353820
42.037000	-0.003958	0.000640	0.000282	0.002386	6077.807895	40715.654762	3705.733600	21380.364220
42.543000	0.000803	0.000134	0.005218	0.002078	6116.767497	40698.383983	3717.609500	21393.591484
43.035500	0.000517	0.000681	0.000416	0.002640	6110.219345	40697.015901	3705.464549	21369.476837
43.535500	-0.000992	-0.000064	0.003346	0.002056	6103.087433	40682.921513	3713.402833	21394.521549
44.038500	-0.001481	0.000482	-0.002214	0.002066	6099.251064	40729.770391	3700.847730	21394.101441
44.536000	0.000160	-0.000277	0.000326	0.001456	6116.609291	40716.787186	3707.928080	21420.313519
45.036000	0.004502	0.000590	0.010936	-0.002400	6180.582218	41131.557103	3741.109928	21586.840452
45.537000	0.001099	0.000722	0.009701	-0.000593	6139.779484	40983.944488	3734.040026	21508.601398
46.060500	0.001181	0.000099	0.002287	-0.000834	6142.296992	40950.397952	3717.564882	21519.030562
46.537000	-0.001095	0.000804	0.004255	0.001322	6107.954808	40823.120628	3717.137068	21426.087767
47.036500	0.001943	0.000640	0.005438	-0.000079	6142.355443	40931.559523	3723.039188	21486.424785
47.535000	0.002606	0.000960	0.006036	-0.000204	6148.498346	40970.633834	3724.694361	21491.806116
48.036000	0.001214	0.000890	0.001345	-0.000005	6136.102951	40946.990774	3713.538977	21483.233530
48.535500	-0.002471	-0.000355	0.002803	0.000936	6100.327773	40755.397174	3714.711941	21442.670014
49.035500	-0.001431	0.000562	0.000573	0.003511	6088.538274	40610.651004	3703.858143	21332.154869
49.535500	0.000808	0.000463	0.002718	-0.000284	6135.117302	40933.990229	3717.294557	21495.270476
50.036500	0.000074	0.000243	0.004834	-0.000507	6131.144369	40934.324161	3722.634750	21504.905029
50.536500	0.001415	0.000599	0.006421	0.000502	6133.728677	40876.966492	3723.958661	21461.369609
51.037000	-0.001483	0.000652	0.004176	0.002490	6095.982646	40707.623204	3714.302924	21375.934547
51.537000	-0.002011	0.000051	0.003347	-0.002421	6129.821210	41085.865423	3723.613422	21587.761215
52.037500	-0.001456	-0.000017	0.002053	0.003098	6091.512713	40596.215360	3708.119962	21349.836024
52.535000	0.012259	-0.010541	0.019745	0.206923	4910.214531	25864.965781	3366.564413	14382.044613
53.038000	-0.002581	-0.015844	-0.002563	0.081296	5535.242220	33234.628332	3538.006811	18284.667307
53.536000	-0.014177	-0.026238	-0.004331	-0.112634	6983.501581	49251.823782	3988.676728	27030.238649
54.036000	-0.009536	-0.133368	0.001503	-0.350223	10137.894573	65535.000000	4935.951041	44712.087794
54.535000	-0.000583	-0.054476	0.013764	-0.254451	8800.939066	63142.674873	4549.750358	36407.344296
55.036500	-0.016030	-0.033457	-0.000819	-0.196650	7863.247479	58240.855686	4270.111568	32212.857087
55.542000	-0.015617	-0.025800	-0.005945	-0.197433	7877.324490	59329.143168	4254.770088	32266.030793
56.036000	-0.008863	-0.032981	-0.005862	-0.227108	8325.151780	62335.346606	4363.033132	34353.498194
56.539500	0.003588	-0.030338	0.000259	-0.227186	8488.066714	62709.551431	4386.535213	34359.159093
57.035000	0.005728	-0.021666	-0.001208	-0.209791	8290.333347	61517.899401	4316.057392	33118.070141
57.534500	0.005324	-0.013763	0.002917	-0.176098	7872.684345	58131.422814	4211.552338	30850.993878
58.035000	0.010589	-0.010833	0.004594	-0.168650	7847.047682	57558.613157	4191.971055	30373.154230
58.535500	0.012660	-0.007715	0.009159	-0.124194	7373.971290	52585.040647	4063.514332	27685.261285
59.036000	0.013731	-0.006033	0.007068	-0.090253	7037.595041	49019.522705	3957.203244	25810.551671
59.536000	0.015413	-0.004352	0.017970	-0.069322	6852.112056	47014.654152	3929.145350	24725.378524
60.036000	0.016590	-0.003035	0.012006	-0.053037	6712.184058	45516.143734	3869.174676	23916.562452
60.537000	0.020621	-0.000576	0.020231	-0.031104	6552.558147	43642.177104	3833.725551	22874.038552
61.038000	0.022848	0.001594	0.019910	-0.012210	6409.737977	42098.558202	3785.879328	22017.213616
61.537500	0.026823	0.002968	0.029773	0.002238	6322.761017	40932.548739	3774.773072	21386.719265
62.035000	0.028096	0.005806	0.028981	0.011598	6257.023023	40363.859589	3750.592787	20989.319699
62.535000	0.035189	0.008596	0.037490	0.024521	6210.378282	39497.125238	3740.255591	20454.531499
63.036000	0.038378	0.013925	0.038545	0.029811	6193.726942	39500.480248	3730.435841	20240.165936
63.536000	0.038447	0.015804	0.043051	0.036730	6139.984133	39076.723615	3724.883092	19963.689683
64.062000	0.045125	0.017676	0.052102	0.043731	6137.464796	38650.624003	3729.598787	19688.390268
64.537000	0.044898	0.019152	0.048467	0.046941	6110.833987	38507.636098	3713.937855	19563.623347
65.039500	0.052767	0.020514	0.059611	0.046638	6174.494307	38644.831621	3740.263027	19575.349014
65.545500	0.054526	0.024283	0.062891	0.050143	6160.798679	38666.697245	3739.740710	19440.106272
66.051000	0.058763	0.025769	0.064337	0.054372	6160.856932	38440.731186	3733.279987	19278.359816
66.535000	0.060403	0.026819	0.062300	0.055264	6166.719047	38453.713311	3726.523306	19244.426764
67.035000	0.063192	0.029256	0.063602	0.059247	6157.369831	38326.965440	3720.380625	19093.837544
67.536000	0.066295	0.031046	0.069587	0.061045	6167.592489	38326.315392	3729.991657	19026.295948
68.035500	0.068317	0.031944	0.068191	0.063691	6162.698434	38183.566021	3720.710905	18927.428596
68.536000	0.068635	0.032355	0.069068	0.065987	6147.231217	38030.215060	3717.473598	18842.111755
69.036000	0.072057	0.033729	0.067270	0.068224	6156.491398	37960.257135	3708.326424	18759.436321
69.536500	0.073647	0.035739	0.076380	0.070720	6149.412205	37920.877421	3723.366387	18667.686135
70.036500	0.073941	0.035940	0.076552	0.073825	6127.545210	37686.686371	3716.668854	18554.268514
70.543000	0.078607	0.037461	0.088028	0.076974	6139.329274	37556.122317	3735.802406	18440.071107
71.034500	0.078897	0.038388	0.075902	0.079539	6121.671039	37425.186629	3702.291259	18347.675151
71.537000	0.080200	0.039194	0.082330	0.081439	6117.048878	37338.009983	3712.499059	18279.579651
72.035000	0.081902	0.040833	0.085791	0.085463	6099.145478	37148.789098	3711.225188	18136.334435
72.538500	0.082412	0.041602	0.082184	0.088395	6080.570618	36977.989379	3696.534217	18032.768488
73.036000	0.083265	0.042217	0.093902	0.090721	6069.326786	36843.521580	3717.703797	17951.147414
73.535500	0.085973	0.043180	0.090177	0.093473	6068.986559	36703.542632	3703.054896	17855.110195
74.036500	0.088231	0.044179	0.089476	0.097634	6054.515565	36457.374732	3692.202974	17711.044834
74.536000	0.088344	0.045652	0.092084	0.101327	6027.468390	36285.734058	3689.797695	17584.369322
75.037000	0.089725	0.045800	0.096722	0.103091	6024.586790	36161.200790	3696.181696	17524.207374
75.544000	0.093560	0.046605	0.094159	0.105816	6032.942204	36013.956733	3684.468380	17431.786482
76.034500	0.091898	0.047258	0.102620	0.109325	5994.193132	35796.141436	3695.431572	17313.610525
76.535000	0.094421	0.049273	0.096564	0.114467	5974.739987	35559.277173	3670.812663	17142.170135
77.035500	0.097455	0.049738	0.101403	0.116160	5984.688576	35466.757636	3677.666101	17086.175621
77.536000	0.100475	0.050800	0.099149	0.119186	5984.639069	35319.246573	3666.192073	16986.616141
78.036000	0.101962	0.051628	0.100762	0.123177	5966.100276	35083.134476	3661.071941	16856.373489
78.536500	0.101264	0.051635	0.098203	0.126251	5938.367411	34855.801617	3649.050429	16756.867256
79.036500	0.103368	0.051838	0.112109	0.127625	5943.723485	34769.478414	3676.009878	16712.635468
79.536500	0.102928	0.053350	0.110523	0.130921	5916.445770	34638.322083	3665.414080	16607.044672
80.039500	0.105599	0.054567	0.113737	0.135330	5903.837623	34405.058139	3662.840415	16467.063687
80.537500	0.107698	0.054304	0.109164	0.138970	5892.692607	34122.043001	3645.329639	16352.534493
81.035000	0.110139	0.056347	0.108875	0.141094	5894.982442	34116.260672	3640.250527	16286.184122
81.535000	0.108580	0.057195	0.116304	0.143576	5865.942180	33998.566297	3650.697253	16209.031101
82.035000	0.111308	0.056865	0.113238	0.146850	5862.039851	33740.556423	3637.329677	16107.939435
82.535500	0.113516	0.059129	0.118445	0.151997	5841.108108	33535.657752	3637.453564	15950.520110
83.035500	0.113802	0.059265	0.115339	0.152019	5842.991164	33543.771324	3630.931456	15949.869735
83.536500	0.116897	0.060587	0.122151	0.155170	5842.587447	33414.485080	3638.570187	15854.408531
84.036500	0.119400	0.061113	0.123975	0.158021	5840.123892	33250.979932	3636.422821	15768.673812
84.537000	0.115135	0.061846	0.124587	0.163460	5772.045221	32922.504379	3626.383390	15606.609165
85.037500	0.120416	0.062546	0.126429	0.163487	5808.714396	32969.237717	3630.145269	15605.810582
85.535000	0.123037	0.063433	0.127794	0.166675	5804.738547	32809.749052	3626.367225	15511.783381
86.035000	0.123528	0.064561	0.127697	0.168944	5792.288259	32730.898840	3621.485797	15445.249188
86.535000	0.121615	0.063874	0.130519	0.174041	5743.725186	32334.730741	3616.820056	15297.110786
87.036000	0.125818	0.065261	0.135179	0.174165	5771.890919	32420.777581	3626.148972	15293.523764
87.536000	0.123682	0.066551	0.128094	0.176910	5738.222616	32321.626521	3606.053411	15214.485951
88.036000	0.129569	0.067625	0.140249	0.179884	5758.270095	32192.726102	3624.810257	15129.419380
88.536000	0.126680	0.068491	0.131173	0.185715	5698.660873	31858.354236	3594.557074	14964.292225
89.036500	0.129595	0.069582	0.137610	0.185018	5723.199927	31978.261859	3608.903719	14983.893391
89.539500	0.133918	0.069621	0.144490	0.187323	5737.008107	31826.374123	3618.231946	14919.145083
90.040000	0.132384	0.070589	0.143710	0.189619	5710.860561	31737.673205	3611.950418	14854.957476
90.534000	0.134378	0.071954	0.138459	0.196955	5674.781571	31342.262253	3586.706098	14652.175811
91.035000	0.136435	0.072170	0.149239	0.194957	5702.128013	31488.248586	3612.338020	14707.061072
91.535500	0.138576	0.073220	0.148243	0.198026	5695.849878	31355.075406	3604.102144	14622.847648
92.035500	0.139109	0.073706	0.141153	0.201151	5678.375591	31182.016094	3583.741284	14537.711651
92.536000	0.139567	0.073462	0.145411	0.206646	5644.713909	30809.154779	3581.308720	14389.475761
93.039500	0.141135	0.074297	0.149236	0.204371	5670.360848	31010.530054	3593.374488	14450.612019
93.537000	0.142393	0.076473	0.149809	0.207829	5655.651162	30927.344312	3587.645625	14357.794726
94.037000	0.140911	0.077078	0.151465	0.211423	5621.994272	30734.297137	3583.820330	14262.127680
94.537000	0.145633	0.078345	0.150283	0.212864	5643.704445	30723.112444	3578.668937	14223.991158
95.040500	0.144896	0.079253	0.155407	0.214917	5625.238036	30649.547407	3584.704033	14169.870332
95.572000	0.150149	0.080528	0.156354	0.218447	5636.624214	30505.159065	3579.623492	14077.392677
96.036000	0.149718	0.079479	0.149411	0.220332	5621.322663	30318.513742	3562.494173	14028.337671
96.560000	0.147164	0.080563	0.152935	0.228932	5548.755136	29846.082327	3552.800566	13807.163297
97.035000	0.152669	0.081847	0.164925	0.224814	5611.249811	30184.808234	3583.956990	13912.519642
97.536000	0.154907	0.082684	0.162502	0.227258	5609.899231	30083.580707	3574.420493	13849.874150
98.036500	0.155143	0.082034	0.162563	0.229731	5595.252442	29887.941270	3569.732822	13786.828522
98.562500	0.149110	0.083782	0.161588	0.237159	5508.700445	29535.692029	3553.606738	13599.617010
99.034000	0.157204	0.085981	0.168768	0.234756	5575.961999	29820.750932	3572.021960	13659.833826
