sample name	sample
index	353
start time	 03-01-2021  12:11:10 PM


Wavelength (nm)	Absorbance
494.344910	NaN
494.563924	NaN
494.782919	NaN
495.001897	NaN
495.220856	NaN
495.439797	1.581551
495.658719	1.241154
495.877624	0.731404
496.096510	0.470108
496.315378	0.349125
496.534227	0.195155
496.753059	0.135085
496.971872	0.134765
497.190667	0.058580
497.409444	0.049629
497.628203	0.049745
497.846943	0.050935
498.065665	0.049056
498.284369	0.049263
498.503055	0.051775
498.721723	0.053007
498.940372	0.053279
499.159003	0.053660
499.377616	0.054969
499.596210	0.055551
499.814787	0.055665
500.033345	0.056130
500.251885	0.057043
500.470406	0.056831
500.688910	0.056447
500.907395	0.056065
501.125862	0.055989
501.344311	0.055596
501.562742	0.055423
501.781154	0.055439
501.999548	0.055711
502.217924	0.055592
502.436282	0.054867
502.654621	0.054650
502.872942	0.054218
503.091245	0.054269
503.309530	0.053903
503.527797	0.053171
503.746045	0.051943
503.964275	0.052842
504.182487	0.052561
504.400681	0.053880
504.618856	0.054796
504.837013	0.054997
505.055152	0.054878
505.273273	0.055056
505.491376	0.055636
505.709460	0.056667
505.927526	0.056014
506.145574	0.056008
506.363604	0.055059
506.581615	0.053486
506.799608	0.054143
507.017583	0.053925
507.235540	0.055426
507.453478	0.054573
507.671399	0.055051
507.889301	0.054478
508.107185	0.054538
508.325050	0.054933
508.542898	0.055066
508.760727	0.054821
508.978538	0.055056
509.196330	0.054155
509.414105	0.054857
509.631861	0.054421
509.849599	0.055165
510.067319	0.055312
510.285021	0.055430
510.502704	0.056739
510.720369	0.056677
510.938016	0.056621
511.155645	0.057124
511.373255	0.057638
511.590848	0.057496
511.808422	0.057680
512.025977	0.057262
512.243515	0.056853
512.461034	0.057203
512.678536	0.057685
512.896018	0.058337
513.113483	0.059216
513.330930	0.059161
513.548358	0.059633
513.765768	0.058856
513.983160	0.059169
514.200533	0.059436
514.417889	0.058564
514.635226	0.058083
514.852545	0.057726
515.069845	0.056366
515.287128	0.057258
515.504392	0.056460
515.721638	0.056892
515.938866	0.057920
516.156075	0.058269
516.373267	0.057891
516.590440	0.057940
516.807594	0.057556
517.024731	0.057644
517.241850	0.056933
517.458950	0.058061
517.676032	0.058409
517.893095	0.057732
518.110141	0.057764
518.327168	0.058730
518.544177	0.059199
518.761168	0.059979
518.978141	0.060405
519.195095	0.061007
519.412031	0.060460
519.628949	0.060809
519.845849	0.060996
520.062731	0.060763
520.279594	0.060879
520.496439	0.061208
520.713266	0.061490
520.930074	0.062028
521.146865	0.061681
521.363637	0.061735
521.580391	0.062215
521.797127	0.062468
522.013844	0.062633
522.230543	0.062656
522.447224	0.062865
522.663887	0.063200
522.880532	0.063381
523.097158	0.063222
523.313766	0.063989
523.530356	0.063945
523.746928	0.064140
523.963481	0.064911
524.180017	0.065031
524.396534	0.065335
524.613032	0.065387
524.829513	0.065333
525.045975	0.065743
525.262420	0.066202
525.478845	0.066035
525.695253	0.066099
525.911643	0.066273
526.128014	0.066392
526.344367	0.066449
526.560702	0.066643
526.777018	0.066679
526.993316	0.066860
527.209597	0.066821
527.425858	0.067567
527.642102	0.067507
527.858328	0.067741
528.074535	0.068285
528.290724	0.068338
528.506894	0.068234
528.723047	0.067880
528.939181	0.067888
529.155297	0.067923
529.371395	0.067687
529.587475	0.068112
529.803536	0.068514
530.019579	0.068638
530.235604	0.068908
530.451611	0.069567
530.667600	0.070569
530.883570	0.071485
531.099522	0.071849
531.315456	0.071689
531.531372	0.072364
531.747269	0.072389
531.963148	0.072676
532.179009	0.072992
532.394852	0.072975
532.610676	0.073158
532.826482	0.072654
533.042271	0.072770
533.258040	0.072810
533.473792	0.072877
533.689525	0.073344
533.905240	0.073605
534.120937	0.073407
534.336616	0.073649
534.552277	0.073554
534.767919	0.073902
534.983543	0.073830
535.199149	0.074533
535.414736	0.074790
535.630306	0.074481
535.845857	0.074394
536.061390	0.074722
536.276904	0.074997
536.492401	0.075257
536.707879	0.075115
536.923339	0.075288
537.138781	0.075862
537.354204	0.075950
537.569610	0.076372
537.784997	0.076799
538.000366	0.077207
538.215716	0.076949
538.431049	0.076890
538.646363	0.077592
538.861659	0.078260
539.076937	0.078159
539.292196	0.077806
539.507438	0.077849
539.722661	0.078190
539.937866	0.078575
540.153052	0.079253
540.368221	0.079900
540.583371	0.080069
540.798503	0.080584
541.013617	0.080920
541.228712	0.081725
541.443789	0.081755
541.658848	0.081586
541.873889	0.081116
542.088912	0.080896
542.303916	0.081266
542.518902	0.081418
542.733870	0.081360
542.948820	0.081562
543.163752	0.081592
543.378665	0.082400
543.593560	0.082545
543.808437	0.083103
544.023295	0.083560
544.238136	0.083490
544.452958	0.083459
544.667762	0.083524
544.882548	0.083439
545.097315	0.083454
545.312064	0.083371
545.526795	0.083736
545.741508	0.084337
545.956203	0.084624
546.170879	0.084749
546.385537	0.085452
546.600177	0.085825
546.814799	0.085895
547.029402	0.086153
547.243988	0.086026
547.458555	0.086073
547.673103	0.085958
547.887634	0.085989
548.102146	0.085866
548.316640	0.085702
548.531116	0.085578
548.745574	0.086231
548.960013	0.086173
549.174435	0.086306
549.388838	0.086319
549.603222	0.086014
549.817589	0.086033
550.031937	0.086483
550.246267	0.086591
550.460579	0.086671
550.674873	0.086546
550.889148	0.086956
551.103405	0.087189
551.317644	0.087102
551.531865	0.087617
551.746068	0.087700
551.960252	0.087881
552.174418	0.087932
552.388566	0.088085
552.602696	0.087943
552.816807	0.088520
553.030900	0.088729
553.244975	0.089609
553.459032	0.089622
553.673070	0.090075
553.887091	0.090148
554.101093	0.090407
554.315077	0.090725
554.529042	0.090871
554.742990	0.090336
554.956919	0.090240
555.170830	0.089943
555.384722	0.090242
555.598597	0.089894
555.812453	0.090111
556.026291	0.090236
556.240111	0.090182
556.453913	0.090042
556.667696	0.090161
556.881461	0.089874
557.095208	0.090127
557.308937	0.090084
557.522647	0.090332
557.736339	0.090208
557.950013	0.090152
558.163669	0.090323
558.377307	0.090670
558.590926	0.091158
558.804527	0.091802
559.018110	0.091429
559.231675	0.091348
559.445221	0.091514
559.658749	0.091619
559.872259	0.091689
560.085751	0.091833
560.299225	0.092114
560.512680	0.091816
560.726117	0.091900
560.939536	0.092122
561.152937	0.092315
561.366319	0.092325
561.579683	0.092620
561.793029	0.092673
562.006357	0.092540
562.219667	0.092424
562.432958	0.092922
562.646231	0.093055
562.859486	0.093521
563.072723	0.093526
563.285941	0.093618
563.499141	0.093585
563.712323	0.093823
563.925487	0.094232
564.138632	0.094284
564.351760	0.093993
564.564869	0.093738
564.777960	0.093656
564.991032	0.093542
565.204087	0.093807
565.417123	0.093776
565.630141	0.093722
565.843140	0.093445
566.056122	0.093756
566.269085	0.093769
566.482030	0.094045
566.694957	0.094147
566.907866	0.094321
567.120756	0.094153
567.333628	0.094559
567.546482	0.094837
567.759318	0.095034
567.972135	0.095084
568.184935	0.095556
568.397716	0.095752
568.610478	0.095796
568.823223	0.096164
569.035949	0.096541
569.248657	0.096385
569.461347	0.096500
569.674019	0.096504
569.886672	0.096483
570.099308	0.096238
570.311925	0.096406
570.524523	0.096832
570.737104	0.097020
570.949666	0.096834
571.162210	0.097036
571.374736	0.097248
571.587244	0.097403
571.799733	0.097435
572.012205	0.097704
572.224658	0.097653
572.437092	0.097396
572.649509	0.097504
572.861907	0.097581
573.074287	0.097582
573.286649	0.097401
573.498993	0.097654
573.711318	0.097977
573.923625	0.098035
574.135914	0.097883
574.348185	0.097834
574.560438	0.097825
574.772672	0.098070
574.984888	0.098244
575.197086	0.098189
575.409266	0.098300
575.621427	0.098315
575.833570	0.098338
576.045695	0.098692
576.257802	0.098792
576.469890	0.098815
576.681961	0.099115
576.894013	0.099266
577.106046	0.099615
577.318062	0.099428
577.530059	0.099433
577.742039	0.099268
577.954000	0.099363
578.165942	0.099871
578.377867	0.100148
578.589773	0.100077
578.801661	0.100281
579.013531	0.100550
579.225382	0.100950
579.437216	0.101353
579.649031	0.101884
579.860828	0.102017
580.072606	0.101943
580.284367	0.101939
580.496109	0.102306
580.707833	0.102123
580.919539	0.102034
581.131227	0.102087
581.342896	0.102122
581.554547	0.102105
581.766180	0.102233
581.977795	0.102252
582.189391	0.102592
582.400969	0.102471
582.612529	0.102705
582.824071	0.103117
583.035595	0.103114
583.247100	0.103052
583.458587	0.103233
583.670056	0.103421
583.881506	0.103413
584.092939	0.103196
584.304353	0.103312
584.515749	0.103348
584.727127	0.103411
584.938486	0.103801
585.149828	0.103791
585.361151	0.103656
585.572456	0.103509
585.783742	0.103930
585.995011	0.104169
586.206261	0.104381
586.417493	0.104623
586.628706	0.104322
586.839902	0.104204
587.051079	0.104624
587.262238	0.104940
587.473379	0.104945
587.684502	0.104831
587.895606	0.104957
588.106692	0.104681
588.317760	0.104924
588.528810	0.105225
588.739841	0.105239
588.950855	0.105449
589.161850	0.105543
589.372827	0.105844
589.583785	0.106016
589.794726	0.106097
590.005648	0.106472
590.216552	0.106434
590.427437	0.106459
590.638305	0.106564
590.849154	0.106871
591.059985	0.106894
591.270798	0.107060
591.481592	0.106952
591.692369	0.107239
591.903127	0.107302
592.113867	0.107157
592.324588	0.107659
592.535292	0.107997
592.745977	0.107934
592.956644	0.108245
593.167293	0.108248
593.377923	0.108631
593.588536	0.108422
593.799130	0.108821
594.009706	0.109226
594.220263	0.109043
594.430803	0.108984
594.641324	0.108763
594.851827	0.109099
595.062312	0.109218
595.272778	0.109393
595.483227	0.109664
595.693657	0.109559
595.904069	0.109791
596.114462	0.110110
596.324838	0.110295
596.535195	0.110500
596.745534	0.110185
596.955855	0.110408
597.166157	0.110649
597.376441	0.110751
597.586707	0.110817
597.796955	0.110843
598.007185	0.110721
598.217396	0.110869
598.427589	0.110898
598.637764	0.111321
598.847921	0.111596
599.058060	0.111647
599.268180	0.112080
599.478282	0.111941
599.688366	0.112014
599.898431	0.111993
600.108479	0.112172
600.318508	0.112207
600.528519	0.111945
600.738511	0.111980
600.948486	0.112018
601.158442	0.111862
601.368380	0.112301
601.578300	0.112152
601.788202	0.112433
601.998085	0.112528
602.207950	0.112842
602.417797	0.113128
602.627626	0.113126
602.837436	0.113181
603.047228	0.113462
603.257002	0.113505
603.466758	0.113887
603.676496	0.114178
603.886215	0.114193
604.095916	0.114464
604.305599	0.114472
604.515264	0.114520
604.724910	0.114791
604.934538	0.114971
605.144148	0.115065
605.353740	0.114805
605.563314	0.114767
605.772869	0.114938
605.982406	0.114632
606.191925	0.114762
606.401425	0.114821
606.610908	0.114663
606.820372	0.114600
607.029818	0.114751
607.239246	0.115255
607.448655	0.115263
607.658047	0.115060
607.867420	0.115387
608.076775	0.115645
608.286111	0.115877
608.495430	0.116034
608.704730	0.116165
608.914012	0.116198
609.123275	0.116209
609.332521	0.116242
609.541748	0.116628
609.750957	0.116644
609.960148	0.116755
610.169321	0.116791
610.378475	0.116995
610.587611	0.117143
610.796729	0.117313
611.005829	0.117330
611.214910	0.117505
611.423974	0.117654
611.633019	0.117711
611.842045	0.117757
612.051054	0.117636
612.260044	0.117657
612.469017	0.117500
612.677970	0.117663
612.886906	0.117767
613.095824	0.117766
613.304723	0.117852
613.513604	0.118176
613.722467	0.117893
613.931311	0.118232
614.140138	0.118312
614.348946	0.118493
614.557736	0.118740
614.766507	0.118803
614.975261	0.119012
615.183996	0.118883
615.392713	0.118564
615.601412	0.119110
615.810092	0.119361
616.018754	0.119366
616.227399	0.119457
616.436024	0.119439
616.644632	0.119504
616.853222	0.119555
617.061793	0.119672
617.270346	0.120168
617.478880	0.120180
617.687397	0.120142
617.895895	0.120304
618.104375	0.120443
618.312837	0.120578
618.521281	0.120726
618.729706	0.120941
618.938113	0.121152
619.146502	0.121196
619.354873	0.121141
619.563226	0.121242
619.771560	0.121180
619.979876	0.121174
620.188174	0.120866
620.396453	0.121016
620.604715	0.121129
620.812958	0.121216
621.021183	0.121243
621.229390	0.121429
621.437578	0.121624
621.645748	0.121947
621.853900	0.122050
622.062034	0.122522
622.270150	0.122601
622.478247	0.122598
622.686326	0.122853
622.894387	0.122730
623.102430	0.122839
623.310454	0.122683
623.518461	0.122835
623.726449	0.122894
623.934418	0.122678
624.142370	0.122794
624.350303	0.122793
624.558218	0.122621
624.766115	0.122842
624.973994	0.122820
625.181855	0.122822
625.389697	0.122650
625.597521	0.122877
625.805327	0.123024
626.013114	0.122874
626.220883	0.122881
626.428634	0.122970
626.636367	0.123267
626.844082	0.123331
627.051778	0.123673
627.259457	0.123889
627.467117	0.123943
627.674758	0.124017
627.882382	0.124313
628.089987	0.124663
628.297574	0.124868
628.505143	0.124621
628.712694	0.124703
628.920226	0.124800
629.127740	0.125048
629.335236	0.124940
629.542714	0.125064
629.750174	0.124913
629.957615	0.124865
630.165038	0.124770
630.372443	0.124901
630.579829	0.125155
630.787198	0.125080
630.994548	0.124874
631.201880	0.125142
631.409194	0.125132
631.616489	0.125376
631.823766	0.125288
632.031025	0.125370
632.238266	0.125563
632.445489	0.125580
632.652693	0.125837
632.859879	0.125944
633.067047	0.125983
633.274197	0.126169
633.481329	0.126232
633.688442	0.126556
633.895537	0.126981
634.102614	0.127100
634.309672	0.127254
634.516713	0.127265
634.723735	0.127504
634.930739	0.127809
635.137724	0.128019
635.344692	0.128104
635.551641	0.128111
635.758572	0.128150
635.965485	0.128301
636.172379	0.128470
636.379256	0.128428
636.586114	0.128456
636.792954	0.128299
636.999775	0.128343
637.206579	0.128559
637.413364	0.128835
637.620131	0.128833
637.826880	0.128938
638.033610	0.128929
638.240323	0.129220
638.447017	0.129598
638.653692	0.129805
638.860350	0.129871
639.066990	0.130043
639.273611	0.130127
639.480214	0.130299
639.686798	0.130274
639.893365	0.130553
640.099913	0.130686
640.306443	0.130677
640.512955	0.130789
640.719449	0.130932
640.925924	0.130998
641.132381	0.131255
641.338820	0.131177
641.545241	0.131456
641.751644	0.131435
641.958028	0.131726
642.164394	0.131688
642.370742	0.131626
642.577071	0.131865
642.783383	0.131872
642.989676	0.131770
643.195951	0.131902
643.402207	0.132068
643.608446	0.132011
643.814666	0.132015
644.020868	0.132423
644.227052	0.132615
644.433218	0.132491
644.639365	0.132803
644.845494	0.132916
645.051605	0.133135
645.257698	0.133123
645.463772	0.133525
645.669828	0.133533
645.875866	0.133560
646.081886	0.133755
646.287888	0.134003
646.493871	0.134079
646.699836	0.134317
646.905783	0.134472
647.111712	0.134434
647.317622	0.134489
647.523514	0.134662
647.729388	0.134712
647.935244	0.134891
648.141082	0.135217
648.346901	0.135255
648.552702	0.135353
648.758485	0.135476
648.964250	0.135785
649.169996	0.135782
649.375724	0.135927
649.581434	0.136171
649.787126	0.136171
649.992800	0.136014
650.198455	0.136071
650.404092	0.135990
650.609711	0.136018
650.815311	0.136089
651.020894	0.136329
651.226458	0.136402
651.432004	0.136359
651.637532	0.136541
651.843041	0.136594
652.048532	0.136764
652.254006	0.136879
652.459460	0.137128
652.664897	0.137288
652.870315	0.137299
653.075716	0.137506
653.281097	0.137573
653.486461	0.137690
653.691807	0.137959
653.897134	0.138175
654.102443	0.138354
654.307734	0.138464
654.513006	0.138543
654.718261	0.138523
654.923497	0.138417
655.128715	0.138526
655.333915	0.138830
655.539096	0.138870
655.744259	0.139079
655.949404	0.139328
656.154531	0.139336
656.359640	0.139394
656.564730	0.139817
656.769802	0.139999
656.974856	0.140194
657.179892	0.140395
657.384909	0.140745
657.589908	0.140644
657.794889	0.140812
657.999852	0.141178
658.204797	0.141641
658.409723	0.141822
658.614631	0.142509
658.819521	0.142661
659.024393	0.142520
659.229246	0.142660
659.434081	0.142795
659.638898	0.142866
659.843697	0.142824
660.048478	0.142789
660.253240	0.142896
660.457984	0.142380
660.662710	0.142464
660.867417	0.142858
661.072107	0.142634
661.276778	0.142986
661.481431	0.143060
661.686066	0.143393
661.890682	0.143503
662.095281	0.143478
662.299861	0.143713
662.504422	0.144025
662.708966	0.144185
662.913491	0.144587
663.117999	0.144601
663.322488	0.144699
663.526958	0.144739
663.731411	0.144842
663.935845	0.145124
664.140261	0.145318
664.344659	0.145224
664.549038	0.145255
664.753400	0.145424
664.957743	0.145633
665.162068	0.145910
665.366375	0.145769
665.570663	0.146013
665.774933	0.146077
665.979185	0.146357
666.183419	0.146519
666.387635	0.146605
666.591832	0.146655
666.796011	0.146762
667.000172	0.146644
667.204315	0.147014
667.408439	0.147224
667.612545	0.147366
667.816634	0.147398
668.020703	0.147529
668.224755	0.147765
668.428788	0.147802
668.632803	0.147846
668.836800	0.148212
669.040779	0.148334
669.244739	0.148266
669.448681	0.148241
669.652605	0.148430
669.856511	0.148790
670.060399	0.148636
670.264268	0.148783
670.468119	0.149033
670.671952	0.149215
670.875767	0.149421
671.079563	0.149542
671.283341	0.149975
671.487101	0.150033
671.690843	0.150017
671.894567	0.150274
672.098272	0.150507
672.301959	0.150519
672.505628	0.150621
672.709278	0.150638
672.912911	0.150762
673.116525	0.150696
673.320121	0.150730
673.523699	0.150739
673.727258	0.150804
673.930799	0.150987
674.134322	0.151280
674.337827	0.151334
674.541314	0.151440
674.744782	0.151688
674.948232	0.151754
675.151664	0.152023
675.355078	0.152339
675.558474	0.152587
675.761851	0.152828
675.965210	0.152884
676.168551	0.153150
676.371873	0.153398
676.575178	0.153651
676.778464	0.153810
676.981732	0.154105
677.184981	0.154097
677.388213	0.154417
677.591426	0.154255
677.794621	0.154348
677.997798	0.154249
678.200956	0.154327
678.404097	0.154343
678.607219	0.154594
678.810323	0.154594
679.013408	0.154935
679.216476	0.154887
679.419525	0.155185
679.622556	0.155356
679.825569	0.155594
680.028563	0.155657
680.231540	0.155736
680.434498	0.155959
680.637438	0.156092
680.840359	0.156164
681.043263	0.156393
681.246148	0.156465
681.449015	0.156453
681.651864	0.156548
681.854694	0.156808
682.057506	0.156870
682.260301	0.156924
682.463076	0.157109
682.665834	0.157260
682.868573	0.157258
683.071295	0.157520
683.273998	0.157894
683.476682	0.157904
683.679349	0.158017
683.881997	0.158164
684.084627	0.158350
684.287239	0.158295
684.489833	0.158382
684.692408	0.158488
684.894965	0.158466
685.097504	0.158462
685.300025	0.158748
685.502527	0.158781
685.705012	0.158858
685.907478	0.158942
686.109925	0.159149
686.312355	0.159213
686.514766	0.159427
686.717159	0.159426
686.919534	0.159333
687.121891	0.159451
687.324230	0.159699
687.526550	0.159987
687.728852	0.159996
687.931136	0.160213
688.133401	0.160463
688.335649	0.160523
688.537878	0.160781
688.740089	0.161163
688.942281	0.161293
689.144456	0.161092
689.346612	0.161117
689.548750	0.161161
689.750870	0.161376
689.952971	0.161144
690.155055	0.161314
690.357120	0.161410
690.559167	0.161651
690.761195	0.161695
690.963206	0.161949
691.165198	0.161928
691.367172	0.162151
691.569128	0.161843
691.771065	0.162232
691.972984	0.161975
692.174885	0.161981
692.376768	0.161927
692.578633	0.162093
692.780479	0.162110
692.982308	0.162265
693.184118	0.162483
693.385909	0.162530
693.587683	0.162345
693.789438	0.162586
693.991175	0.162778
694.192894	0.162757
694.394595	0.162788
694.596277	0.162793
694.797941	0.162834
694.999587	0.162780
695.201215	0.163046
695.402824	0.163367
695.604416	0.163594
695.805989	0.163678
696.007543	0.163774
696.209080	0.163914
696.410598	0.164240
696.612099	0.164401
696.813580	0.164443
697.015044	0.164388
697.216490	0.164144
697.417917	0.164181
697.619326	0.164273
697.820717	0.164283
698.022089	0.164375
698.223444	0.164541
698.424780	0.164740
698.626098	0.164853
698.827397	0.165146
699.028679	0.165657
699.229942	0.165638
699.431187	0.165451
699.632414	0.165571
699.833622	0.165579
700.034813	0.165533
700.235985	0.165600
700.437139	0.165763
700.638274	0.165758
700.839392	0.165876
701.040491	0.166137
701.241572	0.166423
701.442635	0.166563
701.643679	0.166636
701.844706	0.166728
702.045714	0.166755
702.246704	0.166741
702.447675	0.166841
702.648629	0.166522
702.849564	0.166363
703.050481	0.166411
703.251380	0.166371
703.452260	0.166585
703.653122	0.166475
703.853966	0.166484
704.054792	0.166307
704.255600	0.166223
704.456389	0.166285
704.657160	0.166461
704.857913	0.166538
705.058648	0.166758
705.259365	0.166666
705.460063	0.166399
705.660743	0.166358
705.861405	0.166499
706.062048	0.166459
706.262674	0.166515
706.463281	0.166357
706.663870	0.166207
706.864441	0.166044
707.064993	0.165793
707.265527	0.166166
707.466043	0.166233
707.666541	0.166295
707.867021	0.166640
708.067482	0.166847
708.267925	0.167221
708.468350	0.167592
708.668757	0.167841
708.869145	0.168295
709.069516	0.168516
709.269868	0.168674
709.470201	0.168656
709.670517	0.168441
709.870814	0.168495
710.071093	0.168255
710.271354	0.168043
710.471597	0.168077
710.671821	0.167981
710.872028	0.167592
711.072216	0.167352
711.272385	0.167353
711.472537	0.167523
711.672670	0.167257
711.872785	0.167183
712.072882	0.167329
712.272961	0.167038
712.473021	0.166926
712.673063	0.167095
712.873087	0.167263
713.073093	0.167374
713.273081	0.167271
713.473050	0.167558
713.673001	0.167688
713.872934	0.167479
714.072849	0.167635
714.272745	0.167805
714.472623	0.167733
714.672483	0.167702
714.872325	0.167728
715.072148	0.167816
715.271954	0.167653
715.471741	0.167660
715.671509	0.167642
715.871260	0.167614
716.070992	0.167399
716.270707	0.167454
716.470403	0.167290
716.670080	0.167148
716.869740	0.166978
717.069381	0.166819
717.269004	0.166757
717.468609	0.166635
717.668195	0.166439
717.867764	0.166333
718.067314	0.166314
718.266846	0.166510
718.466360	0.166369
718.665855	0.166461
718.865332	0.166634
719.064791	0.166510
719.264232	0.166500
719.463655	0.166554
719.663059	0.166673
719.862445	0.166563
720.061813	0.166201
720.261163	0.166278
720.460494	0.166054
720.659807	0.165795
720.859102	0.165826
721.058379	0.165746
721.257638	0.165562
721.456878	0.165394
721.656100	0.165528
721.855304	0.165570
722.054490	0.165538
722.253657	0.165488
722.452806	0.165573
722.651937	0.165532
722.851050	0.165715
723.050145	0.165789
723.249221	0.165712
723.448279	0.165368
723.647319	0.165484
723.846340	0.165362
724.045344	0.165209
724.244329	0.165031
724.443296	0.164849
724.642245	0.164721
724.841175	0.164471
725.040088	0.164369
725.238982	0.164272
725.437857	0.163980
725.636715	0.163865
725.835554	0.164003
726.034376	0.163984
726.233179	0.163946
726.431963	0.163656
726.630730	0.163700
726.829478	0.163741
727.028208	0.163933
727.226920	0.163955
727.425614	0.163828
727.624289	0.163582
727.822946	0.163374
728.021585	0.163078
728.220206	0.163106
728.418808	0.162926
728.617392	0.162834
728.815958	0.162356
729.014506	0.162096
729.213036	0.162021
729.411547	0.161986
729.610040	0.161894
729.808515	0.161854
730.006972	0.161775
730.205410	0.161779
730.403831	0.161474
730.602233	0.161539
730.800616	0.161451
730.998982	0.161414
731.197329	0.161232
731.395658	0.161207
731.593969	0.161176
731.792262	0.161093
731.990536	0.160884
732.188793	0.160851
732.387031	0.160787
732.585250	0.160802
732.783452	0.160779
732.981635	0.160711
733.179800	0.160423
733.377947	0.160301
733.576076	0.160274
733.774186	0.160286
733.972278	0.160390
734.170352	0.160279
734.368408	0.160080
734.566446	0.159887
734.764465	0.159812
734.962466	0.159874
735.160449	0.159837
735.358413	0.159587
735.556360	0.159510
735.754288	0.159209
735.952198	0.159162
736.150090	0.159209
736.347963	0.159179
736.545818	0.159006
736.743655	0.158726
736.941474	0.158701
737.139275	0.158509
737.337057	0.158252
737.534821	0.158113
737.732567	0.157849
737.930295	0.157711
738.128005	0.157630
738.325696	0.157565
738.523369	0.157495
738.721024	0.157231
738.918660	0.157355
739.116279	0.157293
739.313879	0.157151
739.511461	0.157104
739.709024	0.157029
739.906570	0.156864
740.104097	0.156835
740.301606	0.156825
740.499097	0.156878
740.696569	0.156672
740.894024	0.156538
741.091460	0.156648
741.288878	0.156589
741.486277	0.156326
741.683659	0.156132
741.881022	0.155793
742.078367	0.155737
742.275694	0.155498
742.473002	0.155394
742.670293	0.155318
742.867565	0.155045
743.064819	0.154944
743.262054	0.154787
743.459272	0.154744
743.656471	0.154869
743.853652	0.154775
744.050815	0.154616
744.247959	0.154200
744.445085	0.154160
744.642194	0.154063
744.839283	0.153907
745.036355	0.153805
745.233408	0.153548
745.430444	0.153341
745.627461	0.153223
745.824459	0.152832
746.021440	0.153008
746.218402	0.152888
746.415346	0.152710
746.612272	0.152623
746.809180	0.152512
747.006069	0.152359
747.202940	0.152192
747.399793	0.151959
747.596628	0.152166
747.793444	0.152014
747.990243	0.151891
748.187023	0.151813
748.383784	0.151641
748.580528	0.151483
748.777253	0.151318
748.973960	0.151083
749.170649	0.150672
749.367320	0.150244
749.563973	0.150134
749.760607	0.149875
749.957223	0.149794
750.153821	0.149599
750.350400	0.149482
750.546962	0.149469
750.743505	0.149380
750.940030	0.149445
751.136536	0.149467
751.333025	0.149067
751.529495	0.148766
751.725947	0.148703
751.922381	0.148501
752.118796	0.148194
752.315194	0.148027
752.511573	0.147975
752.707934	0.147859
752.904276	0.147593
753.100601	0.147838
753.296907	0.147749
753.493195	0.147421
753.689465	0.147541
753.885716	0.147660
754.081949	0.147749
754.278164	0.147743
754.474361	0.147670
754.670540	0.147761
754.866700	0.147738
755.062843	0.147877
755.258967	0.147973
755.455072	0.147759
755.651160	0.147747
755.847229	0.147338
756.043280	0.147160
756.239313	0.147089
756.435328	0.147132
756.631324	0.146789
756.827302	0.146600
757.023262	0.146458
757.219204	0.146332
757.415127	0.146318
757.611033	0.146174
757.806920	0.145950
758.002788	0.146020
758.198639	0.145732
758.394471	0.145706
758.590286	0.145669
758.786081	0.145540
758.981859	0.145519
759.177619	0.145186
759.373360	0.145414
759.569083	0.145391
759.764788	0.145356
759.960474	0.145373
760.156143	0.145245
760.351793	0.145346
760.547425	0.145283
760.743038	0.145319
760.938634	0.145383
761.134211	0.145160
761.329770	0.145122
761.525311	0.144846
761.720833	0.144657
761.916338	0.144421
762.111824	0.144293
762.307292	0.144191
762.502741	0.144123
762.698173	0.143835
762.893586	0.143693
763.088981	0.143408
763.284358	0.143311
763.479716	0.143192
763.675057	0.143212
763.870379	0.142741
764.065683	0.142615
764.260968	0.142327
764.456236	0.142379
764.651485	0.142394
764.846716	0.142480
765.041929	0.142538
765.237123	0.142435
765.432299	0.142354
765.627457	0.142604
765.822597	0.142570
766.017719	0.142597
766.212822	0.142632
766.407907	0.142636
766.602974	0.142512
766.798023	0.142440
766.993054	0.142783
767.188066	0.142940
767.383060	0.142963
767.578036	0.142893
767.772993	0.142993
767.967933	0.143005
768.162854	0.143066
768.357757	0.143252
768.552642	0.143196
768.747508	0.143124
768.942356	0.143046
769.137186	0.142768
769.331998	0.142817
769.526792	0.142757
769.721567	0.142587
769.916324	0.142135
770.111063	0.142101
770.305784	0.141832
770.500486	0.141706
770.695171	0.141526
770.889837	0.141570
771.084484	0.141385
771.279114	0.141188
771.473725	0.141015
771.668318	0.141169
771.862893	0.141085
772.057450	0.141346
772.251988	0.141314
772.446509	0.141233
772.641011	0.140920
772.835494	0.140820
773.029960	0.140855
773.224407	0.141013
773.418836	0.141022
773.613247	0.141079
773.807640	0.140945
774.002014	0.140833
774.196370	0.140875
774.390708	0.141139
774.585028	0.141038
774.779330	0.141062
774.973613	0.141110
775.167878	0.140922
775.362125	0.140755
775.556354	0.140745
775.750564	0.140602
775.944756	0.140695
776.138930	0.140677
776.333086	0.140611
776.527223	0.140361
776.721343	0.140336
776.915444	0.140388
777.109526	0.140187
777.303591	0.140202
777.497637	0.140066
777.691666	0.140047
777.885676	0.139954
778.079667	0.140124
778.273641	0.139990
778.467596	0.139594
778.661533	0.139591
778.855452	0.139765
779.049352	0.139763
779.243235	0.140055
779.437099	0.139827
779.630945	0.139902
779.824773	0.140025
780.018582	0.140240
780.212373	0.140535
780.406146	0.140590
780.599901	0.140482
780.793638	0.140579
780.987356	0.140460
781.181056	0.140767
781.374738	0.140696
781.568402	0.140707
781.762047	0.140601
781.955674	0.140735
782.149283	0.140665
782.342874	0.140818
782.536447	0.140695
782.730001	0.140780
782.923537	0.140573
783.117055	0.140768
783.310555	0.140663
783.504036	0.140822
783.697499	0.140714
783.890944	0.140927
784.084371	0.141036
784.277780	0.141066
784.471170	0.141028
784.664542	0.141116
784.857896	0.140982
785.051231	0.141224
785.244549	0.141445
785.437848	0.141461
785.631129	0.141583
785.824392	0.141721
786.017636	0.141721
786.210863	0.141973
786.404071	0.142076
786.597260	0.142183
786.790432	0.142119
786.983585	0.142210
787.176721	0.142329
787.369838	0.142420
787.562936	0.142404
787.756017	0.142572
787.949079	0.142596
788.142123	0.142809
788.335149	0.142888
788.528156	0.143066
788.721146	0.142917
788.914117	0.142901
789.107070	0.142921
789.300005	0.143109
789.492921	0.143372
789.685819	0.143188
789.878699	0.143073
790.071561	0.143298
790.264405	0.143175
790.457230	0.143562
790.650037	0.143882
790.842826	0.143900
791.035597	0.143821
791.228349	0.143852
791.421084	0.144321
791.613800	0.144623
791.806497	0.144753
791.999177	0.145268
792.191838	0.145269
792.384481	0.145282
792.577106	0.145425
792.769713	0.145598
792.962301	0.145687
793.154871	0.145763
793.347423	0.145845
793.539957	0.145788
793.732473	0.145590
793.924970	0.145620
794.117449	0.145591
794.309910	0.145761
794.502353	0.145882
794.694777	0.146035
794.887183	0.145973
795.079571	0.146243
795.271941	0.146598
795.464293	0.146940
795.656626	0.147283
795.848941	0.147689
796.041238	0.147816
796.233516	0.147875
796.425777	0.148246
796.618019	0.148506
796.810243	0.148399
797.002449	0.148533
797.194636	0.148826
797.386805	0.148944
797.578956	0.148858
797.771089	0.149046
797.963204	0.149218
798.155300	0.149101
798.347378	0.149153
798.539438	0.149261
798.731480	0.149274
798.923503	0.149350
799.115509	0.149446
799.307496	0.149491
799.499465	0.149374
799.691415	0.149347
799.883348	0.149307
800.075262	0.149510
800.267158	0.149925
800.459035	0.150016
800.650895	0.150112
800.842736	0.150315
801.034559	0.150825
801.226364	0.151273
801.418150	0.151748
801.609919	0.152093
801.801669	0.152200
801.993401	0.152258
802.185114	0.152703
802.376810	0.152762
802.568487	0.152922
802.760146	0.152787
802.951787	0.152824
803.143409	0.152854
803.335014	0.152838
803.526600	0.152872
803.718168	0.152766
803.909717	0.152760
804.101249	0.152807
804.292762	0.152925
804.484257	0.153259
804.675734	0.153327
804.867192	0.153306
805.058632	0.153606
805.250054	0.153899
805.441458	0.154201
805.632844	0.154203
805.824211	0.154335
806.015561	0.154431
806.206891	0.154451
806.398204	0.154779
806.589499	0.155185
806.780775	0.155579
806.972033	0.155774
807.163273	0.156084
807.354495	0.156411
807.545698	0.156836
807.736883	0.156956
807.928050	0.157380
808.119199	0.157653
808.310329	0.158116
808.501441	0.158056
808.692535	0.158303
808.883611	0.158545
809.074669	0.158820
809.265708	0.158810
809.456729	0.159025
809.647732	0.159058
809.838717	0.159298
810.029683	0.159456
810.220632	0.159679
810.411562	0.160099
810.602474	0.160120
810.793367	0.160460
810.984242	0.160630
811.175100	0.160876
811.365938	0.161094
811.556759	0.161261
811.747562	0.161189
811.938346	0.161752
812.129112	0.161893
812.319860	0.162219
812.510589	0.162307
812.701300	0.162826
812.891994	0.163117
813.082668	0.163601
813.273325	0.163740
813.463964	0.164126
813.654584	0.164029
813.845186	0.164374
814.035769	0.164530
814.226335	0.164844
814.416882	0.164908
814.607411	0.165084
814.797922	0.165168
814.988415	0.165711
815.178889	0.165933
815.369345	0.165958
815.559783	0.166235
815.750203	0.166609
815.940605	0.166950
816.130988	0.167062
816.321353	0.167249
816.511700	0.167525
816.702028	0.167363
816.892339	0.167466
817.082631	0.167843
817.272905	0.167819
817.463161	0.167804
817.653398	0.167777
817.843617	0.168214
818.033819	0.168256
818.224001	0.168482
818.414166	0.168804
818.604312	0.169081
818.794440	0.169494
818.984550	0.169762
819.174642	0.170265
819.364716	0.170514
819.554771	0.170765
819.744808	0.171252
819.934827	0.171496
820.124827	0.171923
820.314810	0.171963
820.504774	0.171946
820.694720	0.172276
820.884647	0.172498
821.074557	0.172703
821.264448	0.172690
821.454321	0.173147
821.644176	0.173343
821.834012	0.173596
822.023831	0.174060
822.213631	0.174482
822.403413	0.174601
822.593176	0.174749
822.782922	0.175328
822.972649	0.175937
823.162358	0.176027
823.352049	0.176277
823.541721	0.176502
823.731376	0.176747
823.921012	0.177099
824.110629	0.177319
824.300229	0.177750
824.489811	0.177856
824.679374	0.177981
824.868919	0.178227
825.058445	0.178537
825.247954	0.178589
825.437444	0.178856
825.626916	0.179102
825.816370	0.179445
826.005806	0.179837
826.195223	0.180052
826.384622	0.180219
826.574003	0.180455
826.763366	0.180696
826.952711	0.181176
827.142037	0.181496
827.331345	0.181794
827.520635	0.182054
827.709906	0.182103
827.899160	0.182277
828.088395	0.182598
828.277612	0.183054
828.466810	0.183311
828.655991	0.183534
828.845153	0.183844
829.034297	0.184086
829.223423	0.184312
829.412531	0.184759
829.601620	0.185530
829.790691	0.186133
829.979744	0.186418
830.168779	0.186657
830.357795	0.186951
830.546793	0.187448
830.735773	0.187718
830.924735	0.188216
831.113679	0.188344
831.302604	0.188423
831.491511	0.188574
831.680400	0.188874
831.869271	0.189193
832.058123	0.189558
832.246957	0.189646
832.435773	0.190047
832.624571	0.190260
832.813351	0.190481
833.002112	0.190427
833.190855	0.190759
833.379580	0.191290
833.568287	0.191660
833.756975	0.191806
833.945645	0.191982
834.134297	0.192126
834.322931	0.192343
834.511547	0.192788
834.700144	0.193378
834.888723	0.193677
835.077284	0.193636
835.265826	0.193901
835.454351	0.194434
835.642857	0.194901
835.831345	0.195356
836.019815	0.195783
836.208266	0.195995
836.396699	0.196163
836.585114	0.196435
836.773511	0.196766
836.961890	0.197360
837.150250	0.197588
837.338592	0.197997
837.526916	0.198279
837.715222	0.198643
837.903510	0.199035
838.091779	0.199439
838.280030	0.199861
838.468263	0.200444
838.656477	0.200792
838.844674	0.200969
839.032852	0.200903
839.221012	0.201246
839.409153	0.201590
839.597277	0.202008
839.785382	0.202160
839.973469	0.202559
840.161538	0.202761
840.349589	0.202829
840.537621	0.203333
840.725635	0.203818
840.913631	0.203807
841.101609	0.204228
841.289568	0.204662
841.477509	0.205156
841.665432	0.205299
841.853337	0.205514
842.041224	0.205928
842.229092	0.206310
842.416942	0.206676
842.604774	0.207480
842.792588	0.207886
842.980383	0.207978
843.168160	0.208175
843.355919	0.208307
843.543660	0.208797
843.731382	0.209399
843.919087	0.209915
844.106773	0.210392
844.294441	0.210650
844.482090	0.210865
844.669722	0.211313
844.857335	0.211906
845.044930	0.212673
845.232507	0.212990
845.420065	0.213201
845.607605	0.213509
845.795127	0.213838
845.982631	0.214227
846.170117	0.214417
846.357584	0.214725
846.545033	0.214929
846.732464	0.215171
846.919877	0.215513
847.107272	0.215810
847.294648	0.215961
847.482006	0.216235
847.669346	0.216320
847.856667	0.216806
848.043971	0.217432
848.231256	0.217874
848.418523	0.218337
848.605771	0.218614
848.793002	0.218834
848.980214	0.219095
849.167408	0.219601
849.354584	0.220037
849.541742	0.220419
849.728881	0.220694
849.916002	0.221089
850.103105	0.221243
850.290190	0.221666
850.477256	0.221983
850.664304	0.222435
850.851334	0.222719
851.038346	0.223202
851.225340	0.223553
851.412315	0.223710
851.599272	0.224076
851.786211	0.224410
851.973132	0.224803
852.160034	0.225103
852.346918	0.225590
852.533784	0.225987
852.720632	0.226458
852.907462	0.226978
853.094273	0.227446
853.281066	0.227651
853.467841	0.227803
853.654598	0.228114
853.841336	0.228396
854.028056	0.228469
854.214758	0.228889
854.401442	0.229160
854.588107	0.229266
854.774755	0.229178
854.961384	0.229312
855.147995	0.229804
855.334587	0.229718
855.521162	0.230170
855.707718	0.230510
855.894256	0.230487
856.080775	0.230592
856.267277	0.230877
856.453760	0.231697
856.640225	0.232299
856.826672	0.232494
857.013101	0.233056
857.199511	0.233383
857.385903	0.233574
857.572277	0.233684
857.758633	0.233661
857.944970	0.233838
858.131290	0.233973
858.317591	0.234211
858.503873	0.234813
858.690138	0.235287
858.876384	0.235577
859.062612	0.236070
859.248822	0.236520
859.435014	0.237084
859.621188	0.237405
859.807343	0.237294
859.993480	0.237421
860.179599	0.237465
860.365699	0.237585
860.551781	0.237675
860.737846	0.237943
860.923891	0.238693
861.109919	0.239077
861.295929	0.239426
861.481920	0.240143
861.667893	0.240530
861.853848	0.241061
862.039784	0.241441
862.225702	0.242241
862.411603	0.242584
862.597484	0.242335
862.783348	0.242519
862.969193	0.242550
863.155021	0.242583
863.340830	0.242795
863.526620	0.242756
863.712393	0.242882
863.898147	0.242805
864.083883	0.242716
864.269601	0.243141
864.455301	0.243580
864.640982	0.243987
864.826645	0.244498
865.012290	0.245006
865.197917	0.245356
865.383526	0.245593
865.569116	0.245673
865.754688	0.246109
865.940242	0.246434
866.125777	0.246869
866.311295	0.247326
866.496794	0.247553
866.682275	0.247616
866.867737	0.247591
867.053182	0.247850
867.238608	0.248366
867.424016	0.248718
867.609406	0.248931
867.794778	0.248755
867.980131	0.248723
868.165466	0.248894
868.350783	0.248931
868.536082	0.249531
868.721362	0.249541
868.906625	0.249596
869.091869	0.249573
869.277094	0.249641
869.462302	0.250022
869.647491	0.250367
869.832662	0.250329
870.017815	0.250739
870.202950	0.250687
870.388066	0.251235
870.573165	0.251592
870.758245	0.252099
870.943306	0.252528
871.128350	0.252543
871.313375	0.252903
871.498382	0.253165
871.683371	0.253274
871.868342	0.253640
872.053294	0.253344
872.238229	0.253402
872.423144	0.253246
872.608042	0.253387
872.792922	0.253540
872.977783	0.253820
873.162626	0.254472
873.347451	0.254771
873.532258	0.254899
873.717046	0.255276
873.901816	0.255756
874.086568	0.256369
874.271302	0.256277
874.456017	0.256769
874.640715	0.256981
874.825394	0.256915
875.010055	0.257219
875.194697	0.257352
875.379322	0.258203
875.563928	0.257993
875.748516	0.258033
875.933085	0.258698
876.117637	0.258627
876.302170	0.258331
876.486685	0.258659
876.671182	0.258482
876.855661	0.258834
877.040121	0.258730
877.224563	0.259214
877.408987	0.259660
877.593393	0.259616
877.777780	0.260025
877.962150	0.260459
878.146501	0.260471
878.330833	0.260990
878.515148	0.261202
878.699444	0.261796
878.883722	0.262086
879.067982	0.261964
879.252224	0.262472
879.436447	0.262646
879.620653	0.262845
879.804840	0.262680
879.989008	0.262630
880.173159	0.262476
880.357291	0.262054
880.541405	0.261666
880.725501	0.261518
880.909579	0.261194
881.093638	0.260895
881.277680	0.260968
881.461703	0.261261
881.645707	0.261405
881.829694	0.261709
882.013662	0.261846
882.197612	0.262004
882.381544	0.262485
882.565458	0.262483
882.749353	0.262933
882.933230	0.263010
883.117089	0.263280
883.300930	0.263427
883.484753	0.263355
883.668557	0.263331
883.852343	0.263396
884.036111	0.262948
884.219861	0.263409
884.403592	0.263371
884.587305	0.263318
884.771000	0.263344
884.954677	0.263636
885.138335	0.263575
885.321976	0.263695
885.505598	0.263671
885.689201	0.263936
885.872787	0.263859
886.056354	0.263778
886.239904	0.263686
886.423434	0.263800
886.606947	0.263064
886.790442	0.263002
886.973918	0.262996
887.157376	0.263413
887.340816	0.263599
887.524237	0.263905
887.707641	0.264211
887.891026	0.264392
888.074393	0.264230
888.257741	0.265016
888.441072	0.265302
888.624384	0.265487
888.807678	0.265160
888.990954	0.265190
889.174211	0.264937
889.357451	0.264873
889.540672	0.265007
889.723875	0.264849
889.907059	0.264212
890.090226	0.264177
890.273374	0.264127
890.456504	0.264248
890.639616	0.264178
890.822709	0.263986
891.005785	0.263964
891.188842	0.264048
891.371881	0.264497
891.554901	0.265257
891.737904	0.265260
891.920888	0.265123
892.103854	0.265115
892.286802	0.265125
892.469731	0.265146
892.652643	0.265146
892.835536	0.264822
893.018410	0.264168
893.201267	0.263640
893.384106	0.263954
893.566926	0.263733
893.749728	0.263578
893.932511	0.263757
894.115277	0.263857
894.298024	0.263810
894.480753	0.264045
894.663464	0.264154
894.846157	0.264263
895.028831	0.264214
895.211487	0.263996
895.394125	0.263640
895.576745	0.263200
895.759346	0.263131
895.941930	0.262662
896.124495	0.262450
896.307041	0.262646
896.489570	0.262531
896.672080	0.262293
896.854573	0.262249
897.037046	0.262595
897.219502	0.262777
897.401940	0.262612
897.584359	0.262972
897.766760	0.262667
897.949143	0.262127
898.131507	0.261840
898.313854	0.261182
898.496182	0.261098
898.678492	0.260669
898.860783	0.260266
899.043057	0.259838
899.225312	0.259462
899.407549	0.259243
899.589768	0.259222
899.771968	0.259301
899.954151	0.259544
900.136315	0.259460
900.318461	0.259720
900.500588	0.259643
900.682698	0.259461
900.864789	0.259520
901.046862	0.259421
901.228917	0.259478
901.410953	0.259303
901.592971	0.259200
901.774972	0.259059
901.956953	0.258732
902.138917	0.258398
902.320862	0.258338
902.502790	0.257603
902.684699	0.257471
902.866589	0.256952
903.048462	0.256357
903.230316	0.255883
903.412152	0.255596
903.593970	0.255269
903.775770	0.255241
903.957551	0.255054
904.139314	0.255146
904.321059	0.255114
904.502786	0.255012
904.684494	0.254854
904.866185	0.254217
905.047857	0.254104
905.229510	0.253893
905.411146	0.253765
905.592763	0.253520
905.774363	0.252888
905.955943	0.252442
906.137506	0.252294
906.319051	0.251992
906.500577	0.251784
906.682085	0.251982
906.863575	0.251827
907.045046	0.251393
907.226500	0.250696
907.407935	0.250622
907.589352	0.249973
907.770750	0.249537
907.952131	0.249119
908.133493	0.248747
908.314837	0.247744
908.496163	0.247290
908.677470	0.246543
908.858760	0.246519
909.040031	0.246383
909.221284	0.245933
909.402518	0.245828
909.583735	0.245082
909.764933	0.245266
909.946113	0.244861
910.127275	0.244612
910.308418	0.244447
910.489544	0.243958
910.670651	0.243518
910.851740	0.243232
911.032810	0.242331
911.213863	0.242348
911.394897	0.241708
911.575913	0.241463
911.756911	0.240667
911.937890	0.239917
912.118851	0.239400
912.299794	0.238954
912.480719	0.238618
912.661626	0.238173
912.842514	0.237547
913.023384	0.237235
913.204236	0.236873
913.385070	0.235939
913.565886	0.235829
913.746683	0.235811
913.927462	0.235415
914.108223	0.235473
914.288965	0.235602
914.469690	0.235426
914.650396	0.234827
914.831084	0.234127
915.011754	0.234810
915.192405	0.234287
915.373038	0.233988
915.553653	0.233772
915.734250	0.232633
915.914829	0.231659
916.095389	0.231141
916.275931	0.230804
916.456455	0.230655
916.636961	0.229940
916.817448	0.229865
916.997917	0.228976
917.178368	0.228113
917.358801	0.227731
917.539216	0.227859
917.719612	0.227580
917.899990	0.227429
918.080350	0.226878
918.260692	0.226179
918.441015	0.225320
918.621320	0.225238
918.801607	0.225053
918.981876	0.225150
919.162127	0.224087
919.342359	0.223446
919.522573	0.222894
919.702769	0.222376
919.882947	0.222072
920.063106	0.221778
920.243247	0.220858
920.423370	0.220558
920.603475	0.219947
920.783562	0.219407
920.963630	0.218646
921.143680	0.217581
921.323712	0.216873
921.503725	0.216147
921.683721	0.214977
921.863698	0.214823
922.043657	0.214067
922.223598	0.213298
922.403520	0.212851
922.583424	0.212586
922.763311	0.212313
922.943178	0.212095
923.123028	0.212220
923.302859	0.212038
923.482673	0.210991
923.662467	0.210456
923.842244	0.209367
924.022003	0.208625
924.201743	0.208236
924.381465	0.207814
924.561169	0.206696
924.740854	0.205643
924.920522	0.205013
925.100171	0.204663
925.279802	0.203998
925.459414	0.203962
925.639009	0.203908
925.818585	0.203364
925.998143	0.202689
926.177683	0.202014
926.357205	0.201364
926.536708	0.200882
926.716193	0.200392
926.895660	0.199296
927.075109	0.198390
927.254539	0.197613
927.433951	0.196033
927.613345	0.195505
927.792721	0.195580
927.972079	0.194511
928.151418	0.194042
928.330739	0.192988
928.510042	0.192890
928.689327	0.192294
928.868593	0.190941
929.047841	0.190796
929.227071	0.189847
929.406283	0.188651
929.585476	0.187685
929.764652	0.186201
929.943809	0.185265
930.122948	0.184214
930.302068	0.183999
930.481171	0.183530
930.660255	0.183310
930.839321	0.182609
931.018369	0.181904
931.197398	0.181835
931.376409	0.181470
931.555402	0.180954
931.734377	0.180203
931.913334	0.178578
932.092272	0.177865
932.271192	0.177209
932.450094	0.176352
932.628978	0.175956
932.807844	0.175163
932.986691	0.174628
933.165520	0.174279
933.344331	0.173219
933.523123	0.173091
933.701898	0.172309
933.880654	0.171361
934.059392	0.170817
934.238111	0.170219
934.416813	0.169513
934.595496	0.167951
934.774161	0.166965
934.952808	0.166981
935.131437	0.165895
935.310047	0.165783
935.488639	0.164592
935.667213	0.163482
935.845769	0.161778
936.024306	0.160544
936.202825	0.160461
936.381326	0.159256
936.559809	0.158030
936.738274	0.157238
936.916720	0.156099
937.095148	0.155378
937.273558	0.154665
937.451950	0.154123
937.630323	0.153411
937.808678	0.152864
937.987015	0.152055
938.165334	0.151325
938.343635	0.149692
938.521917	0.148599
938.700181	0.147713
938.878427	0.147367
939.056655	0.146184
939.234864	0.145760
939.413055	0.145258
939.591228	0.145574
939.769383	0.144849
939.947519	0.144666
940.125638	0.143831
940.303738	0.143218
940.481820	0.141696
940.659883	0.140894
940.837929	0.139113
941.015956	0.137584
941.193965	0.135764
941.371955	0.134006
941.549928	0.133689
941.727882	0.132740
941.905818	0.131464
942.083736	0.129568
942.261636	0.129163
942.439517	0.129149
942.617380	0.127799
942.795225	0.127491
942.973052	0.127601
943.150860	0.126540
943.328651	0.125630
943.506423	0.124349
943.684176	0.125326
943.861912	0.124912
944.039629	0.123920
944.217328	0.124135
944.395009	0.122809
944.572672	0.120592
944.750317	0.120205
944.927943	0.119585
945.105551	0.118795
945.283141	0.116818
945.460712	0.115946
945.638265	0.114291
945.815801	0.113639
945.993317	0.112601
946.170816	0.112059
946.348297	0.110350
946.525759	0.109167
946.703203	0.109637
946.880629	0.109127
947.058036	0.108104
947.235425	0.108879
947.412797	0.106805
947.590149	0.106273
947.767484	0.105907
947.944800	0.106053
948.122099	0.105306
948.299379	0.103221
948.476640	0.103814
948.653884	0.102578
948.831109	0.100725
949.008316	0.100990
949.185505	0.099387
949.362676	0.098550
949.539828	0.095078
949.716962	0.095149
949.894078	0.095478
950.071176	0.094223
950.248256	0.092794
950.425317	0.091978
950.602360	0.091912
950.779385	0.090297
950.956391	0.089439
951.133380	0.090725
951.310350	0.089629
951.487302	0.087475
951.664235	0.086763
951.841151	0.087130
952.018048	0.085680
952.194927	0.082966
952.371788	0.084771
952.548631	0.084308
952.725455	0.083757
952.902261	0.083694
953.079049	0.083761
953.255819	0.082114
953.432570	0.080906
953.609303	0.081138
953.786018	0.081980
953.962715	0.080621
954.139394	0.080780
954.316054	0.079886
954.492696	0.078509
954.669320	0.077652
954.845926	0.078165
955.022513	0.077884
955.199083	0.076760
955.375634	0.074562
955.552166	0.073836
955.728681	0.073124
955.905177	0.071571
956.081655	0.071066
956.258115	0.070544
956.434557	0.068062
956.610980	0.067132
956.787385	0.067746
956.963772	0.068282
957.140141	0.068874
957.316492	0.068023
957.492824	0.067981
957.669138	0.066088
957.845434	0.065717
958.021712	0.065146
958.197971	0.066110
958.374212	0.065422
958.550435	0.064982
958.726640	0.062698
958.902826	0.061632
959.078995	0.061542
959.255145	0.062207
959.431277	0.060629
959.607390	0.059952
959.783486	0.060196
959.959563	0.057757
960.135622	0.057427
960.311662	0.056545
960.487685	0.056897
960.663689	0.056922
960.839675	0.057300
961.015643	0.058524
961.191593	0.059717
961.367524	0.057483
961.543437	0.059131
961.719332	0.056408
961.895209	0.058041
962.071067	0.057400
962.246907	0.057689
962.422730	0.056271
962.598533	0.053616
962.774319	0.052594
962.950086	0.050138
963.125835	0.050079
963.301566	0.053219
963.477279	0.052146
963.652973	0.050139
963.828650	0.049159
964.004308	0.047991
964.179947	0.050284
964.355569	0.049864
964.531172	0.051120
964.706757	0.050216
964.882324	0.049910
965.057873	0.048929
965.233403	0.050581
965.408916	0.051560
965.584410	0.051207
965.759885	0.049199
965.935343	0.049296
966.110782	0.050536
966.286203	0.050512
966.461606	0.048539
966.636991	0.048469
966.812357	0.048076
966.987705	0.046570
967.163035	0.048164
967.338347	0.050263
967.513641	0.052385
967.688916	0.051105
967.864173	0.051246
968.039412	0.052053
968.214632	0.052707
968.389835	0.053166
968.565019	0.052918
968.740185	0.053919
968.915333	0.054197
969.090462	0.051290
969.265573	0.052059
969.440667	0.051866
969.615741	0.052588
969.790798	0.053330
969.965836	0.051445
970.140856	0.052646
970.315858	0.050780
970.490842	0.049861
970.665808	0.050046
970.840755	0.050817
971.015684	0.050956
971.190595	0.050736
971.365487	0.050604
971.540362	0.051497
971.715218	0.051445
971.890056	0.052427
972.064875	0.052284
972.239677	0.054224
972.414460	0.052611
972.589225	0.052935
972.763972	0.051972
972.938700	0.049407
973.113411	0.050842
973.288103	0.050008
973.462777	0.049881
973.637432	0.050690
973.812070	0.050744
973.986689	0.050582
974.161290	0.050638
974.335873	0.051247
974.510437	0.052071
974.684984	0.050216
974.859512	0.049498
975.034022	0.049677
975.208513	0.047027
975.382987	0.046215
975.557442	0.046189
975.731879	0.047226
975.906298	0.046721
976.080698	0.047779
976.255080	0.048874
976.429445	0.049515
976.603790	0.048809
976.778118	0.051741
976.952427	0.050433
977.126719	0.052328
977.300992	0.049288
977.475246	0.049115
977.649483	0.049360
977.823701	0.047661
977.997901	0.048193
978.172083	0.048852
978.346247	0.047997
978.520392	0.050056
978.694519	0.047557
978.868628	0.050324
979.042719	0.051770
979.216791	0.050966
979.390845	0.052267
979.564882	0.052628
979.738899	0.052507
979.912899	0.052663
980.086880	0.052542
980.260843	0.054032
980.434788	0.051584
980.608715	0.048701
980.782623	0.051432
980.956514	0.052831
981.130386	0.051909
981.304240	0.052632
981.478075	0.051844
981.651892	0.049768
981.825692	0.048611
981.999472	0.049250
982.173235	0.050349
982.346980	0.048464
982.520706	0.047090
982.694414	0.046580
982.868104	0.046510
983.041775	0.046187
983.215428	0.046871
983.389064	0.047899
983.562680	0.048044
983.736279	0.047382
983.909860	0.047330
984.083422	0.047156
984.256966	0.047016
984.430491	0.045915
984.603999	0.046281
984.777488	0.044732
984.950959	0.044788
985.124412	0.043325
985.297847	0.045134
985.471263	0.044712
985.644661	0.044122
985.818041	0.043551
985.991403	0.043874
986.164747	0.043195
986.338072	0.045007
986.511379	0.045129
986.684668	0.047480
986.857938	0.045910
987.031191	0.047076
987.204425	0.047568
987.377641	0.049359
987.550839	0.050067
987.724018	0.050493
987.897179	0.050367
988.070322	0.049288
988.243447	0.048437
988.416554	0.050023
988.589642	0.049021
988.762712	0.048523
988.935764	0.048707
989.108798	0.048404
989.281813	0.048360
989.454811	0.049037
989.627790	0.048720
989.800751	0.047799
989.973693	0.046001
990.146617	0.047314
990.319524	0.048542
990.492412	0.047918
990.665281	0.046938
990.838133	0.047756
991.010966	0.048159
991.183781	0.047513
991.356578	0.048218
991.529356	0.049435
991.702117	0.047362
991.874859	0.047565
992.047583	0.047820
992.220288	0.048107
992.392976	0.049139
992.565645	0.048057
992.738296	0.049676
992.910929	0.049138
993.083543	0.048243
993.256139	0.048787
993.428718	0.047266
993.601277	0.047277
993.773819	0.046663
993.946342	0.045041
994.118848	0.045114
994.291335	0.044031
994.463803	0.045763
994.636254	0.045951
994.808686	0.045811
994.981100	0.046658
995.153496	0.046567
995.325874	0.047089
995.498233	0.046504
995.670574	0.045536
995.842897	0.046717
996.015202	0.045503
996.187488	0.045887
996.359757	0.045974
996.532007	0.045457
996.704239	0.046439
996.876452	0.046229
997.048648	0.047429
997.220825	0.048267
997.392984	0.046831
997.565124	0.044648
997.737247	0.044943
997.909351	0.045397
998.081437	0.044540
998.253505	0.042394
998.425554	0.044099
998.597586	0.042893
998.769599	0.041507
998.941594	0.041161
999.113571	0.045012
999.285529	0.043567
999.457469	0.042904
999.629391	0.044516
999.801295	0.047810
999.973181	0.045766
1000.145048	0.047577
1000.316897	0.049018
1000.488728	0.050573
1000.660541	0.049888
1000.832335	0.051697
1001.004111	0.051929
1001.175869	0.052198
1001.347609	0.049902
1001.519331	0.049985
1001.691034	0.048195
1001.862719	0.048457
1002.034386	0.047986
1002.206035	0.047538
1002.377665	0.047127
1002.549277	0.046693
1002.720871	0.045098
1002.892447	0.045365
1003.064004	0.046309
1003.235544	0.045823
1003.407065	0.045761
1003.578568	0.046557
1003.750052	0.045191
1003.921519	0.045666
1004.092967	0.046501
1004.264397	0.046961
1004.435809	0.047927
1004.607202	0.048985
1004.778577	0.048862
1004.949934	0.048751
1005.121273	0.048339
1005.292594	0.048931
1005.463896	0.047321
1005.635180	0.045398
1005.806446	0.046574
1005.977694	0.045547
1006.148923	0.044147
1006.320135	0.045873
1006.491328	0.045584
1006.662503	0.046062
1006.833659	0.045917
1007.004798	0.048540
1007.175918	0.048343
1007.347020	0.047278
1007.518103	0.045700
1007.689169	0.045886
1007.860216	0.046035
1008.031245	0.046271
1008.202256	0.045060
1008.373248	0.045198
1008.544223	0.044494
1008.715179	0.046400
1008.886117	0.045588
1009.057036	0.046368
1009.227938	0.046151
1009.398821	0.045065
1009.569686	0.044998
1009.740533	0.045468
1009.911361	0.046375
1010.082172	0.045332
1010.252964	0.045556
1010.423738	0.046299
1010.594493	0.046481
1010.765231	0.046990
1010.935950	0.048891
1011.106651	0.048913
1011.277334	0.048242
1011.447998	0.046940
1011.618645	0.045553
1011.789273	0.045063
1011.959882	0.046148
1012.130474	0.047128
1012.301048	0.046512
1012.471603	0.043928
1012.642140	0.044471
1012.812658	0.045264
1012.983159	0.046592
1013.153641	0.047036
1013.324105	0.047508
1013.494551	0.046914
1013.664979	0.045787
1013.835388	0.045248
1014.005779	0.046037
1014.176152	0.044898
1014.346507	0.046217
1014.516843	0.044993
1014.687162	0.045134
1014.857462	0.044984
1015.027744	0.046438
1015.198007	0.047427
1015.368252	0.047671
1015.538480	0.048338
1015.708689	0.050459
1015.878879	0.049471
1016.049052	0.050909
1016.219206	0.051739
1016.389342	0.051000
1016.559460	0.051157
1016.729559	0.050585
1016.899641	0.050418
1017.069704	0.048892
1017.239749	0.047714
1017.409775	0.047469
1017.579784	0.045258
1017.749774	0.044916
1017.919746	0.047019
1018.089700	0.043932
1018.259635	0.043932
1018.429553	0.043486
1018.599452	0.046180
1018.769333	0.045771
1018.939195	0.046110
1019.109040	0.047651
1019.278866	0.047459
1019.448674	0.046043
1019.618464	0.046854
1019.788235	0.045848
1019.957989	0.047314
1020.127724	0.046091
1020.297441	0.046327
1020.467139	0.045359
1020.636820	0.045464
1020.806482	0.048222
1020.976126	0.048311
1021.145752	0.047931
1021.315359	0.048735
1021.484948	0.047981
1021.654519	0.048039
1021.824072	0.047514
1021.993607	0.049093
1022.163123	0.047431
1022.332621	0.045126
1022.502101	0.044941
1022.671563	0.046108
1022.841007	0.045078
1023.010432	0.045561
1023.179839	0.046174
1023.349228	0.047258
1023.518598	0.046760
1023.687951	0.046938
1023.857285	0.045293
1024.026601	0.044221
1024.195899	0.043345
1024.365178	0.045193
1024.534439	0.044600
1024.703682	0.042930
1024.872907	0.043265
1025.042114	0.041790
1025.211302	0.043496
1025.380472	0.045909
1025.549624	0.047467
1025.718758	0.048803
1025.887873	0.047755
1026.056970	0.049098
1026.226049	0.049708
1026.395110	0.048646
1026.564153	0.048662
1026.733177	0.047585
1026.902183	0.047531
1027.071171	0.048768
1027.240141	0.049182
1027.409092	0.049406
1027.578026	0.047642
1027.746940	0.047284
1027.915837	0.046869
1028.084716	0.046726
1028.253576	0.047710
1028.422418	0.046774
1028.591242	0.045643
1028.760048	0.043855
1028.928835	0.043953
1029.097604	0.044976
1029.266355	0.046682
1029.435088	0.046830
1029.603803	0.047137
1029.772499	0.045160
1029.941177	0.045445
1030.109837	0.045126
1030.278478	0.046754
1030.447102	0.048191
1030.615707	0.048324
1030.784294	0.045500
1030.952863	0.043629
1031.121413	0.043684
1031.289945	0.046294
1031.458460	0.047210
1031.626955	0.047060
1031.795433	0.045293
1031.963892	0.043168
1032.132334	0.042825
1032.300756	0.044866
1032.469161	0.046917
1032.637548	0.047450
1032.805916	0.046414
1032.974266	0.045522
1033.142598	0.044449
1033.310911	0.044555
1033.479207	0.046838
1033.647484	0.046005
1033.815743	0.046577
1033.983983	0.047333
1034.152206	0.047400
1034.320410	0.047070
1034.488596	0.046837
1034.656764	0.047534
1034.824914	0.048705
1034.993045	0.045689
1035.161158	0.046303
1035.329253	0.044355
1035.497330	0.044236
1035.665388	0.045164
1035.833428	0.044804
1036.001450	0.044421
1036.169454	0.045573
1036.337440	0.043204
1036.505407	0.044744
1036.673356	0.044786
1036.841287	0.043619
1037.009200	0.042997
1037.177094	0.041866
1037.344970	0.043151
1037.512828	0.042720
1037.680668	0.041208
1037.848489	0.042499
1038.016293	0.042617
1038.184078	0.043055
1038.351845	0.045091
1038.519593	0.043811
1038.687324	0.043806
1038.855036	0.043477
1039.022730	0.045533
1039.190406	0.046102
1039.358063	0.044993
1039.525702	0.044105
1039.693323	0.044313
1039.860926	0.045188
1040.028511	0.046378
1040.196077	0.047441
1040.363625	0.046347
1040.531155	0.044989
1040.698667	0.043546
1040.866161	0.044899
1041.033636	0.046537
1041.201093	0.046317
1041.368532	0.046191
1041.535952	0.045312
1041.703355	0.044578
1041.870739	0.044931
1042.038105	0.045024
1042.205452	0.046181
1042.372782	0.045864
1042.540093	0.042646
1042.707386	0.041153
1042.874661	0.040461
1043.041918	0.042823
1043.209156	0.043890
1043.376376	0.043716
1043.543578	0.044211
1043.710762	0.043199
1043.877927	0.041630
1044.045074	0.043488
1044.212203	0.045010
1044.379314	0.044232
1044.546407	0.042099
1044.713481	0.040439
1044.880537	0.040861
1045.047575	0.040379
1045.214595	0.041061
1045.381596	0.042381
1045.548579	0.040348
1045.715544	0.038708
1045.882491	0.039895
1046.049420	0.039054
1046.216330	0.040315
1046.383222	0.040205
1046.550096	0.040200
1046.716951	0.042043
1046.883789	0.041805
1047.050608	0.043814
1047.217409	0.043862
1047.384192	0.044415
1047.550956	0.045794
1047.717703	0.044329
1047.884431	0.044402
1048.051140	0.044007
1048.217832	0.041862
1048.384505	0.043944
1048.551161	0.043967
1048.717798	0.045066
1048.884416	0.043883
1049.051017	0.044635
1049.217599	0.045083
1049.384163	0.045842
1049.550709	0.046382
1049.717237	0.046347
1049.883746	0.046064
1050.050237	0.045333
1050.216710	0.044237
1050.383165	0.043977
1050.549601	0.042894
1050.716019	0.042707
1050.882420	0.041155
1051.048801	0.042368
1051.215165	0.043738
1051.381510	0.042688
1051.547837	0.043949
1051.714146	0.045295
1051.880437	0.045618
1052.046709	0.045855
1052.212964	0.045960
1052.379200	0.047041
1052.545417	0.046706
1052.711617	0.046023
1052.877798	0.046954
1053.043961	0.046796
1053.210106	0.048115
1053.376233	0.046172
1053.542341	0.047682
1053.708432	0.048443
1053.874504	0.047015
1054.040557	0.047046
1054.206593	0.047458
1054.372610	0.045436
1054.538609	0.044833
1054.704590	0.043732
1054.870553	0.045341
1055.036497	0.044392
1055.202424	0.045806
1055.368331	0.047296
1055.534221	0.046139
1055.700093	0.045874
1055.865946	0.046741
1056.031781	0.046588
1056.197598	0.044747
1056.363397	0.044354
1056.529177	0.043501
1056.694939	0.041821
1056.860683	0.039830
1057.026409	0.040849
1057.192116	0.041493
1057.357806	0.041059
1057.523477	0.042573
1057.689130	0.043243
1057.854764	0.046342
1058.020381	0.046472
1058.185979	0.045201
1058.351559	0.046850
1058.517120	0.045669
1058.682664	0.044651
1058.848189	0.046065
1059.013696	0.045362
1059.179185	0.047216
1059.344656	0.043639
1059.510108	0.045065
1059.675542	0.044628
1059.840958	0.045874
1060.006356	0.045479
1060.171735	0.047495
1060.337096	0.048104
1060.502439	0.047197
1060.667764	0.046685
1060.833071	0.046863
1060.998359	0.045971
1061.163629	0.048287
1061.328881	0.047532
1061.494115	0.048962
1061.659330	0.048002
1061.824527	0.045573
1061.989706	0.045188
1062.154867	0.045735
1062.320010	0.047539
1062.485134	0.047642
1062.650240	0.047547
1062.815328	0.047422
1062.980398	0.047488
1063.145449	0.046940
1063.310482	0.047853
1063.475497	0.049008
1063.640494	0.049167
1063.805473	0.048383
1063.970433	0.049306
1064.135375	0.048834
1064.300299	0.050253
1064.465204	0.048548
1064.630092	0.048001
1064.794961	0.047908
1064.959812	0.048612
1065.124645	0.046717
1065.289459	0.045456
1065.454256	0.042725
1065.619034	0.043845
1065.783793	0.041155
1065.948535	0.043979
1066.113258	0.045033
1066.277964	0.045959
1066.442651	0.044444
1066.607319	0.044183
1066.771970	0.043958
1066.936602	0.044752
1067.101216	0.044073
1067.265812	0.047232
1067.430389	0.044744
1067.594949	0.044625
1067.759490	0.045729
1067.924013	0.046872
1068.088518	0.047921
1068.253004	0.049350
1068.417472	0.049163
1068.581922	0.047824
1068.746354	0.045641
1068.910768	0.047083
1069.075163	0.047559
1069.239540	0.048690
1069.403899	0.047969
1069.568240	0.048501
1069.732562	0.050646
1069.896866	0.052810
1070.061152	0.054683
1070.225420	0.054801
1070.389670	0.053341
1070.553901	0.051618
1070.718114	0.050438
1070.882309	0.052687
1071.046486	0.054236
1071.210644	0.051463
1071.374784	0.050274
1071.538906	0.049439
1071.703010	0.049537
1071.867096	0.051752
1072.031163	0.052265
1072.195212	0.048929
1072.359243	0.047172
1072.523256	0.044388
1072.687250	0.047471
1072.851226	0.047939
1073.015184	0.049074
1073.179124	0.047368
1073.343045	0.046543
1073.506949	0.046085
1073.670834	0.047915
1073.834701	0.049823
1073.998549	0.051164
1074.162380	0.048999
1074.326192	0.047082
1074.489986	0.045656
1074.653761	0.046857
1074.817519	0.047499
1074.981258	0.048324
1075.144979	0.049639
1075.308682	0.050648
1075.472367	0.048231
1075.636033	0.048666
1075.799681	0.049282
1075.963311	0.049475
1076.126923	0.052833
1076.290516	0.050823
1076.454092	0.051213
1076.617649	0.050650
1076.781187	0.048864
1076.944708	0.050107
1077.108210	0.050791
1077.271695	0.053093
1077.435160	0.052093
1077.598608	0.049280
1077.762038	0.050109
1077.925449	0.052922
1078.088842	0.053526
1078.252217	0.054230
1078.415573	0.054946
1078.578912	0.053692
1078.742232	0.051886
1078.905534	0.052262
1079.068817	0.052679
1079.232083	0.053195
1079.395330	0.049363
1079.558559	0.047067
1079.721770	0.044829
1079.884962	0.044599
1080.048136	0.045312
1080.211293	0.046798
1080.374430	0.046019
1080.537550	0.045650
1080.700651	0.046247
1080.863735	0.048458
1081.026800	0.049415
1081.189846	0.051936
1081.352875	0.052654
1081.515885	0.054165
1081.678877	0.053528
1081.841851	0.056590
1082.004807	0.057008
1082.167744	0.058245
1082.330663	0.056406
1082.493564	0.056088
1082.656447	0.054051
1082.819312	0.054615
1082.982158	0.053764
1083.144986	0.054575
1083.307796	0.051141
1083.470587	0.051758
1083.633361	0.049326
1083.796116	0.048491
1083.958853	0.050147
1084.121571	0.050815
1084.284272	0.051483
1084.446954	0.049764
1084.609618	0.049393
1084.772264	0.051788
1084.934892	0.052481
1085.097501	0.053456
1085.260092	0.054384
1085.422665	0.052942
1085.585220	0.053981
1085.747756	0.052992
1085.910274	0.053327
1086.072774	0.056039
1086.235256	0.055258
1086.397720	0.054766
1086.560165	0.054668
1086.722592	0.052841
1086.885001	0.053642
1087.047392	0.053011
1087.209764	0.053628
1087.372119	0.054107
1087.534455	0.050413
1087.696772	0.052180
1087.859072	0.051647
1088.021353	0.050313
1088.183616	0.054253
1088.345861	0.052888
1088.508088	0.051454
1088.670296	0.049183
1088.832486	0.049893
1088.994658	0.051345
1089.156812	0.050673
1089.318948	0.051617
1089.481065	0.054378
1089.643164	0.053893
1089.805245	0.057494
1089.967308	0.059859
1090.129352	0.062203
1090.291378	0.062348
1090.453386	0.064813
1090.615376	0.066836
1090.777347	0.065812
1090.939301	0.063588
1091.101236	0.062080
1091.263153	0.058479
1091.425051	0.057559
1091.586932	0.059212
1091.748794	0.059126
1091.910638	0.055454
1092.072463	0.053601
1092.234271	0.054562
1092.396060	0.054263
1092.557831	0.054949
1092.719584	0.057244
1092.881319	0.056118
1093.043035	0.056213
1093.204733	0.057012
1093.366413	0.059535
1093.528075	0.059398
1093.689718	0.061568
1093.851343	0.063728
1094.012950	0.061790
1094.174539	0.061059
1094.336110	0.061353
1094.497662	0.059272
1094.659196	0.057639
1094.820712	0.057616
1094.982210	0.061864
1095.143689	0.058884
1095.305151	0.058636
1095.466594	0.059915
1095.628018	0.061034
1095.789425	0.063890
1095.950813	0.062095
1096.112183	0.061031
1096.273535	0.059838
1096.434869	0.055423
1096.596184	0.055823
1096.757482	0.053924
1096.918761	0.055925
1097.080021	0.053183
1097.241264	0.051620
1097.402488	0.052544
1097.563694	0.054271
1097.724882	0.053821
1097.886052	0.054414
1098.047203	0.054266
1098.208336	0.056489
1098.369451	0.053405
1098.530548	0.054901
1098.691627	0.054675
1098.852687	0.054395
1099.013729	0.058717
1099.174753	0.057378
1099.335758	0.058032
1099.496746	0.058772
1099.657715	0.057401
1099.818666	0.060305
1099.979599	0.061570
1100.140513	0.063192
1100.301409	0.065821
1100.462287	0.062066
1100.623147	0.065024
1100.783989	0.063019
1100.944812	0.062415
1101.105617	0.062113
1101.266404	0.060791
1101.427173	0.060709
1101.587923	0.057059
1101.748656	0.054806
1101.909370	0.052835
1102.070066	0.052546
1102.230743	0.053861
1102.391403	0.052689
1102.552044	0.057352
1102.712667	0.058991
1102.873271	0.059467
1103.033858	0.059162
1103.194426	0.061489
1103.354976	0.064734
1103.515508	0.060441
1103.676021	0.059178
1103.836517	0.059934
1103.996994	0.057153
1104.157453	0.056590
1104.317893	0.058773
1104.478316	0.060793
1104.638720	0.061706
1104.799106	0.061587
1104.959474	0.062004
1105.119823	0.064523
1105.280155	0.065884
1105.440468	0.066286
1105.600763	0.063378
1105.761039	0.058485
1105.921298	0.060562
1106.081538	0.057937
1106.241760	0.056511
1106.401964	0.059493
1106.562149	0.060199
1106.722316	0.061165
1106.882465	0.063380
1107.042596	0.069361
1107.202709	0.070277
1107.362803	0.071358
1107.522879	0.069986
1107.682937	0.072157
1107.842977	0.074082
1108.002999	0.071770
1108.163002	0.072093
1108.322987	0.071620
1108.482954	0.068204
1108.642902	0.071095
1108.802833	0.072348
1108.962745	0.075902
1109.122639	0.074106
1109.282515	0.071754
1109.442372	0.070918
1109.602211	0.065995
1109.762032	0.063637
1109.921835	0.063723
1110.081620	0.066891
1110.241386	0.063048
1110.401134	0.059334
1110.560864	0.054466
1110.720576	0.058218
1110.880269	0.061020
1111.039945	0.063983
1111.199602	0.064696
1111.359240	0.065331
1111.518861	0.061930
1111.678463	0.062449
1111.838047	0.065265
1111.997613	0.072672
1112.157161	0.070068
1112.316690	0.072845
1112.476202	0.071962
1112.635695	0.072700
1112.795169	0.073415
1112.954626	0.068708
1113.114064	0.069548
1113.273484	0.072103
1113.432886	0.070183
1113.592270	0.066818
1113.751635	0.064520
1113.910983	0.069212
1114.070312	0.066925
1114.229622	0.068576
1114.388915	0.071016
1114.548189	0.068415
1114.707445	0.065886
1114.866683	0.064945
1115.025903	0.069988
1115.185104	0.070259
1115.344287	0.066920
1115.503452	0.069365
1115.662599	0.068831
1115.821727	0.073046
1115.980838	0.077437
1116.139930	0.078071
1116.299004	0.077390
1116.458059	0.072792
1116.617097	0.068063
1116.776116	0.072240
1116.935117	0.070305
1117.094099	0.070454
1117.253064	0.064370
1117.412010	0.060900
1117.570938	0.059800
1117.729848	0.060221
1117.888740	0.062796
1118.047613	0.065953
1118.206468	0.061968
1118.365305	0.060832
1118.524124	0.062322
1118.682924	0.063651
1118.841707	0.067073
1119.000471	0.068780
1119.159216	0.068670
1119.317944	0.068742
1119.476653	0.067217
1119.635344	0.068101
1119.794017	0.068614
1119.952672	0.067993
1120.111308	0.072684
1120.269927	0.068811
1120.428527	0.069419
1120.587108	0.072478
1120.745672	0.074957
1120.904217	0.079144
1121.062744	0.077470
1121.221253	0.079257
1121.379744	0.079503
1121.538216	0.080605
1121.696671	0.082809
1121.855107	0.081018
1122.013524	0.079940
1122.171924	0.079066
1122.330305	0.076224
1122.488668	0.079557
1122.647013	0.078185
1122.805340	0.079165
1122.963648	0.072499
1123.121938	0.073126
1123.280210	0.071245
1123.438464	0.068642
1123.596700	0.068497
1123.754917	0.073194
1123.913116	0.069453
1124.071297	0.072239
1124.229459	0.067946
1124.387604	0.071152
1124.545730	0.070002
1124.703838	0.072548
1124.861928	0.069263
1125.019999	0.065874
1125.178052	0.061991
1125.336088	0.060076
1125.494104	0.059382
1125.652103	0.058644
1125.810083	0.058924
1125.968045	0.059147
1126.125989	0.061338
1126.283915	0.064771
1126.441823	0.063604
1126.599712	0.060403
1126.757583	0.064690
1126.915436	0.064547
1127.073270	0.064973
1127.231087	0.062114
1127.388885	0.062815
1127.546665	0.058894
1127.704426	0.064006
1127.862170	0.062139
1128.019895	0.061708
1128.177602	0.061749
1128.335291	0.064153
1128.492961	0.065295
1128.650614	0.069727
1128.808248	0.068038
1128.965864	0.071353
1129.123461	0.067766
1129.281041	0.073061
1129.438602	0.078961
1129.596145	0.078511
1129.753670	0.075399
1129.911176	0.077754
1130.068665	0.068614
1130.226135	0.071344
1130.383587	0.069959
1130.541020	0.070135
1130.698436	0.074046
1130.855833	0.072290
1131.013212	0.072895
1131.170573	0.075847
1131.327915	0.072611
1131.485239	0.077254
1131.642545	0.077756
1131.799833	0.081358
1131.957103	0.088877
1132.114354	0.087601
1132.271588	0.093690
1132.428803	0.088492
1132.585999	0.085521
1132.743178	0.082989
1132.900338	0.087451
1133.057480	0.086702
1133.214604	0.081225
1133.371710	0.074466
1133.528797	0.074594
1133.685866	0.067750
1133.842917	0.071069
1133.999950	0.075074
1134.156964	0.082650
1134.313960	0.079549
1134.470938	0.076741
1134.627898	0.077011
1134.784840	0.079140
1134.941763	0.076770
1135.098668	0.083462
1135.255555	0.084516
1135.412424	0.077963
1135.569274	0.074478
1135.726107	0.071978
1135.882921	0.076287
1136.039716	0.080835
1136.196494	0.078025
1136.353253	0.080217
1136.509995	0.077746
1136.666717	0.080302
1136.823422	0.083274
1136.980109	0.084390
1137.136777	0.085750
1137.293427	0.085790
1137.450059	0.085698
1137.606672	0.084424
1137.763267	0.084620
1137.919844	0.080199
1138.076403	0.076924
1138.232944	0.088002
1138.389466	0.086419
1138.545971	0.089070
1138.702457	0.084066
1138.858924	0.081962
1139.015374	0.081241
1139.171805	0.084405
1139.328218	0.086670
1139.484613	0.083948
1139.640990	0.071459
1139.797348	0.066783
1139.953688	0.068396
1140.110010	0.073246
1140.266314	0.074086
1140.422600	0.076041
1140.578867	0.074780
1140.735116	0.067914
1140.891347	0.069782
1141.047559	0.070599
1141.203754	0.076041
1141.359930	0.072437
1141.516088	0.066766
1141.672228	0.067749
1141.828349	0.066792
1141.984452	0.069650
1142.140537	0.078361
1142.296604	0.081858
1142.452653	0.084286
1142.608683	0.083193
1142.764695	0.080157
1142.920689	0.086349
1143.076665	0.085332
1143.232622	0.083811
1143.388562	0.074083
1143.544483	0.067768
1143.700385	0.066536
1143.856270	0.066342
1144.012136	0.067788
1144.167985	0.069854
1144.323814	0.068498
1144.479626	0.066789
1144.635420	0.072542
1144.791195	0.081349
1144.946952	0.078992
1145.102691	0.078997
1145.258411	0.077309
1145.414113	0.075052
1145.569798	0.083045
1145.725463	0.084422
1145.881111	0.082637
1146.036741	0.080479
1146.192352	0.074932
1146.347945	0.086460
1146.503519	0.084803
1146.659076	0.085020
1146.814614	0.090929
1146.970134	0.094860
1147.125636	0.091965
1147.281120	0.094103
1147.436585	0.093500
1147.592032	0.098824
1147.747461	0.085026
1147.902872	0.088935
1148.058265	0.082898
1148.213639	0.076790
1148.368995	0.064283
1148.524333	0.063969
1148.679653	0.065684
1148.834954	0.068142
1148.990237	0.066172
1149.145502	0.068996
1149.300749	0.067846
1149.455977	0.073750
1149.611188	0.078099
1149.766380	0.083337
1149.921553	0.086797
1150.076709	0.088112
1150.231846	0.081904
1150.386966	0.080266
1150.542066	0.085754
1150.697149	0.086290
1150.852214	0.090397
1151.007260	0.083459
1151.162288	0.081747
1151.317298	0.076405
1151.472289	0.079460
1151.627263	0.083698
1151.782218	0.082630
1151.937155	0.093323
1152.092073	0.090179
1152.246974	0.083194
1152.401856	0.088690
1152.556720	0.098220
1152.711566	0.100507
1152.866393	0.088921
1153.021203	0.088794
1153.175994	0.094444
1153.330767	0.080534
1153.485521	0.084223
1153.640258	0.083526
1153.794976	0.079305
1153.949676	0.069079
1154.104358	0.072130
1154.259021	0.081633
1154.413667	0.078251
1154.568294	0.071730
1154.722903	0.071998
1154.877493	0.071058
1155.032066	0.074783
1155.186620	0.076226
1155.341156	0.075534
1155.495674	0.073921
1155.650173	0.067099
1155.804654	0.073498
1155.959118	0.073721
1156.113562	0.077385
1156.267989	0.065393
1156.422397	0.071527
1156.576788	0.078401
1156.731160	0.083443
1156.885513	0.088593
1157.039849	0.086540
1157.194166	0.078926
1157.348465	0.081108
1157.502746	0.075635
1157.657009	0.080244
1157.811253	0.065951
1157.965479	0.063153
1158.119687	0.059885
1158.273877	0.054352
1158.428048	0.057737
1158.582201	0.063260
1158.736337	0.061371
1158.890453	0.069883
1159.044552	0.078395
1159.198632	0.083581
1159.352694	0.077027
1159.506738	0.080542
1159.660764	0.076249
1159.814771	0.083004
1159.968761	0.070884
1160.122732	0.075386
1160.276685	0.070812
1160.430619	0.072861
1160.584535	0.076829
1160.738434	0.088121
1160.892313	0.089748
1161.046175	0.097740
1161.200019	0.096474
1161.353844	0.107381
1161.507651	0.095739
1161.661440	0.096351
1161.815210	0.091884
1161.968962	0.091322
1162.122697	0.085542
1162.276412	0.083035
1162.430110	0.090121
1162.583789	0.089372
1162.737451	0.093517
1162.891094	0.100775
1163.044718	0.103048
1163.198325	0.106720
1163.351913	0.106101
1163.505483	0.102189
1163.659035	0.097564
1163.812569	0.088071
1163.966084	0.085773
1164.119581	0.086715
1164.273060	0.089963
1164.426521	0.082560
1164.579964	0.075765
1164.733388	0.065872
1164.886794	0.067462
1165.040182	0.075072
1165.193551	0.069716
1165.346903	0.070098
1165.500236	0.057105
1165.653551	0.049808
1165.806848	0.057845
1165.960126	0.062362
1166.113386	0.076870
1166.266628	0.073402
1166.419852	0.064371
1166.573058	0.064447
1166.726245	0.053652
1166.879414	0.069247
1167.032565	0.081318
1167.185698	0.068336
1167.338812	0.072333
1167.491909	0.070155
1167.644987	0.071922
1167.798046	0.077972
1167.951088	0.093464
1168.104111	0.101731
1168.257117	0.099316
1168.410103	0.089885
1168.563072	0.088517
1168.716023	0.085416
1168.868955	0.080232
1169.021869	0.079816
1169.174765	0.083624
1169.327642	0.082987
1169.480501	0.085092
1169.633343	0.089729
1169.786165	0.091751
1169.938970	0.102645
1170.091757	0.098450
1170.244525	0.104583
1170.397275	0.097443
1170.550007	0.087681
1170.702720	0.069068
1170.855415	0.072993
1171.008092	0.060276
1171.160751	0.055671
1171.313392	0.052256
1171.466014	0.127550
1171.618619	0.046570
1171.771205	0.046570
1171.923772	0.046570
