sample name	sample
index	35
start time	 02-11-2021  01:00:18 PM
880	0.202102
Peak Time (s)	82.536
Peak Height 	0.2021
calc peak height	80,83
Baseline Time (s)	11.036
Baseline Value 	-0.004425
subtract baseline	10,4
Abs	0.141690
Peak Time (s)	82.536
Peak Height 	0.1417
calc peak height	80,83
Baseline Time (s)	10.036
Baseline Value 	0.005739
subtract baseline	10,3
PK_550	0.060838
Peak Time (s)	82.536
Peak Height 	0.06084
calc peak height	80,83
Baseline Time (s)	10.536
Baseline Value 	6.8986E-4
subtract baseline	10,2
PK_880	0.136690
Peak Time (s)	81.034
Peak Height 	0.1367
calc peak height	80,83
Baseline Time (s)	10.536
Baseline Value 	3.2522E-4
subtract baseline	10,1


Time (s)	A880-A510	A880-A775	A880-A975	A880	I510	I775	I975	I880	
0.035000	-0.001304	-0.000679	-0.007394	0.001781	4593.981614	19805.135328	3289.386872	10728.469365
0.536000	0.001529	0.000474	-0.009711	0.004135	4595.822523	19758.604836	3285.127532	10686.236284
1.071000	-0.002827	-0.003743	-0.011753	0.003850	4580.249473	19607.273909	3283.537135	10691.345149
1.541500	0.002560	0.000933	0.001015	0.001701	4609.197885	19870.863375	3297.246490	10729.915039
2.036500	-0.001003	-0.000760	-0.005875	0.000090	4601.648768	19867.664774	3292.340119	10758.942455
2.537000	-0.001473	0.000192	0.001579	0.002212	4591.684022	19822.212745	3297.296686	10720.729289
3.037500	-0.000645	-0.000722	-0.011680	0.002740	4592.833213	19766.333846	3284.607470	10711.239783
3.537500	-0.001912	-0.000369	0.010541	0.002726	4588.032194	19780.549213	3305.272686	10711.495560
4.035000	-0.004281	0.000329	0.001040	0.002756	4578.878191	19806.397940	3296.284723	10710.944994
4.535000	0.000868	-0.000866	-0.005389	0.002495	4599.589918	19770.192126	3290.572247	10715.630291
5.035500	0.001742	-0.001483	0.000577	0.001935	4605.126826	19768.013229	3296.619066	10725.704473
5.538500	0.002043	-0.001113	-0.002133	-0.002407	4623.166544	19951.311543	3298.145910	10804.181914
6.035500	-0.000296	-0.001317	0.005668	-0.001003	4608.609085	19888.571449	3304.184311	10778.723746
6.536500	-0.003010	-0.000616	-0.003909	0.002443	4584.916991	19781.898472	3291.983380	10716.570912
7.037000	0.000835	0.001042	-0.010814	0.003271	4596.477136	19814.074308	3284.910552	10701.709157
7.597000	0.003346	0.001556	-0.006448	0.001259	4613.959180	19912.340962	3290.735434	10737.864416
8.034000	0.003454	0.000510	-0.003668	0.000074	4618.992469	19917.791575	3294.399195	10759.235892
8.540500	-0.000175	-0.001423	0.003507	-0.001330	4610.343964	19897.175655	3302.443414	10784.641658
9.035000	-0.002705	-0.001903	-0.006978	-0.001192	4600.031481	19873.101490	3292.506610	10782.141144
9.535000	0.004308	0.000417	0.000773	-0.000780	4625.661029	19947.512864	3299.344953	10774.676488
10.035500	0.001013	0.000626	0.000000	0.001572	4603.709249	19863.940493	3296.419283	10732.234886
10.536000	0.000000	0.000000	-0.010618	0.001756	4599.095734	19832.461855	3286.465352	10728.929960
11.035500	-0.001171	-0.001569	0.001005	0.000000	4601.349600	19839.702940	3298.830966	10760.576434
11.536500	0.001251	0.000124	-0.002872	0.002137	4602.448048	19822.462832	3293.225251	10722.070793
12.036500	-0.001064	-0.001824	-0.003866	-0.000040	4601.917204	19831.373962	3294.321733	10761.300986
12.537000	0.003517	0.000464	-0.005476	0.001809	4612.484634	19848.400787	3291.123415	10727.959347
13.034500	0.001719	-0.000401	-0.008932	0.000741	4609.659261	19856.334475	3288.930966	10747.209716
13.534500	-0.002220	-0.001232	-0.012193	-0.000171	4597.964083	19859.425354	3286.784736	10763.659036
14.035000	0.000232	-0.000597	-0.004040	0.000723	4603.971262	19849.392292	3293.452455	10747.526799
14.535500	-0.000715	-0.001577	-0.007055	0.000058	4602.882942	19837.163799	3291.281799	10759.531041
15.038500	-0.001054	-0.000620	-0.007593	0.000126	4601.313136	19871.720974	3290.724159	10758.295089
15.536000	-0.000419	0.000426	0.002494	0.001903	4596.917365	19843.276379	3298.442383	10726.280847
16.036000	0.004195	-0.001428	-0.003638	0.000463	4620.364393	19827.209180	3294.066436	10752.226112
16.536500	0.000461	-0.002276	-0.000741	-0.000853	4610.959247	19845.395291	3297.993689	10776.002442
17.036500	0.000622	0.000814	0.001556	0.001865	4601.069849	19859.856369	3297.599321	10726.961872
17.534500	-0.001765	-0.000485	-0.000161	0.001345	4593.889022	19829.580797	3296.480598	10736.320529
18.034500	0.004561	0.000795	-0.011524	0.001915	4616.134536	19857.175741	3285.496664	10726.065260
18.535000	-0.001702	-0.003184	0.000704	-0.001429	4604.815454	19832.457790	3299.890405	10786.429261
19.035500	0.001515	0.000253	-0.002051	0.001135	4607.337311	19866.425434	3294.915281	10740.094505
19.537500	-0.001378	-0.000604	-0.002573	0.001085	4596.372341	19835.027107	3294.477328	10740.997884
20.036000	-0.001607	-0.000477	-0.000511	-0.003852	4614.575501	20032.904585	3301.028597	10830.463990
20.536500	0.003929	-0.000343	-0.000245	-0.000240	4622.071208	19896.764196	3297.883848	10764.918482
21.052500	0.002297	0.000062	0.006567	0.000975	4610.988349	19865.189281	3303.158301	10742.981041
21.537500	-0.000594	-0.000758	-0.003800	-0.000176	4604.252149	19878.082672	3294.509036	10763.748106
22.037500	-0.001744	0.000658	-0.002535	0.000636	4596.694731	19901.669444	3294.930309	10749.102901
22.534500	0.001315	0.000923	-0.004159	0.000823	4607.776108	19904.687849	3293.250280	10745.729688
23.053000	-0.002133	-0.001327	-0.005091	0.000699	4594.955504	19821.948540	3292.502324	10747.961159
23.534500	-0.003123	-0.001203	-0.008978	0.001021	4589.923154	19814.281603	3288.632169	10742.156230
24.035500	0.000708	-0.001238	-0.010204	0.001027	4604.637386	19812.706061	3287.506234	10742.051190
24.599500	0.003892	0.000128	-0.006775	0.000355	4619.603701	19891.930415	3291.265945	10754.165108
25.036000	-0.000043	-0.000341	-0.000734	0.003721	4591.374824	19743.085694	3293.738100	10693.641594
25.536500	0.001284	-0.001461	-0.001728	-0.001401	4616.285676	19898.453192	3297.582486	10785.925980
26.037000	-0.001293	-0.002002	0.005027	-0.001465	4606.538179	19879.856958	3304.013912	10787.088809
26.537000	0.003916	0.000796	0.000551	0.000109	4620.657484	19927.603737	3298.303381	10758.613762
27.037000	-0.000677	-0.001886	0.001978	0.001237	4598.488208	19779.437188	3298.583553	10738.269272
27.534500	0.001077	0.000215	-0.003399	0.001779	4603.159431	19839.908331	3293.068674	10728.513464
28.035000	-0.001018	-0.001078	-0.005479	0.000491	4600.043389	19839.707335	3292.335832	10751.705959
28.535500	0.002793	-0.001081	-0.001859	0.000541	4614.602478	19837.641121	3295.647452	10750.807269
29.035500	0.000437	-0.001191	-0.010247	0.001120	4603.229937	19810.887133	3287.382415	10740.364358
29.536000	-0.004046	-0.001755	-0.010535	0.000361	4588.914530	19818.482805	3287.811951	10754.059106
30.036000	-0.000444	-0.000779	0.005765	0.001114	4599.854994	19827.101257	3302.266473	10740.473339
30.536000	0.001189	-0.001458	-0.002890	0.000697	4607.772946	19816.949945	3294.543223	10747.997377
31.036500	-0.002812	0.000138	-0.001941	0.001994	4587.386771	19828.548716	3294.219931	10724.637603
31.537000	0.001134	-0.001118	-0.008172	0.000659	4607.706442	19831.628114	3289.702436	10748.677531
32.037500	0.001044	-0.000499	0.001270	0.000631	4607.469676	19856.781749	3298.487087	10749.190948
32.534500	0.002733	-0.001073	-0.000449	0.000872	4613.081834	19825.113523	3296.652874	10744.837887
33.034500	0.000909	-0.001760	-0.011940	0.000413	4607.788163	19816.257490	3286.483306	10753.114002
33.535500	-0.001192	0.001172	-0.009033	0.002482	4591.722857	19849.794138	3287.248079	10715.875567
34.038500	0.000135	-0.001001	-0.006422	0.000964	4602.666730	19824.317832	3291.030478	10743.176114
34.535000	-0.000049	-0.000323	-0.005787	0.001446	4600.100208	19831.954941	3291.172250	10734.507027
35.036000	-0.000841	-0.000139	-0.010760	0.001359	4597.383682	19842.470032	3286.696601	10736.059941
35.536500	-0.002966	-0.000570	-0.002523	0.001338	4589.310835	19826.557247	3294.289510	10736.447078
36.037000	-0.000082	-0.000090	-0.007538	0.001491	4599.799607	19839.245741	3289.520916	10733.694880
36.533500	-0.000830	0.000776	0.002265	0.001800	4595.733143	19860.894273	3298.324124	10728.133996
37.037000	0.003464	-0.000784	0.000927	-0.002961	4630.899708	19985.901018	3301.545578	10814.246411
37.534500	-0.001328	0.000556	-0.003881	0.000498	4598.824581	19903.068966	3293.808952	10751.589248
38.035500	0.000984	-0.000401	0.005063	-0.000900	4613.173635	19920.265421	3303.511356	10776.852610
38.538500	-0.001270	-0.001354	-0.007588	-0.001097	4605.203607	19890.775359	3291.855809	10780.418850
39.036000	0.000184	-0.000528	-0.000631	-0.000573	4608.798566	19902.513786	3297.833428	10770.925586
39.536000	0.001604	-0.000002	-0.006207	0.000697	4609.378868	19873.511228	3291.474283	10747.988021
40.036000	0.000788	-0.000021	-0.000018	-0.000326	4610.184473	19912.658488	3298.176637	10766.463483
40.561500	-0.001991	0.000273	0.000966	0.000586	4595.937003	19888.599703	3298.245010	10750.002461
41.034000	-0.000116	0.000585	-0.002701	0.002463	4595.925836	19827.692747	3293.081447	10716.214158
41.534500	-0.002499	-0.001105	-0.009495	0.001543	4590.315803	19797.861118	3287.683243	10732.759583
42.035000	0.000555	0.000759	-0.001740	0.000551	4605.886383	19908.879457	3295.748807	10750.632139
42.534500	0.001147	-0.000691	-0.002685	-0.000293	4611.445229	19885.252639	3295.654665	10765.866022
43.035500	0.003240	-0.000220	0.001679	-0.000024	4618.540035	19893.150053	3299.485967	10761.007311
43.535000	0.000512	-0.000383	-0.006508	-0.000624	4610.266294	19910.156938	3292.415550	10771.849931
44.035500	0.003028	0.001398	0.000876	-0.001499	4623.467787	20014.117938	3300.118591	10787.704105
44.536000	-0.000106	-0.002124	0.000492	-0.000315	4606.676473	19830.378484	3298.644937	10766.262874
45.036000	-0.017345	-0.019564	0.015389	0.126829	4131.461683	15054.682884	3205.847794	8773.815098
45.536000	-0.022421	-0.022864	0.000414	0.186481	3964.612799	13423.355008	3156.171626	8021.991647
46.037000	-0.026129	-0.020521	-0.009782	0.026566	4413.982473	18160.662143	3265.237090	10295.092856
46.537500	-0.002108	-0.006521	0.005305	-0.129278	5177.190780	25432.780102	3445.623487	13480.549977
47.034500	0.013979	0.003142	0.013077	-0.149984	5376.184802	27060.168508	3483.197893	13996.472509
47.535000	0.034847	0.011251	0.022593	-0.077763	5102.986894	23753.230048	3403.607258	12298.844211
48.038000	0.038165	0.021834	0.036736	-0.015460	4826.577831	21419.314392	3349.823970	11044.859302
48.535000	0.048492	0.029359	0.057708	0.036776	4651.793356	19613.994166	3317.969786	10123.625245
49.036000	0.055379	0.033308	0.066311	0.056244	4602.529474	19029.558125	3307.424855	9807.647984
49.536000	0.065263	0.040543	0.074168	0.085233	4530.398519	18244.754739	3287.658524	9362.643990
50.036500	0.078301	0.051490	0.088326	0.067288	4649.001631	19295.824521	3318.074067	9634.605623
50.537000	0.077805	0.051853	0.088291	0.079724	4598.465628	18848.086356	3305.990500	9444.938360
51.034000	0.086588	0.055200	0.106090	0.087817	4601.125434	18675.473898	3315.364792	9324.397975
51.534500	0.093124	0.057619	0.103813	0.115817	4520.370530	17776.800138	3286.801795	8924.243294
52.035000	0.097712	0.055528	0.109098	0.142676	4440.697771	16821.665054	3267.630441	8563.912869
52.535000	0.097750	0.057213	0.100606	0.139693	4451.266436	16971.400663	3262.885741	8602.839305
53.035500	0.098178	0.060008	0.107332	0.137143	4461.758420	17144.831756	3270.909664	8636.327198
53.548000	0.107529	0.062071	0.104038	0.135700	4500.392124	17259.774293	3269.294169	8655.361948
54.036000	0.109183	0.062462	0.096798	0.136920	4501.970823	17232.519031	3262.001125	8639.270466
54.536500	0.106162	0.064296	0.101162	0.139897	4480.358627	17195.028008	3263.186947	8600.165409
55.037000	0.107209	0.062443	0.092914	0.140747	4481.060771	17106.713556	3255.474886	8589.046887
55.537500	0.106899	0.062967	0.095517	0.143900	4468.717502	17021.364591	3255.014177	8548.011166
56.037500	0.110786	0.064405	0.102518	0.148477	4466.267436	16920.125106	3257.050118	8488.960455
56.535000	0.107875	0.063159	0.113343	0.152907	4440.460215	16738.939185	3262.477619	8432.403011
57.034500	0.111893	0.066018	0.105302	0.156540	4441.804026	16714.426900	3252.630964	8386.454039
57.534500	0.115246	0.065674	0.111395	0.158809	4445.590048	16631.962855	3255.826804	8357.940552
58.035500	0.116173	0.065944	0.111822	0.158914	4448.467349	16637.118428	3256.097731	8356.621938
58.536000	0.113036	0.063447	0.111178	0.160902	4430.613061	16496.680780	3253.892975	8331.772031
59.036500	0.117510	0.067861	0.115886	0.162176	4441.736781	16594.886020	3256.772270	8315.913886
59.536500	0.123465	0.066469	0.110475	0.163212	4458.996883	16518.892054	3251.386099	8303.050685
60.036500	0.118166	0.065965	0.110049	0.163882	4438.078184	16482.276208	3250.477143	8294.735527
60.537500	0.118105	0.066461	0.110730	0.168338	4422.439372	16359.605100	3247.368078	8239.832638
61.034500	0.116220	0.066244	0.114525	0.166299	4422.967597	16415.904577	3252.185059	8264.884896
61.535000	0.121079	0.066559	0.116717	0.167220	4436.599834	16397.164421	3253.243224	8253.555118
62.034500	0.122133	0.066758	0.114861	0.168342	4436.363760	16368.643745	3250.769106	8239.781680
62.535500	0.121033	0.063777	0.114185	0.170853	4423.860260	16200.202496	3248.139393	8209.084639
63.036000	0.118267	0.063838	0.117716	0.168685	4421.799779	16268.305439	3252.854417	8235.575086
63.536000	0.122981	0.064295	0.112809	0.169882	4433.956581	16245.647073	3247.806857	8220.932737
64.036500	0.123144	0.064405	0.107841	0.170197	4433.431369	16239.401539	3243.495823	8217.086899
64.537000	0.122862	0.065965	0.114417	0.177544	4407.189107	16063.691133	3242.870499	8128.159659
65.037000	0.125214	0.065000	0.126441	0.174482	4425.764561	16127.078253	3255.300958	8165.035230
65.537500	0.125903	0.063749	0.111015	0.175237	4425.538863	16066.447074	3241.985728	8155.929042
66.034500	0.125465	0.065017	0.120822	0.176534	4419.561230	16065.554355	3248.926475	8140.297284
66.535000	0.124296	0.062195	0.117650	0.179560	4405.209409	15890.326637	3243.857812	8104.019746
67.038000	0.126714	0.063396	0.124075	0.178725	4416.322704	15951.055540	3249.802002	8114.000077
67.535500	0.125217	0.062915	0.120537	0.181009	4403.411781	15868.658842	3245.027178	8086.740772
68.036000	0.126435	0.064499	0.126229	0.181414	4406.177518	15903.725201	3249.360297	8081.916050
68.536000	0.122697	0.061748	0.108204	0.181233	4394.110097	15827.390309	3234.943937	8084.074995
69.036000	0.126756	0.062823	0.120832	0.183302	4400.852769	15798.014213	3243.403265	8059.514944
69.536500	0.128139	0.065522	0.111887	0.186872	4393.443972	15772.307174	3233.399431	8017.405165
70.034000	0.126034	0.061226	0.122057	0.183480	4397.794930	15745.649682	3244.253160	8057.398503
70.537500	0.122728	0.061206	0.120706	0.189237	4367.413969	15576.778572	3238.522576	7989.696394
71.034000	0.127937	0.062591	0.125557	0.186290	4394.727801	15703.201318	3244.814553	8024.243695
71.540000	0.128450	0.063490	0.122513	0.188564	4388.788955	15662.952653	3240.511782	7997.567623
72.035500	0.125785	0.061983	0.127707	0.188012	4381.690788	15635.047911	3245.163545	8004.026234
72.536000	0.128871	0.061476	0.110519	0.193665	4373.113481	15456.607036	3227.028787	7938.227446
73.035500	0.129788	0.061913	0.124672	0.189882	4388.851160	15578.573458	3241.188128	7982.157646
73.536500	0.130763	0.063774	0.141148	0.191573	4386.445413	15583.509925	3253.308361	7962.476164
74.036500	0.130922	0.061912	0.128569	0.190592	4390.282869	15557.930438	3243.765925	7973.886167
74.536500	0.128070	0.060434	0.125235	0.195527	4364.269072	15373.352556	3237.116693	7916.734569
75.034000	0.132051	0.061363	0.128294	0.191222	4391.964930	15523.781554	3243.031430	7966.549290
75.534500	0.132394	0.061389	0.136231	0.192180	4389.890615	15496.873884	3248.730686	7955.421565
76.034500	0.133293	0.059395	0.127498	0.191054	4396.733340	15471.871403	3242.523831	7968.512742
76.535000	0.129367	0.059069	0.120823	0.197466	4362.146287	15279.323176	3232.095058	7894.454359
77.035000	0.130773	0.059383	0.122357	0.191675	4386.136166	15453.623164	3237.893189	7961.286022
77.535500	0.133875	0.060792	0.122720	0.193951	4388.914996	15428.752228	3236.370252	7934.921015
78.036000	0.134205	0.060082	0.136401	0.193710	4390.838368	15415.269581	3247.613236	7937.702389
78.536500	0.136387	0.059766	0.121579	0.193663	4398.372959	15407.558533	3235.692477	7938.244653
79.037000	0.134948	0.058844	0.131214	0.193266	4394.847419	15392.555861	3243.742634	7942.843592
79.537500	0.133316	0.059630	0.136399	0.194320	4385.793073	15384.881417	3247.112333	7930.658950
80.037500	0.135490	0.059488	0.130385	0.194528	4392.412719	15374.849912	3242.048473	7928.249101
80.534500	0.129860	0.058958	0.131056	0.199812	4356.035153	15209.860518	3238.342399	7867.637778
81.034000	0.136690	0.058919	0.129930	0.195019	4394.809029	15344.612610	3241.286023	7922.590845
81.535500	0.132891	0.058310	0.123722	0.194333	4384.319862	15346.817984	3236.862514	7930.500064
82.035500	0.134531	0.058926	0.129214	0.194847	4388.105191	15349.728668	3240.847399	7924.570512
82.536000	0.131144	0.060838	0.141690	0.202102	4352.724095	15198.286503	3245.076237	7841.589970
83.036000	0.134077	0.057613	0.141983	0.195059	4385.864172	15306.300097	3251.104275	7922.123903
83.536500	0.134775	0.057557	0.130614	0.195430	4386.965684	15294.193827	3241.505928	7917.855254
84.058500	0.139577	0.058498	0.129600	0.196166	4400.700740	15299.991354	3240.096448	7909.377841
84.559000	0.129925	0.057128	0.127053	0.201691	4350.075901	15105.721922	3233.672235	7846.257281
85.035000	0.132518	0.058203	0.138926	0.195533	4379.051833	15309.604735	3248.190104	7916.669175
85.534500	0.136253	0.057892	0.126580	0.197174	4386.070650	15254.238443	3236.876045	7897.801399
86.035500	0.140961	0.057274	0.133516	0.195648	4407.172111	15279.950646	3243.676895	7915.337172
86.535500	0.133375	0.055174	0.128449	0.200569	4365.139303	15082.473550	3235.663782	7859.006535
87.035500	0.134030	0.055712	0.138648	0.196097	4382.227809	15223.087695	3247.498662	7910.180060
