sample name	sample
index	592
start time	 03-16-2021  04:32:11 PM
880	0.430252
Peak Time (s)	182.037
Peak Height 	0.4303
calc peak height	180,183
Baseline Time (s)	11.039
Baseline Value 	-1.892E-4
subtract baseline	10,4
Abs	0.279007
Peak Time (s)	181.037
Peak Height 	0.279
calc peak height	180,183
Baseline Time (s)	11.039
Baseline Value 	0.003862
subtract baseline	10,3
PK_550	0.156238
Peak Time (s)	181.037
Peak Height 	0.1562
calc peak height	180,183
Baseline Time (s)	10.035
Baseline Value 	0.001307
subtract baseline	10,2
PK_880	0.266523
Peak Time (s)	181.037
Peak Height 	0.2665
calc peak height	180,183
Baseline Time (s)	9.534
Baseline Value 	-1.1415E-4
subtract baseline	10,1


Time (s)	A880-A510	A880-A775	A880-A975	A880	I510	I775	I975	I880	
0.034500	-0.003145	-0.000572	-0.004226	0.004368	5547.100792	33487.801201	3636.939733	18164.357999
0.538000	-0.001498	-0.001065	-0.005445	0.003317	5563.794130	33527.163813	3636.632743	18201.439534
1.035500	-0.001405	-0.001222	-0.003945	0.001805	5573.769795	33622.871843	3642.158673	18254.939673
1.539000	0.000763	-0.001196	-0.005646	-0.001507	5608.125814	33859.973669	3645.132421	18372.815578
2.035500	-0.000935	-0.000792	-0.010450	0.003576	5565.680544	33528.166176	3627.066483	18192.314153
2.536500	0.001784	-0.000358	-0.007993	-0.000315	5607.047178	33834.777003	3638.618644	18330.306084
3.036500	0.000831	-0.001304	-0.005024	-0.003147	5618.919337	33969.391142	3649.322562	18431.489769
3.536500	0.002128	-0.000713	-0.000541	-0.000968	5613.341222	33855.996003	3653.615108	18353.579468
4.037000	-0.002025	-0.001913	-0.011192	0.002981	5562.608870	33491.127062	3626.801805	18213.334345
4.537000	0.000068	-0.001471	-0.001644	-0.001513	5603.782514	33840.855160	3652.573021	18373.029393
5.037000	0.003497	-0.000853	-0.001297	-0.001309	5624.167898	33870.314020	3652.838233	18365.728612
5.535000	-0.000343	0.000286	0.004847	-0.000184	5592.842693	33871.297267	3662.258211	18325.616906
6.035500	-0.000106	-0.000952	-0.000064	-0.000816	5598.305341	33828.177945	3654.222479	18348.158819
6.536000	0.002774	-0.001300	-0.000849	-0.001177	5618.754857	33829.075461	3653.429458	18361.037655
7.036000	0.002217	-0.000200	-0.002860	0.000018	5607.680841	33822.316843	3647.464680	18318.434012
7.536000	0.001467	0.000285	0.008418	-0.000033	5603.270791	33860.488730	3668.738988	18320.250821
8.036500	0.002677	-0.000271	0.001598	-0.000222	5612.098352	33834.334947	3656.221239	18326.989816
8.536500	-0.000260	-0.000999	-0.004538	-0.000782	5597.118945	33822.399681	3645.840767	18346.941725
9.037000	0.001693	-0.000913	0.001058	-0.000707	5608.947427	33823.159024	3656.118076	18344.268553
9.534500	0.000000	0.000369	0.000511	-0.000002	5593.854528	33864.259649	3653.775368	18319.138201
10.035000	0.001455	0.000000	-0.001225	0.000084	5602.460493	33831.848723	3650.378248	18316.085439
10.535500	-0.000145	0.000058	0.001099	0.000235	5591.458762	33825.214178	3654.430301	18310.703383
11.038500	-0.000353	-0.000165	0.000000	0.000000	5591.631197	33826.077216	3652.817198	18319.071333
11.535500	0.002093	0.000535	-0.006095	0.000355	5604.772018	33850.628082	3640.872701	18306.441500
12.036000	0.000924	-0.000425	-0.000415	0.003381	5578.469231	33567.792462	3645.765560	18199.181652
12.536500	0.002503	0.000473	-0.007251	0.000417	5606.967828	33841.860343	3638.636529	18304.251539
13.036500	0.003316	-0.000494	0.001262	-0.002174	5628.512779	33957.781842	3659.252531	18396.649603
13.537000	0.000605	-0.000242	-0.002312	-0.000711	5602.114287	33871.263905	3649.836014	18344.401899
14.051000	-0.001528	-0.001211	-0.000147	0.004223	5557.991650	33453.067566	3644.704451	18169.467284
14.534500	0.000092	-0.001353	0.003472	0.001872	5582.693752	33608.843080	3655.806799	18252.571426
15.035500	0.000920	-0.000165	-0.003539	0.001370	5591.023918	33728.710824	3643.711510	18270.394918
15.543500	0.003134	-0.000489	0.008233	0.000141	5612.695700	33792.983942	3668.057392	18314.067508
16.035500	-0.001532	-0.000883	-0.002287	0.003003	5565.535827	33562.222866	3643.007518	18212.552159
16.536000	0.001495	0.000136	0.003536	0.000277	5601.497423	33827.811475	3658.921425	18309.219926
17.036000	0.000993	0.000053	0.001912	-0.000184	5601.240153	33854.724638	3656.737169	18325.635167
17.536500	0.001237	0.000413	0.000565	-0.000232	5603.078296	33883.797253	3654.305879	18327.333907
18.036500	-0.001843	-0.000062	-0.005532	0.003714	5559.191238	33569.950412	3635.749780	18187.437181
18.537000	0.000250	-0.000749	-0.005099	0.000511	5592.204879	33748.188076	3642.417431	18300.884734
19.037500	-0.001037	-0.001111	-0.000227	0.000556	5583.863744	33719.216829	3651.356248	18299.276447
19.538000	0.002195	0.000410	0.001218	0.002195	5593.844103	33710.894058	3650.996515	18241.140335
20.035500	0.002757	0.000116	-0.004608	0.003627	5588.387434	33588.667002	3637.597300	18190.486995
20.538500	0.000936	-0.000013	-0.002754	0.001810	5588.360358	33708.205739	3644.346681	18254.760784
21.035500	0.000691	-0.000077	0.000081	0.001147	5590.976634	33750.724379	3650.830626	18278.278329
21.535500	0.003027	0.000100	-0.003655	0.002047	5599.997185	33699.384533	3642.247703	18246.370547
22.036500	0.001277	-0.000383	-0.004887	0.002971	5583.230871	33599.737931	3638.287537	18213.675219
22.536000	-0.000190	-0.000600	-0.001159	0.001651	5582.309601	33677.860678	3647.590375	18260.401412
23.037000	0.002978	-0.000957	-0.002835	0.000720	5608.053826	33718.595346	3646.211776	18293.479125
23.534500	0.000145	-0.000169	0.002542	0.001627	5584.558131	33710.139731	3654.526095	18261.260516
24.037500	0.000864	0.000198	0.001072	0.002057	5586.364701	33705.686244	3650.981108	18246.022210
24.535000	-0.001415	-0.000036	-0.000970	0.001922	5572.980890	33698.642841	3647.439582	18250.818750
25.035500	0.000631	0.000090	-0.004904	0.002252	5583.690617	33684.194818	3639.575764	18239.131340
25.535500	0.003040	-0.000907	-0.001614	0.001483	5603.630287	33668.006732	3647.059863	18266.376568
26.035500	0.004003	0.000326	-0.002468	0.003581	5596.492198	33606.764196	3641.610053	18192.127413
26.536500	0.000271	-0.000492	0.002735	0.001980	5583.137390	33662.213490	3654.226989	18248.753619
27.036500	0.003425	-0.000237	0.000173	0.001523	5605.806532	33712.670633	3650.301991	18264.951531
27.536500	0.000769	0.000314	0.001941	0.001759	5587.640526	33735.031249	3653.157704	18256.590348
28.037500	-0.000783	-0.000697	-0.007898	0.004681	5559.768971	33457.004508	3629.685989	18153.356280
28.537000	-0.000266	0.000237	-0.001588	0.000666	5588.001504	33807.312689	3648.623752	18295.386418
29.034500	0.002141	-0.000435	0.002775	-0.000296	5609.178807	33827.947358	3658.568078	18329.619346
29.537500	0.004269	-0.000287	-0.001182	-0.000165	5621.809534	33829.140903	3650.922203	18324.936935
30.038000	0.001261	-0.000479	-0.002344	0.006984	5558.164728	33310.602321	3635.599142	18072.443061
30.535500	0.002974	-0.000104	-0.004212	0.000444	5609.768200	33798.777550	3644.175990	18303.276504
31.036000	0.002758	-0.000088	0.002027	0.000318	5609.195853	33808.904015	3656.011764	18307.743961
31.540500	0.005939	0.000905	0.001945	0.001175	5623.902081	33818.536182	3654.255013	18277.285940
32.037000	-0.000604	-0.000642	-0.001322	0.003784	5566.443856	33524.101078	3643.346285	18184.960824
32.537000	0.001507	-0.000558	-0.002736	0.002197	5589.517405	33642.190268	3643.664930	18241.066097
33.067500	0.003939	0.000309	0.002039	0.000807	5613.571762	33802.393415	3655.119712	18290.385724
33.537500	0.002273	0.000245	0.000708	0.000857	5602.745777	33794.276987	3652.539660	18288.607026
34.035000	-0.000801	0.000541	-0.000361	0.007181	5544.212473	33368.287367	3638.868089	18065.554956
34.537500	0.002723	0.001360	0.004777	0.001813	5599.561402	33805.573687	3658.367021	18254.686936
35.035500	0.002005	0.000143	-0.004189	0.002158	5592.885431	33694.622438	3641.061880	18242.456544
35.536000	0.004223	0.000319	0.001279	0.003264	5599.869563	33628.736406	3649.122934	18203.337501
36.036000	0.001302	0.000357	0.000736	0.005073	5570.285412	33503.652444	3644.766972	18139.557485
36.536500	0.002253	0.001053	0.004888	0.003780	5584.280257	33644.141857	3654.886500	18185.107375
37.036500	0.002350	0.000750	-0.001551	0.003818	5584.646670	33620.024203	3642.863112	18183.772729
37.536000	0.001058	0.001058	0.001337	0.003795	5576.723976	33643.447718	3648.244481	18184.583281
38.034500	0.003637	0.000988	-0.001937	0.005908	5579.626969	33489.255435	3638.312703	18110.195303
38.535000	0.002808	0.000797	0.001591	0.003789	5587.695123	33625.393480	3648.728343	18184.796852
39.035000	0.002927	-0.000023	0.002278	0.003195	5592.162585	33609.360723	3651.109058	18205.762480
39.535500	0.001544	0.000642	0.003777	0.003721	5580.212311	33619.207712	3652.920584	18187.168680
40.039000	-0.001297	0.000118	0.003066	0.004937	5554.999722	33496.388671	3649.333527	18144.331761
40.536000	0.000321	0.000828	-0.003807	0.004354	5568.652809	33587.655941	3637.733736	18164.864198
41.036500	0.000401	-0.000245	0.002790	0.003497	5574.481376	33572.351400	3651.500052	18195.097634
41.536500	0.000059	0.000689	-0.004591	0.003761	5570.710522	33619.694465	3637.383470	18185.764907
42.037000	0.002203	-0.000344	-0.001756	0.004676	5578.367746	33482.182130	3640.905838	18153.508490
42.537000	0.002676	-0.000198	0.002012	0.003427	5589.134292	33580.631470	3650.182080	18197.569539
43.037500	0.002465	0.001048	0.002657	0.004585	5580.573092	33586.851864	3649.228196	18156.734244
43.535000	0.002910	0.000440	0.005115	0.003710	5588.826280	33605.708823	3655.442711	18187.567792
44.038000	0.003311	0.000350	-0.001754	0.005155	5582.298040	33497.349580	3640.029037	18136.659126
44.536000	0.000418	0.001312	0.005519	0.004674	5567.263443	33599.185186	3654.395890	18153.588922
45.035500	0.003566	0.000956	0.000310	0.000045	5616.029042	33902.824245	3653.312628	18317.479887
45.536500	0.005609	0.001185	0.000304	0.001386	5620.470565	33823.486016	3650.800571	18269.810784
46.036500	0.001842	0.000995	0.003499	0.007430	5559.004227	33382.695967	3645.516115	18056.846887
46.537000	0.004744	0.001466	0.001099	0.002325	5609.063438	33776.675610	3650.533172	18236.526388
47.037000	0.004642	0.001431	0.007253	0.002456	5607.595019	33764.851892	3661.815387	18231.883021
47.537000	0.003408	0.000546	0.000105	0.001645	5604.928840	33759.625621	3649.948489	18260.619046
48.037500	-0.000403	-0.000769	-0.003748	0.006750	5549.320023	33306.700938	3633.466133	18080.653088
48.554500	0.004904	0.001592	0.005126	0.002247	5610.570149	33791.205828	3658.207432	18239.294015
49.035500	-0.001105	0.000652	-0.002950	0.005131	5554.985146	33520.322962	3637.878142	18137.484777
49.539000	0.002839	0.001019	0.003133	0.004182	5585.423371	33613.247092	3650.862558	18170.908414
50.063000	0.002057	0.000981	-0.004227	0.008520	5553.588567	33305.281531	3629.380272	18018.751547
50.536500	0.004583	0.001353	0.005642	0.002761	5605.299206	33737.660314	3658.211047	18221.103481
51.036500	0.004182	0.001408	0.003171	0.002197	5606.324777	33781.624510	3654.636315	18241.050516
51.537000	0.004043	0.001727	0.003938	0.000399	5616.811128	33932.591054	3659.448028	18304.889488
52.037000	0.003665	0.000851	0.003190	0.008325	5564.751369	33309.852059	3643.292045	18025.545587
52.537000	0.004105	0.000041	0.003214	0.016882	5514.830897	32660.833670	3627.713153	17729.665763
53.035000	0.009045	-0.004971	0.005718	0.307163	4240.311270	17975.276448	3247.293697	10481.006116
53.538000	-0.010043	-0.017619	-0.006660	-0.070895	6003.760980	37876.458919	3781.976794	21060.331461
54.038500	-0.017305	-0.012263	-0.013277	-0.171166	6752.545378	47508.652873	4008.066267	25787.236028
54.535500	0.000934	-0.034168	0.005969	-0.310071	8445.891461	61302.829917	4520.079224	34428.836422
55.035500	0.002500	-0.019221	0.013566	-0.220792	7425.896510	52114.440282	4232.461129	28562.663086
55.536000	-0.012959	-0.010663	-0.003946	-0.154367	6642.755845	45974.269914	3988.195431	24917.322558
56.036500	-0.013119	-0.008406	-0.012156	-0.190757	6971.131829	49983.690685	4064.998503	26845.211987
56.537000	0.000605	-0.003464	-0.006678	-0.218017	7377.158086	53607.991746	4160.711245	28398.985334
57.037000	0.011422	0.001883	0.001519	-0.211999	7427.256181	53529.709732	4167.342076	28047.543736
57.537000	0.017890	0.005684	0.004459	-0.196684	7335.323011	52204.920082	4130.124098	27174.775167
58.038000	0.020859	0.008060	0.011324	-0.166493	7063.930042	49145.751047	4062.793368	25541.881643
58.535500	0.023808	0.010509	0.012784	-0.131384	6764.471195	45794.984092	3971.817424	23780.375988
59.035500	0.031385	0.011478	0.025299	-0.091372	6484.101254	42106.509614	3902.534669	21939.051663
59.535500	0.035132	0.013330	0.021699	-0.054136	6215.771017	39038.284210	3807.407591	20371.363346
60.036000	0.042443	0.017356	0.035627	-0.029392	6084.059843	37354.502283	3783.674777	19401.520947
60.536500	0.046471	0.018812	0.041051	-0.003093	5923.325996	35438.666583	3739.508927	18429.580551
61.036500	0.050139	0.020311	0.050408	0.026548	5745.981275	33396.628250	3698.577974	17402.354424
61.537500	0.056323	0.024244	0.057750	0.048428	5643.840615	32161.776807	3670.397776	16687.843463
62.037500	0.058613	0.027103	0.052268	0.084175	5438.060045	30027.238896	3595.420500	15595.219134
62.535000	0.062317	0.029434	0.061515	0.099923	5367.774842	29201.833504	3584.236111	15141.700218
63.038000	0.065187	0.032768	0.068899	0.121221	5263.942337	28135.832699	3560.850792	14553.921288
63.535000	0.069894	0.037437	0.074839	0.122534	5282.738647	28331.607525	3568.543694	14518.606213
64.054500	0.068883	0.040442	0.069465	0.117170	5307.058277	28826.531375	3568.527238	14663.497676
64.536000	0.070538	0.039683	0.072325	0.120975	5295.014176	28555.489242	3566.948924	14560.534125
65.039500	0.074047	0.040981	0.075868	0.124255	5296.292175	28438.613335	3567.387325	14472.499318
65.539000	0.076085	0.041798	0.074240	0.126653	5294.281054	28345.773765	3560.698725	14408.556055
66.037000	0.073000	0.044404	0.074590	0.137941	5215.310142	27842.034312	3542.837839	14112.244513
66.537500	0.082418	0.044483	0.076393	0.133736	5290.098184	28089.389128	3552.594104	14221.736284
67.035000	0.082512	0.046432	0.076721	0.137075	5272.072745	28008.876489	3547.687870	14134.716458
67.538000	0.085419	0.047029	0.092431	0.139301	5275.841375	27914.828652	3569.924480	14077.067597
68.035500	0.082689	0.047560	0.090679	0.147044	5218.481423	27502.748555	3554.193366	13878.844620
68.535500	0.086274	0.049291	0.088571	0.143465	5257.570870	27805.481419	3556.608510	13970.033111
69.036000	0.088207	0.049244	0.085458	0.144795	5260.887857	27726.634173	3549.340632	13936.061344
69.535500	0.093537	0.050857	0.098605	0.147233	5276.870504	27679.470076	3566.985590	13874.050432
70.036500	0.090606	0.051529	0.083100	0.156119	5212.228684	27215.150768	3527.421083	13650.993099
70.536500	0.094238	0.052062	0.093471	0.151446	5257.473585	27508.428326	3551.559901	13767.718029
71.036500	0.095894	0.052926	0.096505	0.154428	5250.193991	27388.647229	3551.645780	13693.083149
71.534500	0.100719	0.053991	0.094626	0.157399	5260.382162	27281.394554	3543.769774	13619.220046
72.035000	0.095247	0.055140	0.093482	0.166056	5183.812698	26863.374217	3528.122975	13406.863295
72.535000	0.100205	0.055519	0.106322	0.161855	5233.166850	27117.545239	3555.558453	13509.391883
73.035500	0.104834	0.056857	0.104548	0.164890	5241.860564	27023.053862	3547.707029	13435.223014
73.535500	0.105562	0.057827	0.106256	0.167719	5230.408228	26920.033023	3545.889117	13366.571349
74.036000	0.104575	0.058506	0.102678	0.175295	5184.290083	26541.448174	3528.053999	13184.856862
74.536000	0.109443	0.059699	0.105459	0.171708	5229.821206	26803.155578	3538.181118	13270.503541
75.036500	0.113812	0.062374	0.106855	0.176733	5226.258116	26674.164466	3532.392299	13150.743684
75.537000	0.113475	0.061543	0.109401	0.178222	5216.364419	26547.440472	3534.073843	13115.520896
76.037000	0.114234	0.063016	0.114254	0.180705	5207.062043	26492.532350	3537.858118	13057.053089
76.537500	0.115351	0.063283	0.112229	0.182960	5200.941324	26384.745040	3531.038109	13004.236771
77.037500	0.120314	0.066811	0.121669	0.187129	5205.209967	26350.068644	3539.445521	12907.323034
77.537500	0.122108	0.067492	0.116818	0.190064	5199.076056	26228.631419	3527.062245	12839.632718
78.035000	0.118837	0.066927	0.115725	0.191985	5171.383804	26095.459118	3522.329354	12795.600425
78.536000	0.124508	0.067041	0.121131	0.194026	5190.710316	25992.757636	3527.615977	12749.012298
79.036000	0.123653	0.069291	0.125322	0.197064	5169.986286	25950.874998	3529.436816	12680.068914
79.536000	0.125165	0.070276	0.129607	0.199983	5162.544682	25848.420087	3531.601980	12614.297713
80.037000	0.130154	0.071042	0.124433	0.202668	5174.744567	25747.164050	3519.244026	12554.160397
80.537000	0.128159	0.072092	0.126931	0.204709	5153.409108	25695.118547	3519.956814	12508.716394
81.037500	0.131473	0.073064	0.131004	0.207952	5153.788565	25576.208049	3521.253148	12436.940946
81.543000	0.134581	0.073971	0.131311	0.210444	5157.025362	25493.541763	3517.845889	12382.128479
82.038000	0.129203	0.073672	0.133139	0.218574	5086.941449	25059.187788	3508.117872	12205.530617
82.535500	0.135773	0.075373	0.136870	0.215837	5134.997888	25286.846156	3518.105249	12264.622594
83.035500	0.137859	0.077298	0.138082	0.218956	5129.613998	25225.345567	3515.144188	12197.317161
83.536000	0.138810	0.076968	0.140620	0.221920	5119.153339	25056.587727	3514.485503	12133.799268
84.036500	0.139018	0.077661	0.133219	0.229226	5082.667767	24721.681738	3492.111476	11979.092914
84.536500	0.144317	0.079257	0.135403	0.226236	5125.335918	24953.410515	3499.897005	12042.092999
85.036000	0.145016	0.079571	0.142031	0.228252	5118.503074	24867.130158	3506.914474	11999.568290
85.537000	0.144600	0.080276	0.149889	0.231987	5097.096912	24714.379220	3513.251224	11921.299006
86.035000	0.145755	0.082308	0.147636	0.233739	5094.040703	24728.454785	3507.095838	11884.828320
86.538000	0.144843	0.081849	0.150371	0.235217	5081.822783	24631.283658	3509.021491	11854.161479
87.035500	0.148350	0.082309	0.155590	0.237302	5089.080292	24550.098212	3513.847853	11811.077780
87.535500	0.149896	0.084579	0.147862	0.240768	5079.285461	24490.514074	3496.766768	11739.926386
88.035500	0.148283	0.085477	0.151615	0.249049	5029.491080	24126.523861	3489.982063	11572.216536
88.536000	0.152909	0.085635	0.148157	0.245540	5070.351277	24306.541725	3490.057047	11642.890341
89.036000	0.156405	0.086718	0.150058	0.247809	5076.581337	24248.170469	3489.509184	11597.123596
89.536500	0.152901	0.086304	0.157775	0.250891	5043.347878	24076.936988	3496.449105	11535.326529
90.037000	0.154900	0.087638	0.158811	0.258543	5015.222067	23770.976391	3486.564442	11383.810857
90.537500	0.162258	0.089470	0.165023	0.254762	5070.993488	24042.581577	3501.554209	11458.350831
91.038000	0.159694	0.089145	0.160920	0.256196	5050.810383	23957.086163	3493.205858	11430.003240
91.535500	0.160260	0.090374	0.164639	0.261190	5028.671048	23775.245270	3491.298693	11332.011505
92.035500	0.158794	0.091480	0.157441	0.267405	4990.801150	23531.030020	3471.568425	11211.630456
92.536000	0.163861	0.091711	0.170364	0.263718	5034.017882	23718.085447	3496.090869	11282.836718
93.036000	0.164377	0.093244	0.172017	0.266077	5024.849008	23678.501514	3495.030673	11237.214691
93.536000	0.164382	0.094016	0.164671	0.271463	4998.293101	23458.852073	3476.179616	11133.952859
94.036500	0.167048	0.094750	0.166512	0.276464	4986.871646	23257.788299	3471.585553	11039.228152
94.537000	0.168774	0.096110	0.175279	0.273142	5011.638028	23478.504832	3489.341488	11102.032438
95.037000	0.171955	0.095453	0.168160	0.273966	5023.304994	23408.442958	3477.619375	11086.408623
95.543000	0.167320	0.095677	0.170333	0.278584	4977.877875	23201.964680	3474.054335	10999.404767
96.037500	0.175630	0.097741	0.180051	0.279122	5015.971149	23273.436074	3487.545971	10989.326523
96.535500	0.173717	0.097683	0.173677	0.279589	5004.231157	23248.787264	3477.464606	10980.575529
97.035500	0.177557	0.099255	0.182249	0.282571	5008.451726	23182.792082	3485.688468	10925.004127
97.536000	0.175683	0.100286	0.176686	0.288600	4969.860612	22950.650637	3468.749825	10813.813731
98.036000	0.179975	0.101869	0.179017	0.287426	4996.479416	23078.393675	3473.824651	10835.357627
98.537000	0.178339	0.101591	0.178893	0.288010	4985.629369	23038.371311	3472.796765	10824.634606
99.036500	0.181231	0.101655	0.178437	0.290027	4989.896184	22947.996211	3469.217300	10787.722969
99.537000	0.181926	0.103360	0.181406	0.297508	4957.010116	22683.039816	3462.741256	10652.335417
100.037000	0.183248	0.104621	0.187809	0.294868	4976.145812	22861.593229	3475.789896	10699.842053
100.540500	0.185946	0.105079	0.188665	0.296536	4981.154544	22806.040535	3474.607241	10669.796319
101.035000	0.186481	0.104396	0.187279	0.297271	4980.183421	22741.113121	3471.527474	10656.587103
101.535000	0.187494	0.106008	0.187683	0.304929	4948.116200	22466.746319	3461.108547	10520.302306
102.035500	0.187769	0.105320	0.186723	0.300594	4970.309389	22631.829554	3465.934686	10597.158643
102.536000	0.188580	0.106140	0.184443	0.302535	4964.846544	22580.919844	3459.905821	10562.657427
103.036000	0.192615	0.109473	0.194277	0.306155	4966.851687	22567.908331	3468.801966	10498.712659
103.536500	0.187114	0.107808	0.190233	0.312127	4912.142844	22224.972176	3454.524452	10394.384859
104.036500	0.194917	0.108351	0.196603	0.308375	4967.249277	22417.103378	3468.955237	10459.761011
104.542500	0.196046	0.111141	0.192062	0.311174	4959.193821	22416.679357	3458.456507	10410.935280
105.034500	0.196913	0.110586	0.191119	0.312628	4956.367955	22326.562877	3455.066978	10385.694357
105.540500	0.198003	0.112059	0.195174	0.314405	4953.069891	22312.974450	3458.288674	10354.970332
106.035000	0.193874	0.111327	0.199896	0.321838	4898.306007	21951.303596	3454.457577	10227.783000
106.535500	0.199785	0.114580	0.198730	0.318850	4940.323647	22227.171123	3457.029365	10278.647446
107.036000	0.199450	0.113268	0.197615	0.319441	4935.912361	22142.599190	3454.619489	10268.554735
107.536000	0.203609	0.114481	0.206969	0.320944	4948.592793	22129.759816	3465.785545	10242.961236
108.035500	0.199004	0.114512	0.201591	0.328227	4892.425710	21811.241573	3447.878526	10120.179030
108.536500	0.202568	0.115981	0.211966	0.323972	4929.196814	22062.233805	3468.618192	10191.668771
109.038500	0.201415	0.115176	0.201482	0.325791	4915.139368	21946.739275	3451.130103	10161.010384
109.543000	0.207035	0.117622	0.212862	0.328441	4929.188760	21937.796321	3463.488299	10116.602534
110.037500	0.200266	0.114588	0.197115	0.332862	4876.766343	21613.687389	3435.311923	10043.102805
110.535000	0.205467	0.117586	0.213306	0.330860	4910.358063	21830.471722	3460.671197	10076.297260
111.035000	0.208406	0.119220	0.212932	0.332734	4915.369117	21820.001731	3457.478662	10045.216871
111.536000	0.203591	0.117478	0.211296	0.338657	4865.377201	21488.871276	3446.868215	9947.882430
112.035500	0.208451	0.118662	0.216221	0.340712	4878.313767	21451.615418	3450.875564	9914.420736
112.536000	0.209279	0.118160	0.210685	0.334916	4909.208476	21679.207903	3451.239428	10009.205757
113.036500	0.211138	0.120260	0.212184	0.337548	4905.580760	21656.236095	3449.655039	9966.019783
113.537000	0.210912	0.120872	0.205649	0.345484	4867.652608	21342.494889	3429.758571	9837.334314
114.037000	0.211581	0.123019	0.217581	0.347889	4859.677541	21331.559312	3442.781976	9798.810656
114.535000	0.215145	0.122133	0.214671	0.342066	4903.183412	21542.335271	3446.821927	9892.468890
115.037500	0.214984	0.123126	0.212804	0.343908	4893.820066	21505.879388	3441.682946	9862.703144
115.535000	0.213334	0.121332	0.211652	0.349714	4859.342947	21183.027758	3432.160185	9769.701815
116.035500	0.216631	0.122622	0.218611	0.345229	4895.344069	21427.870734	3447.904518	9841.439931
116.536000	0.217096	0.122217	0.221562	0.345477	4896.357091	21400.007759	3451.682855	9837.448863
117.036000	0.218748	0.123297	0.216449	0.346906	4897.395657	21385.153221	3442.575669	9814.529200
117.536500	0.215736	0.122606	0.228415	0.354312	4849.303989	21043.566362	3448.909406	9696.935513
118.036000	0.220553	0.125901	0.222847	0.351409	4884.834101	21304.478203	3445.200872	9742.791985
118.542500	0.220169	0.125315	0.221531	0.351435	4882.926589	21278.504250	3443.340219	9742.370648
119.037000	0.223655	0.125786	0.222726	0.352711	4893.204832	21244.475099	3443.228191	9722.186273
119.540000	0.220718	0.127856	0.227638	0.361465	4839.426597	20964.212844	3437.938107	9585.245028
120.034000	0.223923	0.128519	0.224403	0.356541	4876.669651	21198.219249	3440.258128	9661.937424
120.535500	0.221726	0.128840	0.238015	0.357452	4862.345647	21173.362741	3457.996177	9647.678301
121.035500	0.221801	0.127336	0.231998	0.357497	4862.481866	21108.238469	3449.464499	9646.970506
121.535500	0.222850	0.127985	0.221606	0.364513	4835.273965	20843.185961	3425.619297	9538.207258
122.036000	0.225807	0.129603	0.230138	0.360707	4866.138684	21068.729262	3442.420366	9596.987994
122.536500	0.228620	0.130113	0.233917	0.361603	4874.980722	21052.635055	3446.417266	9583.113273
123.036500	0.231428	0.131650	0.232593	0.363455	4879.398925	21039.434740	3442.016755	9554.491164
123.537000	0.231114	0.131559	0.236649	0.364843	4871.537200	20977.726179	3445.711398	9533.132594
124.037500	0.227555	0.129909	0.229354	0.363520	4861.247445	20964.139583	3437.473404	9553.495316
124.535000	0.230825	0.131365	0.237027	0.365198	4868.570074	20954.926656	3445.743174	9527.685114
125.035000	0.230492	0.131128	0.231706	0.365994	4863.376900	20912.000109	3437.307068	9515.475298
125.535500	0.226703	0.131895	0.231270	0.373754	4811.021481	20624.177649	3426.186921	9397.596987
126.035500	0.225597	0.131532	0.230056	0.374173	4804.214528	20592.272519	3423.996503	9391.294978
126.536000	0.232848	0.132884	0.232872	0.369568	4857.785889	20836.715553	3434.016415	9460.914995
127.035500	0.234675	0.134817	0.237560	0.371624	4856.737837	20831.619307	3437.613008	9429.738891
127.542000	0.232775	0.131589	0.233584	0.377057	4823.448349	20477.461416	3424.859773	9348.067730
128.036500	0.227492	0.131465	0.228558	0.376447	4802.527970	20497.181211	3418.969308	9357.190583
128.540000	0.236078	0.135275	0.234507	0.373552	4854.335252	20771.031469	3430.827030	9400.645028
129.040000	0.235961	0.133986	0.243102	0.373748	4852.904729	20710.013734	3442.314657	9397.693817
129.535000	0.230430	0.134045	0.228053	0.380128	4799.215529	20452.547449	3413.438351	9302.341807
130.035000	0.235024	0.134654	0.240478	0.382646	4808.467064	20375.551871	3426.611343	9265.095612
130.536000	0.238920	0.136403	0.243136	0.377223	4850.549774	20666.640864	3437.581455	9345.580061
131.035500	0.238562	0.136630	0.242681	0.377885	4845.902119	20648.862842	3436.054301	9335.713768
131.536500	0.236988	0.135812	0.232096	0.383310	4814.286095	20395.468945	3414.572704	9255.314837
132.036000	0.236051	0.137093	0.240065	0.386246	4797.011912	20328.922098	3421.240716	9212.231406
132.537000	0.237115	0.137378	0.237262	0.380193	4828.880067	20585.229298	3425.587210	9301.390838
133.037000	0.242900	0.138173	0.241340	0.381997	4846.925565	20544.118017	3428.647216	9274.675570
133.540000	0.236558	0.137198	0.234981	0.387418	4794.061190	20286.127919	3412.963888	9195.107949
134.034500	0.236887	0.139968	0.242123	0.390317	4782.700902	20280.969471	3418.563820	9152.956836
134.535000	0.241690	0.137571	0.241396	0.382704	4838.214806	20491.025289	3427.768539	9264.240029
135.035000	0.242329	0.138398	0.251236	0.384202	4834.324384	20463.854806	3439.120091	9242.197006
135.535500	0.241525	0.139142	0.238749	0.391972	4795.891229	20181.879916	3411.931716	9129.015334
136.035500	0.242806	0.140805	0.249881	0.386877	4824.400499	20453.025559	3433.610014	9203.007361
136.536500	0.245301	0.140062	0.247911	0.386625	4836.809679	20433.174916	3431.276172	9206.684659
137.036500	0.243072	0.139821	0.254682	0.386876	4825.605126	20413.345111	3440.182008	9203.021620
137.536500	0.243120	0.141298	0.239351	0.394060	4793.705992	20184.596836	3409.987215	9098.947100
138.037000	0.241717	0.140969	0.248641	0.395791	4779.863177	20102.808969	3419.950321	9074.136176
138.537500	0.245114	0.139930	0.246596	0.388844	4825.933841	20338.482012	3426.503758	9174.335530
139.034500	0.244374	0.141103	0.244462	0.389977	4817.508860	20340.068742	3422.127811	9157.880405
139.535500	0.246090	0.141832	0.250825	0.391292	4819.310786	20316.564514	3428.903787	9138.845684
140.035000	0.245553	0.140868	0.258492	0.390984	4818.283782	20290.270691	3439.769910	9143.293436
140.535500	0.246746	0.141988	0.257347	0.392082	4818.707657	20291.134168	3436.693913	9127.425301
141.036000	0.246914	0.142338	0.243372	0.392733	4816.541343	20279.094787	3417.018041	9118.043998
141.536500	0.247219	0.143817	0.250394	0.397658	4795.925519	20141.688728	3419.798478	9047.471293
142.036500	0.242660	0.142601	0.252469	0.400135	4764.951706	19995.679049	3419.264507	9012.284149
142.537000	0.251204	0.144761	0.257395	0.396359	4819.523638	20231.022408	3430.936579	9066.011759
143.040000	0.247129	0.142838	0.255009	0.395066	4807.065988	20205.910265	3429.458570	9084.517482
143.535000	0.247143	0.143627	0.252385	0.399221	4788.668356	20072.231655	3420.367978	9025.241950
144.035000	0.250224	0.143384	0.255998	0.396512	4814.436247	20170.022836	3428.839477	9063.817047
144.535500	0.253908	0.145747	0.250165	0.398094	4823.880870	20201.151502	3418.915670	9041.267374
145.035500	0.248852	0.143538	0.249174	0.396447	4808.592709	20178.771239	3419.787048	9064.755743
145.536000	0.250593	0.144347	0.250215	0.400579	4797.943409	20047.031163	3415.693751	9006.001059
146.035500	0.250348	0.144408	0.259137	0.398887	4804.375797	20116.382949	3429.872475	9029.981154
146.539000	0.253541	0.144080	0.261935	0.399119	4817.622845	20094.199324	3433.353512	9026.691327
147.037000	0.254824	0.145378	0.260117	0.400266	4818.232496	20100.183108	3429.333099	9010.424294
147.537000	0.252602	0.145311	0.258407	0.403770	4792.693712	19959.294541	3422.330812	8961.001972
148.037000	0.254264	0.146636	0.258693	0.401607	4809.716356	20096.881948	3425.609450	8991.465316
148.534500	0.255111	0.147206	0.266549	0.403177	4806.487366	20057.328906	3434.110625	8969.335629
149.035000	0.253020	0.145867	0.260779	0.401508	4804.606979	20070.353419	3428.550061	8992.861147
149.535500	0.254493	0.145868	0.264525	0.406095	4790.774391	19889.956121	3427.418118	8928.431542
150.036000	0.251611	0.146135	0.260675	0.403150	4791.053648	20016.098275	3426.199693	8969.715578
150.541000	0.259173	0.149370	0.260334	0.405108	4816.019245	20066.522294	3423.117000	8942.228260
151.036000	0.253762	0.147334	0.259832	0.404263	4795.654167	20019.504244	3423.576814	8954.077412
151.539500	0.251216	0.149326	0.267165	0.409885	4759.746229	19876.946732	3425.869258	8875.691387
152.037000	0.249691	0.145082	0.252034	0.409791	4753.527187	19715.464346	3406.019234	8877.003234
152.537000	0.255769	0.147255	0.255970	0.405000	4801.295476	19987.347617	3417.455478	8943.741740
153.034500	0.257705	0.149088	0.266146	0.407561	4798.515954	19958.704461	3427.625562	8907.972083
153.535000	0.250170	0.146540	0.251477	0.408637	4760.623180	19816.900543	3406.794077	8893.005165
154.035000	0.257390	0.148876	0.269273	0.407078	4799.264690	19969.348604	3432.509177	8914.700096
154.535500	0.257589	0.148465	0.257853	0.406905	4800.915871	19960.031271	3417.427212	8917.113465
155.035500	0.256577	0.146904	0.252881	0.407224	4795.004644	19886.300046	3410.465654	8912.666736
155.536000	0.257096	0.149540	0.268574	0.412141	4775.596757	19797.290264	3424.733631	8844.528519
156.036000	0.257232	0.147493	0.259911	0.407194	4798.048798	19910.572352	3419.773535	8913.091625
156.536500	0.258648	0.149981	0.268895	0.410098	4791.446692	19894.248968	3427.910535	8872.742253
157.036500	0.259705	0.148081	0.262402	0.408421	4803.586546	19885.494523	3421.455596	8896.003211
157.537500	0.260175	0.149457	0.265340	0.410106	4798.183040	19873.449942	3423.127896	8872.633691
158.034500	0.254728	0.148680	0.251888	0.415851	4749.090704	19620.369138	3398.024454	8793.618470
158.535500	0.262021	0.150643	0.258649	0.411701	4799.295669	19857.431980	3412.155392	8850.585223
159.035500	0.261311	0.149829	0.261732	0.411235	4798.215996	19843.877684	3416.831185	8857.027741
159.538500	0.262422	0.151466	0.269615	0.412474	4797.646810	19859.404534	3425.683763	8839.933942
160.036000	0.252792	0.150046	0.260032	0.417548	4733.419331	19607.599582	3406.331561	8770.471366
160.536500	0.257049	0.149546	0.262552	0.411610	4777.721271	19818.201644	3417.418726	8851.849182
161.036500	0.257653	0.150121	0.264400	0.412372	4777.027329	19810.936608	3418.859088	8841.348454
161.539500	0.260105	0.152327	0.262204	0.417058	4767.234179	19714.562765	3409.797880	8777.145144
162.040000	0.257967	0.149079	0.260130	0.418867	4750.056194	19519.869881	3404.748737	8752.555345
162.534000	0.261901	0.151689	0.258407	0.414299	4787.251816	19796.939285	3408.442932	8814.858221
163.037500	0.265106	0.151588	0.257467	0.414037	4802.632716	19803.208385	3407.560658	8818.453728
163.535500	0.258503	0.150591	0.269458	0.415765	4765.879448	19697.411720	3421.071143	8794.785569
164.035500	0.260499	0.151519	0.268881	0.421226	4750.806165	19522.949719	3413.084402	8720.630173
164.536000	0.261453	0.150727	0.265403	0.414140	4785.978362	19765.721720	3417.844043	8817.039879
165.036000	0.262861	0.151052	0.268817	0.414623	4790.066467	19759.575064	3421.739675	8810.421207
165.536500	0.265270	0.153267	0.272165	0.418109	4785.304184	19710.299655	3421.555298	8762.842258
166.036000	0.255545	0.150314	0.266986	0.421654	4727.620705	19460.563132	3410.041231	8714.854122
166.540000	0.259748	0.152610	0.270639	0.416622	4767.576431	19742.463002	3421.504207	8783.089047
167.037000	0.260972	0.153955	0.268190	0.417475	4769.199449	19761.530424	3417.117743	8771.463876
167.535000	0.261260	0.152881	0.271998	0.418517	4765.903016	19679.563936	3420.789319	8757.301645
168.035000	0.258413	0.152061	0.265265	0.423192	4733.325158	19468.521612	3405.798192	8694.157957
168.538500	0.261933	0.151941	0.266358	0.417529	4773.172680	19681.439114	3414.628752	8770.730962
169.036500	0.264642	0.151700	0.275524	0.417336	4785.943430	19679.565694	3427.090609	8773.355496
169.536500	0.266339	0.152602	0.272219	0.418932	4786.389984	19652.765672	3420.530941	8751.665530
170.036000	0.265298	0.153623	0.272347	0.418598	4783.272360	19705.128774	3421.146419	8756.197357
170.537000	0.261050	0.152871	0.272626	0.418583	4764.699377	19676.619799	3421.538618	8756.400732
171.037000	0.263135	0.153705	0.265630	0.419624	4769.261111	19668.634951	3410.922163	8742.285396
171.537500	0.266143	0.153826	0.272182	0.421133	4775.833177	19615.095278	3417.560275	8721.879964
172.037000	0.261454	0.153821	0.269102	0.425985	4734.390652	19429.149258	3407.153879	8656.757329
172.534500	0.263911	0.152926	0.270831	0.419756	4772.083470	19633.477002	3417.594082	8740.496502
173.035500	0.265971	0.154342	0.264620	0.420534	4777.710203	19658.108508	3408.415666	8729.975411
173.536000	0.264693	0.154233	0.272545	0.420921	4770.402002	19638.931533	3418.321967	8724.740418
174.035000	0.264717	0.152337	0.273848	0.419660	4776.041334	19614.500877	3421.732686	8741.803445
174.536000	0.266562	0.153392	0.269378	0.420275	4781.448941	19631.442942	3414.989915	8733.470812
175.036500	0.265302	0.153222	0.266065	0.420000	4777.118686	19635.470723	3410.999401	8737.195303
175.536500	0.267352	0.154560	0.277983	0.421293	4780.447876	19637.244607	3425.078492	8719.729620
176.039000	0.266342	0.154854	0.273702	0.422057	4772.651717	19619.105848	3418.350438	8709.425950
176.534500	0.262946	0.152837	0.260252	0.420421	4764.955412	19604.445531	3402.898154	8731.507421
177.034500	0.265373	0.154040	0.263937	0.421503	4770.834128	19609.117098	3406.267095	8716.894669
177.535000	0.269220	0.154333	0.269647	0.422659	4782.662067	19575.961293	3412.209030	8701.328487
178.035000	0.268866	0.155779	0.275285	0.423434	4777.691922	19601.710868	3418.624223	8690.910001
178.536000	0.267732	0.155688	0.268182	0.423414	4772.798707	19598.994241	3409.304706	8691.173598
179.036000	0.266684	0.155091	0.261287	0.423307	4768.678141	19580.154805	3400.515699	8692.619364
179.536000	0.268405	0.154951	0.272692	0.423224	4776.584630	19577.940495	3415.470006	8693.721428
180.036000	0.261777	0.154063	0.266636	0.429141	4722.258209	19318.557998	3399.891425	8614.781827
180.537000	0.266023	0.154220	0.272278	0.423076	4766.798890	19555.614321	3415.121014	8695.721701
181.037500	0.266523	0.156238	0.279007	0.424215	4764.003706	19589.324628	3422.537051	8680.425098
181.534500	0.263894	0.154783	0.270373	0.423449	4755.890344	19562.861614	3412.124579	8690.704640
182.037500	0.262839	0.155978	0.269460	0.430252	4722.049557	19349.032039	3402.094684	8600.080073
182.535000	0.265067	0.156019	0.271180	0.424894	4754.708247	19554.847763	3411.288506	8671.339065
183.035500	0.267051	0.155052	0.272974	0.424553	4764.835300	19530.854695	3414.091700	8675.899709
183.536000	0.266595	0.155011	0.273549	0.424638	4762.474218	19526.016446	3414.736941	8674.759502
184.036000	0.265867	0.154229	0.272830	0.423638	4763.662541	19534.377450	3415.107502	8688.174529
184.536000	0.263269	0.154931	0.267429	0.424498	4748.627153	19528.320643	3406.912336	8676.636893
185.037000	0.267628	0.157086	0.273612	0.425611	4762.735144	19568.254786	3413.538880	8661.744878
185.609500	0.268135	0.154201	0.268183	0.424621	4769.276675	19495.669005	3407.732486	8674.989739
186.034500	0.263030	0.154390	0.270053	0.430709	4720.913409	19271.720161	3402.269593	8594.041837
186.537000	0.267524	0.155795	0.264650	0.425332	4763.498307	19529.485715	3402.236611	8665.483239
187.035000	0.266249	0.156525	0.275453	0.426484	4752.940808	19513.325150	3414.814179	8650.102713
187.534500	0.268252	0.156057	0.281509	0.427648	4756.584088	19450.979689	3421.295938	8634.604270
188.035500	0.269217	0.156275	0.266203	0.432644	4739.138606	19269.814239	3394.864074	8568.547903
188.539000	0.269257	0.157064	0.273141	0.427041	4763.603053	19512.643846	3411.045000	8642.679233
189.036000	0.268135	0.157973	0.275165	0.428054	4754.306556	19508.627198	3412.369290	8629.200164
