sample name	sample
index	47
start time	 02-11-2021  02:10:54 PM
880	0.200588
Peak Time (s)	82.537
Peak Height 	0.2006
calc peak height	80,83
Baseline Time (s)	10.537
Baseline Value 	-0.002821
subtract baseline	10,4
Abs	0.127147
Peak Time (s)	82.037
Peak Height 	0.1271
calc peak height	80,83
Baseline Time (s)	9.036
Baseline Value 	8.0494E-4
subtract baseline	10,3
PK_550	0.067642
Peak Time (s)	81.536
Peak Height 	0.06764
calc peak height	80,83
Baseline Time (s)	10.537
Baseline Value 	9.5372E-5
subtract baseline	10,2
PK_880	0.110911
Peak Time (s)	82.037
Peak Height 	0.1109
calc peak height	80,83
Baseline Time (s)	9.036
Baseline Value 	0.002943
subtract baseline	10,1


Time (s)	A880-A510	A880-A775	A880-A975	A880	I510	I775	I975	I880	
0.036500	-0.001426	0.000224	0.007177	0.000030	4612.271486	20167.935529	3312.800216	10954.133635
0.539000	-0.000160	-0.000607	0.001450	0.002949	4606.002048	20020.450558	3304.867560	10900.484953
1.061000	-0.002165	0.000477	0.000050	-0.000397	4611.086770	20194.833604	3306.639339	10962.012380
1.534000	0.001526	0.000792	0.008145	-0.000605	4625.963853	20215.564478	3314.288674	10965.862823
2.037000	-0.000187	0.000605	0.007482	-0.000376	4618.537664	20199.100469	3313.460106	10961.636914
2.534500	-0.003551	0.000439	-0.006785	0.003552	4590.946403	20037.769750	3296.920273	10889.435827
3.034500	-0.000439	-0.000194	-0.002562	0.001134	4611.828194	20107.912045	3302.877012	10933.798768
3.535000	-0.005345	-0.000678	0.007981	0.000963	4593.933144	20095.618512	3312.681131	10936.953684
4.035000	-0.000873	0.000106	-0.001286	0.001230	4609.814453	20115.958563	3303.944334	10932.033666
4.535500	-0.002422	0.000945	0.006704	0.002541	4598.997708	20097.378809	3310.044653	10907.965013
5.036500	-0.001390	-0.000354	-0.006051	0.000908	4609.076538	20110.568045	3299.939395	10937.972757
5.539000	-0.001050	0.000073	0.005676	-0.000922	4617.326761	20199.634646	3312.291721	10971.716182
6.091000	-0.001268	0.000482	0.004601	-0.000605	4615.290639	20203.307585	3311.005973	10965.870163
6.534000	-0.002818	0.000007	0.001615	0.001364	4601.942699	20106.768488	3306.460006	10929.568108
7.034000	0.001112	-0.000350	0.013417	0.001025	4618.144669	20106.075063	3317.689994	10935.805236
7.571000	0.000156	0.000084	0.009864	-0.000509	4620.353573	20183.761778	3315.800938	10964.096697
8.035500	-0.000400	0.000730	0.003179	-0.000538	4618.339684	20210.434302	3309.634121	10964.622357
8.537000	-0.001337	-0.000177	0.000287	-0.001350	4617.866153	20206.700389	3307.726595	10979.634276
9.035500	0.000000	0.001032	0.000000	0.000093	4617.460411	20197.415337	3306.146853	10952.977695
9.536000	0.002315	-0.000573	-0.004546	-0.004071	4642.345966	20298.974032	3305.798911	11030.130716
10.039500	-0.000001	0.001283	-0.001914	0.000432	4616.166898	20193.941087	3304.098965	10946.735031
10.537000	-0.002838	0.000000	0.007129	0.000000	4607.028558	20160.298365	3312.783536	10954.694787
11.037500	0.003171	0.001516	0.002468	0.000848	4626.696778	20186.706062	3307.710965	10939.067780
11.534000	0.000723	-0.001550	-0.006665	-0.000526	4622.584611	20119.914805	3300.675318	10964.404693
12.034500	-0.000188	0.001273	-0.000804	0.001449	4611.583770	20153.334668	3304.183261	10928.008367
12.536000	-0.003068	0.000218	0.015931	0.000342	4604.862244	20155.400734	3320.698823	10948.380894
13.035000	-0.001576	0.000574	0.007253	0.001109	4607.608465	20139.199574	3311.872635	10934.272356
13.535500	0.002970	-0.000799	0.008892	0.000080	4628.871936	20125.603017	3314.346219	10953.211422
14.036000	-0.001141	-0.000047	0.000417	0.000174	4612.807272	20151.555876	3306.453464	10951.485576
14.536000	0.002477	0.002338	0.000166	0.001825	4620.303571	20180.578668	3304.722861	10921.103268
15.036500	-0.001077	0.000236	0.007352	0.000762	4610.817395	20139.540519	3312.283906	10940.645661
15.534000	-0.002509	0.000074	0.006263	0.000912	4604.821038	20127.264546	3311.139638	10937.895419
16.034000	-0.003175	0.000807	0.002374	0.000984	4602.029707	20153.291747	3307.500217	10936.557191
16.534500	-0.004078	0.001192	0.009126	0.000951	4598.750270	20169.830355	3313.754702	10937.177573
17.035000	-0.000089	0.001744	0.007299	0.001334	4612.395847	20176.502601	3311.706504	10930.119393
17.535000	0.001179	0.002888	0.007644	0.002697	4612.033387	20167.842163	3310.765927	10905.092163
18.035500	0.001348	0.000834	-0.000179	0.001478	4617.319696	20134.854139	3304.723842	10927.471548
18.535500	0.003492	0.001638	-0.000932	0.002224	4622.659169	20137.182946	3303.366192	10913.785194
19.035500	-0.002927	0.000331	0.011197	0.001458	4601.177757	20115.852397	3315.209713	10927.848969
19.536500	0.002098	0.001246	0.006417	0.000759	4622.928544	20179.538786	3311.423338	10940.709581
20.036500	0.001076	0.000697	0.013502	-0.001903	4629.212261	20263.278151	3320.525497	10989.868245
20.536500	0.001200	0.001160	0.011520	0.000581	4620.177678	20183.185395	3316.330020	10943.987737
21.045500	-0.000188	0.001067	0.011849	0.000593	4614.837168	20178.998219	3316.625890	10943.757652
21.535000	-0.002279	0.000683	0.009156	0.000169	4608.505228	20180.627155	3314.509182	10951.579458
22.034500	0.003357	0.001345	-0.002769	0.000563	4628.503645	20191.204483	3303.206087	10944.312007
22.535000	0.001420	0.000739	0.006631	0.005518	4602.262075	19972.604060	3307.247467	10853.560709
23.046000	-0.000385	0.000693	0.013807	0.000630	4613.947865	20162.772156	3318.427346	10943.081982
23.535500	0.000426	0.000437	0.003376	0.002332	4610.560966	20085.626686	3307.183983	10911.791481
24.039000	-0.004935	0.000962	-0.000027	0.001333	4594.083988	20145.677874	3304.994391	10930.151372
24.566500	0.000172	-0.000254	0.010089	0.003720	4604.339651	20004.074806	3312.080147	10886.364415
25.038500	0.003535	0.001910	0.015842	0.001452	4625.778127	20178.396475	3319.568377	10927.961563
25.537000	-0.000918	0.000196	0.008151	0.000496	4612.432064	20148.470820	3313.271150	10945.549915
26.038000	0.002303	0.000198	0.005453	0.000389	4625.131963	20152.762990	3310.874494	10947.522906
26.535000	-0.000905	0.000765	0.007298	0.005930	4591.952359	19957.529647	3307.480455	10846.052252
27.034500	-0.003269	0.000388	0.004902	0.001653	4599.154580	20110.450271	3309.204673	10924.271059
27.535000	0.002802	0.001127	-0.006096	0.002582	4618.656294	20102.940458	3298.400313	10907.209598
28.038500	0.001287	0.001001	-0.003681	0.002180	4614.414133	20113.808505	3300.925434	10914.592225
28.536000	0.002070	0.002029	0.022029	0.005036	4606.540205	20041.952806	3322.028449	10862.332247
29.036000	-0.000998	0.001155	0.011791	0.002271	4605.394769	20116.300661	3315.005730	10912.916406
29.538500	-0.000419	0.000606	0.011614	0.001859	4609.151935	20110.891723	3315.224672	10920.485925
30.034000	0.000994	0.001064	-0.000859	0.002060	4613.755271	20121.016906	3303.579419	10916.782338
30.534500	-0.000736	0.000396	0.006827	0.001863	4607.934808	20102.460114	3310.782160	10920.406540
31.034500	-0.001971	0.001141	0.012617	0.002217	4601.920020	20117.864961	3315.825880	10913.904463
31.534500	0.000640	0.002105	0.007534	0.003000	4608.842737	20125.003397	3310.386053	10899.553567
32.035000	-0.002218	0.001125	0.016736	0.002702	4599.157149	20098.125060	3319.233139	10905.008569
32.535000	-0.000429	0.000596	0.007326	0.001620	4610.018313	20119.882925	3311.466837	10924.864251
33.036000	-0.000689	0.000265	0.010019	0.002258	4606.615404	20081.747605	3313.369716	10913.146161
33.536000	0.002479	0.001337	0.003605	0.002556	4617.522468	20112.213663	3307.188716	10907.681534
34.036500	0.002579	0.000324	-0.002346	0.001514	4621.879899	20113.358575	3302.728319	10926.810618
34.540500	0.003021	0.001235	-0.003558	0.002903	4618.264633	20094.552611	3300.385387	10901.323511
35.034000	-0.001203	0.001409	0.020753	0.003039	4601.719373	20096.045736	3322.712455	10898.837859
35.537500	0.004285	0.001681	0.012098	0.003270	4621.690219	20097.626003	3314.360489	10894.597240
36.034500	0.001190	0.001910	0.017460	0.003452	4609.211423	20099.502500	3319.208196	10891.265331
36.535000	0.003566	0.001459	0.006133	-0.001355	4636.688797	20271.792580	3313.117053	10979.732336
37.035500	0.003390	0.001272	-0.001369	0.000423	4629.170165	20193.852701	3304.601900	10946.896987
37.535500	0.001022	0.002751	-0.000067	0.004223	4605.652681	20102.265288	3302.341009	10877.178092
38.036000	0.002912	-0.000344	-0.010222	0.000350	4627.613354	20132.923974	3296.711177	10948.239125
38.536500	-0.003950	0.000268	-0.000255	0.004842	4584.624098	19980.611686	3301.612677	10865.874725
39.033500	-0.000943	0.001136	0.002528	0.000818	4611.110931	20172.861541	3307.793229	10939.615276
39.536500	0.001579	0.000905	-0.003205	0.002754	4613.339351	20087.422835	3300.836560	10904.048847
40.035000	0.002156	0.001271	-0.000725	0.002041	4618.255591	20129.931130	3303.718644	10917.143155
40.534500	0.001303	0.002572	-0.007440	0.004690	4604.948215	20076.842394	3295.327689	10868.650264
41.035500	-0.000698	0.001273	-0.000303	0.003992	4600.025453	20053.250696	3302.335449	10881.389651
41.555500	-0.002954	-0.000658	0.006172	0.000678	4604.021263	20107.616694	3311.270893	10942.192618
42.035500	0.003007	0.001007	0.008351	0.001561	4623.338980	20138.429867	3312.469333	10925.944777
42.535500	0.000540	0.000793	-0.003845	0.005499	4599.011691	19975.458878	3297.804957	10853.899896
43.036500	0.001238	0.000520	0.015538	-0.002191	4630.944966	20267.693863	3322.726812	10995.214747
43.540500	0.001961	0.000648	0.005985	0.000483	4623.459536	20166.815941	3311.278932	10945.789568
44.036000	0.002466	0.000206	-0.002102	0.001636	4620.984667	20103.937987	3302.839589	10924.581583
44.538500	-0.077754	-0.044756	0.018853	0.375114	3545.402983	9531.600268	3084.657520	6321.126285
45.034500	-0.061310	-0.038530	0.017606	0.132007	4022.819810	14590.332593	3214.555810	8855.001660
45.536000	-0.033059	-0.018606	0.002741	-0.133323	5047.912824	25345.482166	3451.884893	13833.174857
46.035500	-0.018185	-0.008678	0.013142	-0.169695	5309.200035	27858.316112	3513.462351	14784.413497
46.535000	-0.013162	-0.003316	0.033472	-0.116966	5064.986359	25290.717033	3470.108749	13430.679693
47.036000	0.001956	0.002180	0.051896	-0.036543	4771.336661	21759.815062	3395.641620	11657.922713
47.539000	0.005260	0.009895	0.050211	0.035767	4505.468793	19168.381779	3319.619554	10321.389582
48.036500	0.023994	0.020854	0.065567	0.074633	4435.536021	18162.666741	3298.053576	9689.839221
48.536500	0.044059	0.030566	0.075513	0.080179	4485.643800	18308.733165	3302.001484	9604.241996
49.034000	0.057376	0.038961	0.075742	0.097867	4470.380442	17984.818033	3286.568651	9338.422707
49.537500	0.073585	0.047059	0.093554	0.117133	4459.802488	17604.606793	3285.312287	9060.958213
50.037500	0.079064	0.050638	0.095159	0.118070	4475.550345	17693.675353	3285.888931	9047.770986
50.535000	0.078201	0.052984	0.092815	0.125703	4446.223266	17515.990251	3277.360559	8941.429020
51.035500	0.093454	0.057884	0.118882	0.141503	4444.354145	17156.402237	3286.139271	8727.150901
51.535500	0.095523	0.058890	0.104446	0.141492	4451.470790	17189.582138	3273.862910	8727.298956
52.035500	0.101030	0.058353	0.120916	0.143681	4462.897581	17100.830884	3286.015005	8698.220467
52.536000	0.094684	0.061426	0.107007	0.150870	4416.831759	16967.923447	3268.201594	8603.751742
53.037000	0.099142	0.061517	0.110446	0.152535	4426.222231	16917.434517	3269.666451	8582.097872
53.536500	0.102204	0.061418	0.106837	0.154927	4428.481729	16837.900968	3264.736255	8551.133323
54.037000	0.101583	0.060888	0.122938	0.157989	4416.093449	16723.962478	3275.536639	8511.728664
54.537000	0.100580	0.061181	0.107400	0.158817	4409.977226	16707.094681	3262.031559	8501.129456
55.034000	0.100666	0.063694	0.116176	0.161154	4402.487300	16712.651753	3267.284754	8471.304182
55.537000	0.103574	0.063868	0.104978	0.163472	4404.446691	16645.159489	3256.347400	8441.882710
56.036000	0.105559	0.063566	0.113184	0.164884	4406.351189	16591.453427	3261.802547	8424.038521
56.535500	0.100930	0.063829	0.120859	0.167181	4383.496371	16527.988964	3266.182177	8395.130916
57.039000	0.103907	0.062587	0.112891	0.166956	4394.016122	16496.366880	3259.893884	8397.949111
57.538000	0.102964	0.064171	0.112847	0.172160	4373.888403	16384.433464	3255.696307	8332.993243
58.036500	0.104021	0.065585	0.104257	0.173342	4373.477226	16391.547950	3248.011735	8318.335916
58.537000	0.108973	0.065276	0.098086	0.175196	4383.587529	16325.073706	3241.829841	8295.448621
59.037000	0.104425	0.065843	0.122214	0.174982	4369.465457	16349.038154	3260.939500	8298.079862
59.535000	0.101938	0.065915	0.123816	0.174495	4362.996853	16366.220327	3262.629617	8304.090633
60.035000	0.099845	0.064786	0.114853	0.174380	4356.629537	16335.066045	3255.525150	8305.508544
60.535000	0.106994	0.066212	0.103524	0.175822	4375.082161	16334.551313	3245.523279	8287.733659
61.035500	0.104685	0.067221	0.133415	0.176015	4366.965143	16359.637876	3269.244215	8285.365894
61.536000	0.101422	0.065007	0.119199	0.176314	4355.484397	16282.597894	3257.447343	8281.685319
62.036000	0.106258	0.065929	0.117526	0.176572	4370.255449	16302.908172	3255.907950	8278.514220
62.536500	0.099355	0.065472	0.115765	0.176562	4348.075748	16289.238353	3254.517697	8278.645068
63.036500	0.097098	0.064945	0.119496	0.175354	4344.727041	16310.060341	3258.453367	8293.495725
63.537000	0.104041	0.066556	0.128123	0.177597	4359.777596	16290.714926	3263.608289	8265.935856
64.037500	0.104702	0.067459	0.129028	0.178005	4360.595207	16305.881606	3264.012950	8260.945749
64.537000	0.102784	0.067655	0.114709	0.177945	4354.623406	16313.731302	3252.590478	8261.681971
65.035500	0.101022	0.066962	0.123267	0.177802	4349.437099	16296.870610	3259.515595	8263.423641
65.535000	0.101490	0.063377	0.123098	0.176782	4354.202495	16218.636387	3260.200651	8275.939016
66.036000	0.099998	0.065765	0.124514	0.176804	4349.354587	16290.807908	3261.325760	8275.668499
66.544000	0.106467	0.065781	0.114625	0.177534	4367.812745	16268.982000	3252.847428	8266.710641
67.036000	0.101296	0.066661	0.111403	0.178628	4347.673366	16262.435951	3249.461272	8253.319978
67.536000	0.102520	0.065463	0.120844	0.180161	4346.688853	16179.363168	3255.692399	8234.617770
68.037000	0.099994	0.067529	0.102654	0.178951	4342.497830	16279.072081	3242.450500	8249.368917
68.537000	0.103896	0.066903	0.130428	0.180091	4351.309927	16225.253482	3263.455241	8235.470916
69.037500	0.105224	0.067373	0.116585	0.180767	4353.395161	16218.977094	3251.845087	8227.232615
69.537500	0.100035	0.066704	0.122651	0.181420	4334.800142	16178.838732	3256.128389	8219.303630
70.035500	0.107952	0.067493	0.122094	0.182047	4358.044002	16183.727775	3255.187054	8211.685772
70.535500	0.101809	0.066186	0.116577	0.183269	4334.562438	16107.235373	3249.877656	8196.882193
71.036500	0.105196	0.067517	0.111039	0.182836	4346.693003	16160.547078	3245.910210	8202.129819
71.536000	0.106179	0.066679	0.117162	0.183611	4347.357250	16111.808813	3250.067748	8192.754289
72.036500	0.106013	0.065295	0.123983	0.183569	4346.959759	16071.355178	3255.478191	8193.256754
72.536500	0.104716	0.066828	0.134110	0.185557	4336.520989	16057.683345	3262.007443	8169.288421
73.037000	0.105730	0.067091	0.121249	0.185275	4340.631031	16074.052963	3251.968372	8172.675559
73.534500	0.102306	0.067093	0.124029	0.186267	4326.679467	16044.337406	3253.377560	8160.750244
74.034500	0.104859	0.067046	0.123435	0.187096	4332.110790	16018.071946	3252.255532	8150.804627
74.536500	0.104849	0.067092	0.122289	0.189495	4324.529310	15947.755205	3249.476455	8122.117696
75.035500	0.104359	0.065425	0.128270	0.187990	4327.716896	15942.931825	3255.372102	8140.093184
75.537500	0.107518	0.067652	0.129147	0.191308	4327.217377	15910.476898	3253.438789	8100.546036
76.036000	0.105475	0.065387	0.123927	0.189885	4325.268955	15885.519370	3250.451822	8117.472855
76.536500	0.106207	0.066991	0.120740	0.192636	4318.941906	15851.525431	3245.833419	8084.797774
77.036500	0.110051	0.067940	0.121971	0.194340	4325.648708	15829.231942	3245.468125	8064.666733
77.537000	0.105234	0.065423	0.117176	0.193282	4313.891226	15786.204850	3242.596559	8077.154918
78.037000	0.110468	0.067743	0.137165	0.195870	4322.159582	15778.341220	3256.179859	8046.663177
78.536500	0.107916	0.065820	0.131527	0.195651	4314.865758	15728.337998	3251.890463	8049.229085
79.035000	0.103832	0.068270	0.118593	0.196289	4300.234433	15781.523469	3241.383023	8041.736270
79.601500	0.106727	0.066280	0.151080	0.195950	4310.241078	15733.076069	3267.373181	8045.722526
80.035500	0.107312	0.067173	0.123383	0.197838	4306.199367	15703.956762	3243.862769	8023.590433
80.535000	0.108729	0.066217	0.115381	0.197116	4312.841494	15697.127941	3238.318885	8032.047032
81.038000	0.108489	0.067618	0.117040	0.198380	4308.167405	15701.096231	3238.616718	8017.250641
81.536000	0.107899	0.067642	0.124404	0.200131	4300.927782	15650.725477	3242.886869	7996.838046
82.036500	0.110911	0.067148	0.127147	0.200043	4310.521915	15638.908169	3245.062259	7997.864910
82.537000	0.109585	0.067121	0.121659	0.200588	4304.723537	15622.290459	3240.444614	7991.525477
83.034000	0.109548	0.069515	0.133149	0.201868	4300.659840	15654.708123	3248.296795	7976.676294
83.590000	0.109020	0.067004	0.118796	0.200302	4303.861261	15627.197171	3238.491092	7994.846770
84.123000	0.108933	0.066624	0.127155	0.200048	4304.375257	15623.530586	3245.063619	7997.800838
84.535500	0.112776	0.068291	0.127341	0.202204	4309.604697	15609.364804	3243.549840	7972.779138
85.038500	0.110317	0.067216	0.130147	0.202736	4300.354002	15562.819096	3245.298931	7966.625575
85.536000	0.110120	0.067128	0.129031	0.201849	4302.482221	15585.938452	3245.122283	7976.896364
86.036500	0.108489	0.065759	0.134683	0.201552	4298.367683	15554.899069	3249.738896	7980.328685
86.539000	0.115297	0.066803	0.132024	0.201846	4318.567143	15576.607147	3247.439154	7976.923378
