sample name	sample
index	1200
start time	 04-26-2021  12:40:09 PM
880	0.443979
Peak Time (s)	90.535
Peak Height 	0.444
calc peak height	90,93
Baseline Time (s)	10.536
Baseline Value 	-0.005837
subtract baseline	10,4
Abs	0.307071
Peak Time (s)	92.036
Peak Height 	0.3071
calc peak height	90,93
Baseline Time (s)	9.536
Baseline Value 	0.002678
subtract baseline	10,3
PK_550	0.173149
Peak Time (s)	92.036
Peak Height 	0.1731
calc peak height	90,93
Baseline Time (s)	11.537
Baseline Value 	4.9857E-4
subtract baseline	10,2
PK_880	0.285119
Peak Time (s)	90.035
Peak Height 	0.2851
calc peak height	90,93
Baseline Time (s)	11.036
Baseline Value 	0.002461
subtract baseline	10,1


Time (s)	A880-A510	A880-A775	A880-A975	A880	I510	I775	I975	I880	
0.036000	-0.001696	0.000051	-0.003812	0.004404	6136.920167	43341.359446	3862.523947	22447.554838
0.536000	-0.003551	0.000353	-0.003779	0.005484	6115.189885	43269.071250	3860.167262	22399.037284
1.036000	-0.000298	-0.000205	-0.005122	0.004370	6147.576631	43320.615480	3859.651710	22449.070060
1.536500	-0.001318	0.000003	-0.001854	0.007036	6120.221247	43092.709625	3861.006416	22329.471380
2.036500	-0.000289	-0.000643	-0.003916	0.000754	6174.717139	43617.365054	3870.547733	22612.512338
2.537500	-0.001259	0.000475	-0.003290	0.001406	6162.555495	43661.044995	3870.491754	22582.968228
3.040500	0.001297	0.000398	-0.001852	-0.000520	6196.288078	43834.771127	3878.162640	22670.404252
3.535000	-0.002329	0.000232	0.002805	0.004932	6128.308373	43309.088505	3876.344125	22423.816260
4.035000	-0.002362	-0.000081	0.000729	0.000962	6157.617269	43650.471054	3880.682891	22603.074210
4.535500	-0.001955	-0.000009	-0.002227	0.000549	6163.752514	43696.004712	3874.862519	22621.821420
5.036000	0.001274	0.000497	-0.001891	0.000448	6188.794793	43753.021235	3875.860126	22626.393016
5.536000	-0.001196	0.000602	0.000409	0.002200	6157.074863	43598.489583	3877.113787	22546.998838
6.036500	-0.000647	0.000707	0.000908	0.001033	6169.933363	43717.791765	3880.931870	22599.871438
6.537000	0.000576	-0.000029	0.001751	0.000522	6182.971018	43696.661242	3884.043638	22623.033337
7.037000	0.000458	0.000185	-0.002085	0.000608	6181.435700	43708.684436	3875.051922	22619.137716
7.537000	-0.001205	-0.000207	-0.002052	-0.000301	6175.768600	43757.265248	3877.204848	22660.457312
8.034500	0.002074	0.000826	0.002950	0.001244	6188.831355	43709.178916	3885.145388	22590.289250
8.534500	0.001179	-0.000254	0.000951	-0.000056	6191.890430	43729.844219	3883.532596	22649.304011
9.035500	-0.002977	-0.000632	-0.003982	-0.000673	6165.250677	43752.259548	3873.645747	22677.365212
9.535500	0.000514	0.000320	0.000000	0.000321	6184.026136	43748.354356	3880.481007	22632.172947
10.036000	0.000021	0.000939	0.002665	0.000486	6179.066762	43791.004248	3886.235640	22624.671982
10.536000	-0.003337	0.000045	-0.002207	0.000000	6157.518155	43752.661778	3876.162693	22646.762954
11.036000	0.000000	-0.000056	0.004948	0.000101	6181.810266	43733.722293	3892.413558	22642.181826
11.537000	-0.002293	0.000000	-0.000686	-0.000425	6168.528285	43788.403435	3880.619251	22666.106060
12.037500	0.001465	0.000359	-0.005229	0.000013	6193.532569	43780.960657	3869.249970	22646.167357
12.537500	-0.004274	-0.000478	-0.000332	0.003457	6124.825175	43380.239279	3872.552793	22490.214404
13.035000	0.000763	0.000889	-0.007186	-0.000539	6192.391629	43882.793628	3866.065921	22671.275385
13.535500	-0.000815	0.000140	-0.004140	-0.000627	6181.152688	43820.578959	3873.180527	22675.276801
14.034500	0.000150	0.000892	-0.001917	0.003069	6160.641857	43544.332914	3869.831037	22507.719222
14.535500	-0.001512	0.000936	-0.004268	0.004977	6134.033824	43370.402983	3860.206629	22421.791562
15.039000	0.001440	0.000833	0.004464	0.000076	6192.864913	43819.629990	3891.349988	22643.320979
15.535500	-0.001689	-0.000184	-0.001020	-0.000197	6171.342393	43749.571302	3879.328769	22655.699098
16.037000	0.001753	0.000911	0.005546	-0.000087	6196.463972	43842.317342	3894.239732	22650.706615
16.536500	-0.004387	-0.000218	-0.004903	0.003445	6124.075304	43405.610152	3862.226046	22490.756095
17.040000	-0.000982	0.000706	0.000322	-0.000502	6178.957915	43862.095511	3883.113802	22669.607356
17.537500	-0.001466	0.000190	0.001238	0.000670	6166.517362	43703.342936	3882.524454	22616.349033
18.034000	-0.003147	0.000186	0.000538	0.001003	6151.442052	43671.634829	3880.149746	22601.199798
18.535500	-0.002827	-0.000090	-0.002263	0.002158	6145.223010	43537.716038	3871.115357	22548.902311
19.035500	-0.001200	0.000095	-0.003189	0.001108	6165.219648	43653.288317	3871.396355	22596.450397
19.536000	-0.001661	0.000906	0.000582	0.001097	6161.849103	43730.476066	3880.036152	22596.953435
20.036000	-0.000312	-0.000082	0.004072	0.000622	6175.536578	43682.247533	3889.173927	22618.492878
20.536000	-0.001153	0.000313	0.001771	0.002760	6153.220905	43519.080437	3878.949877	22521.699014
21.037000	-0.000848	0.000323	0.007568	0.001198	6167.186204	43666.235926	3895.958390	22592.379165
21.537000	-0.001222	0.000406	0.001975	0.000981	6166.009492	43694.405165	3883.504864	22602.224103
22.039500	0.000944	0.000686	0.001685	0.001313	6179.792820	43689.594547	3882.074193	22587.177052
22.535000	-0.002084	0.000360	-0.000519	0.002798	6145.985778	43519.891545	3873.628154	22519.956832
23.035500	-0.000808	0.000386	0.001102	0.001323	6166.554813	43660.445082	3880.712188	22586.730984
23.535000	0.002220	0.000189	-0.003466	0.001123	6190.850184	43660.707749	3870.733986	22595.779538
24.035500	0.000091	0.001064	0.003872	0.001786	6169.822688	43680.597650	3886.020984	22565.723876
24.536000	-0.001920	0.000403	0.000238	0.001568	6156.388036	43639.060590	3878.167529	22575.596248
25.036500	-0.001008	0.000046	-0.000502	0.000773	6169.174103	43680.132375	3878.292758	22611.633865
25.536500	-0.001387	-0.000095	-0.000180	0.000743	6166.560890	43669.731654	3879.101720	22613.022867
26.036000	-0.002817	-0.000126	0.000179	0.000799	6155.440629	43661.632804	3879.797070	22610.491764
26.534500	-0.002027	-0.000189	-0.000072	0.000422	6164.164136	43691.050081	3880.084385	22627.588748
27.037500	-0.000781	0.000961	-0.000377	0.001370	6166.396903	43709.971603	3877.212061	22584.562415
27.534500	0.000720	0.000990	0.003810	-0.002062	6203.594600	44036.229697	3894.796236	22740.709747
28.034500	-0.000376	-0.000172	0.003996	-0.001082	6187.891557	43833.977212	3892.950989	22696.005632
28.535500	-0.003689	0.000622	-0.004216	0.005212	6116.181315	43319.283982	3859.795427	22411.241144
29.036500	0.000518	0.000599	0.001736	-0.000181	6187.840518	43821.837562	3885.631350	22655.007091
29.536000	0.000045	0.000208	-0.004055	0.000586	6178.496144	43712.910120	3870.616330	22620.156370
30.036500	0.001682	0.000926	0.001816	-0.000074	6195.827592	43842.478568	3885.569208	22650.125667
30.537000	0.001333	0.001240	0.004230	0.000183	6191.246045	43847.871960	3890.558843	22638.456488
31.038000	-0.002896	0.000578	0.000251	0.002770	6140.156519	43542.911181	3875.448923	22521.252946
31.540000	0.001442	0.001360	0.003002	0.000993	6185.950299	43782.884926	3885.842770	22601.653229
32.035000	0.000211	0.000572	0.000567	-0.000217	6185.797725	43822.689448	3883.021467	22656.635778
32.534500	-0.002747	0.000448	-0.001546	0.005205	6123.191584	43303.729482	3865.831280	22411.549711
33.036000	-0.001127	0.000137	-0.006176	-0.000627	6178.807072	43820.345279	3868.554464	22675.299905
33.536000	0.000862	0.000217	-0.002661	0.000350	6186.425657	43735.909558	3874.326448	22630.852079
34.036000	-0.002733	0.000323	-0.000019	0.000597	6157.575963	43722.703238	3879.804593	22619.662444
34.536000	-0.003356	-0.000621	0.000999	0.003157	6133.851359	43394.879032	3876.272378	22503.747287
35.036000	-0.003002	0.000477	-0.000456	0.002249	6143.234073	43582.151313	3875.023674	22544.773202
35.537500	0.000232	0.000608	-0.004598	0.002406	6166.227779	43579.816463	3865.260730	22537.698570
36.040000	0.000102	0.000712	0.000362	0.001780	6169.945270	43648.126848	3877.966093	22565.987656
36.537500	-0.003465	0.000157	-0.000672	0.003589	6129.844531	43427.182896	3871.478619	22484.286264
37.035000	0.000248	0.001466	0.003570	0.002609	6164.829223	43641.201365	3883.429502	22528.530265
37.535500	-0.004088	-0.000276	0.003127	0.001153	6143.313769	43614.324566	3885.763432	22594.421040
38.035500	-0.001725	0.000318	0.005233	0.001719	6156.720555	43616.909632	3889.320657	22568.752066
38.536000	-0.001049	0.000715	0.000264	0.003944	6145.153987	43446.024090	3872.799449	22468.252927
39.036500	-0.002558	0.000403	-0.001963	0.001739	6150.351114	43623.066963	3872.749718	22567.857226
39.536500	-0.002005	0.000902	0.003061	0.002226	6150.846186	43624.215812	3883.138142	22545.844433
40.037000	0.000119	0.000794	-0.000273	0.002010	6168.354615	43634.326144	3875.989281	22555.615103
40.537000	-0.002342	0.000022	-0.004486	0.003418	6139.454623	43430.486967	3863.227939	22492.004711
41.037500	-0.001742	0.000877	0.004680	0.001689	6156.816308	43672.174683	3888.111700	22570.143323
41.538000	-0.002065	0.000083	-0.003559	0.001702	6154.305321	43596.596809	3869.207434	22569.556393
42.035000	-0.002450	0.000293	-0.001012	0.002119	6148.322996	43577.226766	3874.053265	22550.677397
42.535500	-0.003050	0.000019	-0.000969	0.003209	6135.744789	43449.644404	3871.666903	22501.409690
43.035500	-0.000983	0.000459	0.000024	0.001669	6162.645666	43634.820276	3877.445273	22571.016174
43.536000	-0.000631	0.000360	0.000804	0.001654	6165.389317	43626.973674	3879.267764	22571.691333
44.036000	0.002261	0.000648	-0.002336	-0.002736	6220.446638	44067.679349	3882.138504	22771.547595
44.536500	-0.002073	0.000961	0.002409	0.003879	6138.024891	43475.129810	3877.848884	22471.209401
45.037000	0.001854	0.000037	0.001476	-0.000945	6203.728695	43840.785031	3886.793572	22689.771935
45.551000	0.001773	0.000587	0.006879	-0.000130	6196.946693	43815.918745	3897.448724	22652.688085
46.037500	-0.000395	0.000658	0.002939	-0.000428	6182.817012	43850.605359	3888.981133	22666.208786
46.535500	-0.000332	0.000975	-0.002526	0.004202	6148.583921	43446.292524	3865.883576	22456.666679
47.035000	-0.000957	0.000755	0.000748	-0.000029	6175.584751	43822.200004	3883.005235	22648.081569
47.535500	-0.000930	0.001208	-0.000855	0.003143	6152.019835	43566.964912	3872.076298	22504.393568
48.036000	-0.000337	0.000478	0.000443	0.002322	6162.595417	43575.436073	3876.912507	22541.484094
48.536000	-0.002269	0.000558	0.001852	0.003583	6138.769970	43465.102388	3877.249931	22484.538313
49.036500	0.000006	0.000671	0.000010	-0.000097	6183.345386	43820.621038	3881.462244	22651.161405
49.536500	0.003195	-0.000054	0.001215	0.000100	6205.975149	43733.912926	3883.782488	22642.214011
50.037000	0.000643	0.001785	0.005132	-0.001765	6200.770314	44083.420746	3897.187487	22727.175121
50.537000	-0.001521	0.000257	0.001776	0.006330	6123.945063	43181.621501	3870.813548	22361.091084
51.037500	0.010238	0.000984	0.012215	0.147406	5296.255811	32066.535699	3614.376148	16964.228362
51.535500	0.008759	-0.020218	-0.017418	0.230190	4875.397037	25862.748230	3447.731485	14523.887255
52.035500	0.008377	-0.046390	-0.013315	-0.170037	7845.224412	57192.605859	4314.723566	32108.694282
52.535000	0.012058	-0.089644	-0.005036	-0.269896	9173.957365	64746.616163	4719.336527	39658.886862
53.036000	0.012829	-0.075309	0.001493	-0.252704	8941.512041	64341.129723	4674.813714	38232.217193
53.536000	0.010901	-0.054998	-0.000270	-0.221821	8502.618441	62864.291623	4545.107684	35807.186765
54.036500	0.013741	-0.030683	0.009794	-0.159168	7783.055535	57800.415553	4355.628061	31386.807224
54.536500	0.006784	-0.024607	0.002418	-0.152736	7635.113092	57755.482009	4309.565787	30968.074057
55.034500	0.008993	-0.019688	0.008730	-0.145149	7576.960579	57419.734388	4305.383908	30482.046219
55.537000	0.020612	-0.014543	0.017496	-0.124713	7483.162536	55534.552449	4267.689815	29214.330619
56.034500	0.029884	-0.006318	0.034220	-0.063841	6970.839528	49529.115019	4133.913399	25773.260360
56.535500	0.036062	0.003679	0.038823	0.008204	6399.379643	43325.350530	3954.086587	22277.306666
57.035500	0.048552	0.012888	0.047804	0.046814	6195.693991	40681.214518	3883.494123	20629.202485
57.535500	0.059294	0.021594	0.063660	0.085436	5991.386979	38168.363232	3832.433348	19120.853322
58.036000	0.070893	0.028025	0.072679	0.138821	5708.718161	34557.325254	3740.298195	17244.955522
58.536000	0.080523	0.036109	0.085873	0.169346	5577.248990	32964.665540	3706.787186	16271.524567
59.036500	0.100220	0.046004	0.102617	0.160295	5759.783032	34303.887319	3757.156742	16553.054908
59.537000	0.118650	0.058144	0.118452	0.192160	5672.977372	32910.828502	3725.504664	15587.391401
60.037500	0.131079	0.064587	0.129775	0.237506	5471.285746	30342.065157	3662.069100	14329.744056
60.534500	0.146251	0.073727	0.142875	0.253611	5465.797752	29905.989081	3656.704412	13913.785977
61.035000	0.156155	0.082645	0.160995	0.280382	5368.435186	28819.559492	3641.457160	13255.544926
61.535500	0.173201	0.088541	0.175250	0.298850	5360.394948	28080.875066	3634.140069	12824.519700
62.035500	0.175711	0.097222	0.181691	0.320854	5252.832896	27321.052444	3607.724954	12334.369404
62.539000	0.181829	0.101427	0.187246	0.319021	5296.118653	27662.508584	3620.145653	12374.245579
63.036000	0.185033	0.105424	0.195626	0.324445	5283.958097	27581.388085	3625.178029	12256.707571
63.536500	0.192134	0.108631	0.199392	0.323685	5327.313865	27807.580097	3632.944486	12273.074108
64.038000	0.198177	0.113326	0.210176	0.327327	5340.721046	27867.970069	3645.369006	12194.833495
64.539500	0.202587	0.116382	0.207771	0.327222	5366.119313	28050.142112	3641.345133	12197.072696
65.037500	0.204281	0.120910	0.214421	0.332632	5345.196562	27999.180418	3643.512553	12082.028824
65.538000	0.208913	0.122636	0.219104	0.334099	5363.010730	28014.136067	3649.158618	12051.066139
66.035000	0.218471	0.125594	0.225418	0.339462	5386.817551	27875.585224	3650.837081	11938.792934
66.535500	0.216508	0.128284	0.222140	0.351179	5310.018090	27362.481196	3624.802821	11698.282282
67.036000	0.220298	0.128743	0.229234	0.351767	5327.774747	27355.224217	3635.987881	11686.377604
67.536000	0.224161	0.130277	0.238990	0.352722	5344.015997	27387.782233	3651.388627	11667.071557
68.036000	0.226515	0.134733	0.229375	0.357973	5327.838336	27343.087167	3625.553772	11561.751636
68.536500	0.230189	0.137645	0.237866	0.369025	5287.109615	26889.784533	3621.192766	11344.186188
69.039500	0.239299	0.140316	0.246149	0.369273	5336.111485	27023.804600	3634.963524	11339.360832
69.537000	0.241070	0.141450	0.243753	0.373505	5322.398663	26852.534607	3623.584241	11257.546548
70.037500	0.241793	0.142897	0.253685	0.378011	5301.478037	26684.673495	3632.888060	11171.311734
70.535000	0.239849	0.143989	0.254116	0.385787	5248.546614	26321.882962	3620.323935	11024.590767
71.035500	0.247557	0.146175	0.259821	0.381830	5312.213407	26655.089774	3636.895855	11098.930948
71.538500	0.249847	0.147413	0.266542	0.385035	5307.160899	26547.893167	3643.019086	11038.674095
72.036000	0.251420	0.149375	0.254274	0.387741	5300.914287	26507.476116	3617.283243	10988.127269
72.536500	0.248721	0.149680	0.253542	0.394812	5247.726533	26142.997045	3604.220850	10857.562247
73.036500	0.253190	0.150381	0.262693	0.395261	5269.467438	26156.488884	3618.804235	10849.344247
73.536500	0.257003	0.153581	0.258717	0.395435	5289.318469	26318.885210	3611.812174	10846.152664
74.037000	0.257724	0.154846	0.267809	0.398449	5276.786855	26224.884120	3622.074679	10791.218217
74.537500	0.256892	0.154267	0.269522	0.406122	5230.890504	25786.456752	3612.009547	10653.079101
75.035000	0.260533	0.156590	0.266589	0.407671	5242.095501	25827.249427	3604.532350	10625.490714
75.535000	0.263535	0.158632	0.274613	0.407423	5259.612477	25948.254612	3618.393412	10629.894786
76.035000	0.265883	0.159725	0.279277	0.410144	5257.594833	25862.157198	3621.688351	10581.630749
76.536500	0.268531	0.160153	0.281240	0.411650	5263.777264	25805.303677	3622.464847	10555.047268
77.036000	0.266027	0.160610	0.274581	0.417571	5218.555684	25519.302892	3601.372797	10451.435717
77.536000	0.272601	0.161399	0.278370	0.414814	5268.689007	25704.453990	3612.271076	10499.498938
78.036500	0.271581	0.163318	0.284932	0.416435	5254.393018	25720.121430	3620.607120	10471.196311
78.539000	0.269295	0.163111	0.277504	0.422645	5208.978646	25385.878123	3597.826692	10363.761186
79.037000	0.270749	0.163565	0.281288	0.421994	5220.140163	25443.047485	3605.155196	10374.938815
79.537500	0.273956	0.164252	0.284226	0.418667	5255.162406	25652.108613	3615.639122	10432.401899
80.035000	0.275873	0.165046	0.287949	0.420298	5256.710620	25608.393845	3619.174486	10404.192197
80.535500	0.274755	0.165420	0.286092	0.421636	5243.474886	25558.067110	3613.783495	10381.104354
81.035500	0.278005	0.166295	0.288721	0.423139	5252.878994	25525.386248	3615.678869	10355.268704
81.535500	0.276500	0.167252	0.288677	0.424665	5236.588929	25495.818842	3613.036607	10329.136004
82.036000	0.279236	0.166592	0.295278	0.425447	5247.081160	25421.026185	3622.876565	10315.778313
82.536500	0.278143	0.168811	0.288020	0.427457	5230.438219	25431.841405	3607.268307	10281.546858
83.036500	0.277187	0.167985	0.279917	0.432799	5197.031287	25114.529378	3585.209154	10191.341674
83.537000	0.278899	0.169264	0.293352	0.429803	5221.955232	25333.931864	3612.259129	10241.787790
84.037500	0.282025	0.171446	0.291084	0.431139	5231.507616	25377.642291	3606.238614	10219.255653
84.535000	0.281188	0.170723	0.294102	0.432014	5222.370955	25295.200000	3609.813191	10204.522042
85.035000	0.280967	0.171033	0.294469	0.438738	5185.688292	24967.343329	3599.261047	10092.349607
85.535500	0.286024	0.171588	0.300794	0.434706	5233.818943	25201.308847	3616.530417	10159.400409
86.035500	0.282731	0.171029	0.291428	0.434426	5217.755366	25187.048088	3601.358751	10164.090251
86.539000	0.285756	0.173144	0.289542	0.436421	5223.228044	25193.174493	3594.973682	10130.803778
87.039000	0.280375	0.172847	0.287256	0.442482	5163.085358	24869.664796	3581.434794	10030.645606
87.536500	0.285268	0.173181	0.293118	0.437002	5217.544145	25165.329059	3599.896596	10121.148949
88.040000	0.281183	0.172420	0.299301	0.436012	5201.160104	25177.059576	3611.823810	10137.620892
88.537500	0.278120	0.171596	0.289438	0.442212	5152.808894	24820.128844	3585.384666	10035.075578
89.034500	0.278862	0.172303	0.292902	0.443341	5150.810471	24798.905724	3589.167512	10016.561797
89.535000	0.282642	0.170980	0.295277	0.436447	5206.565982	25081.197791	3604.386068	10130.369144
90.035500	0.285119	0.171596	0.298576	0.437428	5214.493963	25062.611866	3608.242916	10114.075791
90.535000	0.281971	0.171130	0.293875	0.443979	5163.598070	24707.898613	3589.712224	10006.117320
91.035500	0.278983	0.170818	0.296650	0.443502	5150.604042	24716.175369	3595.018610	10013.925378
91.536500	0.283571	0.171488	0.295767	0.437308	5206.924638	25063.165197	3603.769677	10116.055068
92.036000	0.284829	0.173149	0.307071	0.439750	5200.673036	25023.432380	3618.616175	10075.619092
92.537000	0.281023	0.170578	0.290553	0.443743	5159.901132	24691.999817	3584.711022	10009.965174
93.037000	0.280909	0.170279	0.290174	0.443515	5160.495219	24688.502788	3584.469547	10013.712648
93.534500	0.287496	0.173513	0.299314	0.439982	5213.552633	25030.168128	3605.219817	10071.794128
94.035000	0.286331	0.170650	0.292836	0.438650	5214.436897	24952.378158	3596.720742	10093.810503
94.535000	0.284000	0.173454	0.291832	0.446367	5161.731764	24704.645629	3582.543602	9967.157492
95.035500	0.286166	0.172278	0.290965	0.439485	5209.137198	24992.603295	3592.291071	10079.990017
95.535500	0.287900	0.171961	0.302865	0.439349	5219.059403	24983.398590	3612.204510	10082.237070
96.036000	0.286702	0.172100	0.299530	0.439285	5213.039230	24993.760383	3606.739070	10083.303520
96.536000	0.282618	0.170415	0.291847	0.444410	5164.717665	24650.482478	3585.724637	9999.065548
