sample name	sample
index	827
start time	 03-31-2021  04:14:59 PM


Wavelength (nm)	Absorbance
494.344910	NaN
494.563924	NaN
494.782919	NaN
495.001897	NaN
495.220856	-1.351730
495.439797	-0.706171
495.658719	-0.003806
495.877624	NaN
496.096510	NaN
496.315378	-0.815994
496.534227	-0.814769
496.753059	-1.336795
496.971872	NaN
497.190667	0.191334
497.409444	0.165321
497.628203	0.162777
497.846943	0.158331
498.065665	0.161008
498.284369	0.161106
498.503055	0.160127
498.721723	0.160538
498.940372	0.160697
499.159003	0.160505
499.377616	0.160664
499.596210	0.159621
499.814787	0.159650
500.033345	0.159583
500.251885	0.159686
500.470406	0.160313
500.688910	0.160100
500.907395	0.159918
501.125862	0.158910
501.344311	0.159367
501.562742	0.159847
501.781154	0.159867
501.999548	0.159705
502.217924	0.159011
502.436282	0.157975
502.654621	0.157637
502.872942	0.156901
503.091245	0.157946
503.309530	0.157065
503.527797	0.157299
503.746045	0.156779
503.964275	0.156777
504.182487	0.157004
504.400681	0.157377
504.618856	0.157485
504.837013	0.158271
505.055152	0.157846
505.273273	0.158340
505.491376	0.158102
505.709460	0.159202
505.927526	0.158539
506.145574	0.159371
506.363604	0.159675
506.581615	0.160112
506.799608	0.159872
507.017583	0.160563
507.235540	0.160406
507.453478	0.161512
507.671399	0.161624
507.889301	0.162545
508.107185	0.162334
508.325050	0.163351
508.542898	0.162740
508.760727	0.163714
508.978538	0.163713
509.196330	0.164597
509.414105	0.164191
509.631861	0.163674
509.849599	0.164091
510.067319	0.163930
510.285021	0.162708
510.502704	0.162810
510.720369	0.162865
510.938016	0.162293
511.155645	0.161977
511.373255	0.161716
511.590848	0.162494
511.808422	0.162038
512.025977	0.162830
512.243515	0.162778
512.461034	0.163522
512.678536	0.163016
512.896018	0.162803
513.113483	0.163424
513.330930	0.164224
513.548358	0.164783
513.765768	0.164062
513.983160	0.162968
514.200533	0.164829
514.417889	0.165234
514.635226	0.165243
514.852545	0.165489
515.069845	0.165736
515.287128	0.166164
515.504392	0.165789
515.721638	0.167637
515.938866	0.168302
516.156075	0.167059
516.373267	0.166897
516.590440	0.167255
516.807594	0.168512
517.024731	0.167701
517.241850	0.167570
517.458950	0.167206
517.676032	0.167193
517.893095	0.167094
518.110141	0.167339
518.327168	0.167687
518.544177	0.167409
518.761168	0.167708
518.978141	0.168434
519.195095	0.168385
519.412031	0.169530
519.628949	0.169352
519.845849	0.170018
520.062731	0.170550
520.279594	0.170492
520.496439	0.171402
520.713266	0.171347
520.930074	0.172058
521.146865	0.172194
521.363637	0.172104
521.580391	0.172686
521.797127	0.172668
522.013844	0.173148
522.230543	0.174184
522.447224	0.174640
522.663887	0.173456
522.880532	0.173491
523.097158	0.173497
523.313766	0.173412
523.530356	0.173044
523.746928	0.173646
523.963481	0.173980
524.180017	0.173086
524.396534	0.173560
524.613032	0.174937
524.829513	0.174766
525.045975	0.175051
525.262420	0.175525
525.478845	0.176069
525.695253	0.176306
525.911643	0.175800
526.128014	0.176162
526.344367	0.175489
526.560702	0.175240
526.777018	0.175798
526.993316	0.176777
527.209597	0.176753
527.425858	0.176951
527.642102	0.176945
527.858328	0.177562
528.074535	0.177706
528.290724	0.178815
528.506894	0.178988
528.723047	0.179234
528.939181	0.179840
529.155297	0.180402
529.371395	0.180471
529.587475	0.180916
529.803536	0.180822
530.019579	0.180981
530.235604	0.181177
530.451611	0.182038
530.667600	0.182376
530.883570	0.181629
531.099522	0.182147
531.315456	0.182882
531.531372	0.182567
531.747269	0.183592
531.963148	0.183851
532.179009	0.184222
532.394852	0.183680
532.610676	0.184219
532.826482	0.184862
533.042271	0.184768
533.258040	0.184655
533.473792	0.186217
533.689525	0.185882
533.905240	0.186273
534.120937	0.185896
534.336616	0.186497
534.552277	0.186070
534.767919	0.186146
534.983543	0.186254
535.199149	0.186632
535.414736	0.186034
535.630306	0.186035
535.845857	0.186956
536.061390	0.187228
536.276904	0.187647
536.492401	0.187665
536.707879	0.187912
536.923339	0.189022
537.138781	0.189119
537.354204	0.189736
537.569610	0.190248
537.784997	0.190116
538.000366	0.190686
538.215716	0.190726
538.431049	0.191493
538.646363	0.192199
538.861659	0.192427
539.076937	0.193029
539.292196	0.192919
539.507438	0.193605
539.722661	0.194097
539.937866	0.194169
540.153052	0.194680
540.368221	0.194931
540.583371	0.194831
540.798503	0.194449
541.013617	0.194720
541.228712	0.194990
541.443789	0.195261
541.658848	0.195842
541.873889	0.196026
542.088912	0.196254
542.303916	0.197091
542.518902	0.196882
542.733870	0.197224
542.948820	0.197701
543.163752	0.198448
543.378665	0.198900
543.593560	0.199016
543.808437	0.199581
544.023295	0.199797
544.238136	0.200001
544.452958	0.200763
544.667762	0.201065
544.882548	0.201066
545.097315	0.200791
545.312064	0.200301
545.526795	0.200258
545.741508	0.200254
545.956203	0.200505
546.170879	0.200505
546.385537	0.200272
546.600177	0.200204
546.814799	0.200823
547.029402	0.201352
547.243988	0.201798
547.458555	0.202357
547.673103	0.203220
547.887634	0.203514
548.102146	0.203665
548.316640	0.204963
548.531116	0.205592
548.745574	0.205047
548.960013	0.205367
549.174435	0.206261
549.388838	0.205790
549.603222	0.205539
549.817589	0.205964
550.031937	0.206163
550.246267	0.205791
550.460579	0.206038
550.674873	0.206680
550.889148	0.207018
551.103405	0.206741
551.317644	0.207139
551.531865	0.207695
551.746068	0.208522
551.960252	0.208708
552.174418	0.208828
552.388566	0.209350
552.602696	0.209281
552.816807	0.209867
553.030900	0.209774
553.244975	0.210128
553.459032	0.210491
553.673070	0.210049
553.887091	0.210026
554.101093	0.210964
554.315077	0.210364
554.529042	0.211035
554.742990	0.210493
554.956919	0.211273
555.170830	0.211675
555.384722	0.211325
555.598597	0.211775
555.812453	0.212558
556.026291	0.212136
556.240111	0.212903
556.453913	0.212930
556.667696	0.212998
556.881461	0.212769
557.095208	0.213070
557.308937	0.213555
557.522647	0.213069
557.736339	0.212550
557.950013	0.212800
558.163669	0.212954
558.377307	0.212771
558.590926	0.213381
558.804527	0.213360
559.018110	0.213424
559.231675	0.213122
559.445221	0.213450
559.658749	0.213751
559.872259	0.214143
560.085751	0.214917
560.299225	0.215374
560.512680	0.215185
560.726117	0.215687
560.939536	0.216222
561.152937	0.216894
561.366319	0.217353
561.579683	0.217371
561.793029	0.217535
562.006357	0.217152
562.219667	0.217369
562.432958	0.217611
562.646231	0.217438
562.859486	0.217302
563.072723	0.217406
563.285941	0.217516
563.499141	0.218102
563.712323	0.217960
563.925487	0.217758
564.138632	0.218160
564.351760	0.218361
564.564869	0.218643
564.777960	0.218416
564.991032	0.218801
565.204087	0.218896
565.417123	0.219170
565.630141	0.219238
565.843140	0.219516
566.056122	0.219365
566.269085	0.219374
566.482030	0.219461
566.694957	0.219945
566.907866	0.220158
567.120756	0.220369
567.333628	0.220391
567.546482	0.220995
567.759318	0.220827
567.972135	0.221253
568.184935	0.221903
568.397716	0.222478
568.610478	0.222992
568.823223	0.222490
569.035949	0.222781
569.248657	0.223024
569.461347	0.222744
569.674019	0.223507
569.886672	0.223490
570.099308	0.223480
570.311925	0.223158
570.524523	0.222434
570.737104	0.222807
570.949666	0.223014
571.162210	0.222918
571.374736	0.223148
571.587244	0.222787
571.799733	0.222832
572.012205	0.222792
572.224658	0.223489
572.437092	0.224026
572.649509	0.224016
572.861907	0.223991
573.074287	0.224472
573.286649	0.225058
573.498993	0.225576
573.711318	0.226073
573.923625	0.226330
574.135914	0.226319
574.348185	0.226232
574.560438	0.226208
574.772672	0.226412
574.984888	0.226570
575.197086	0.226505
575.409266	0.226890
575.621427	0.226891
575.833570	0.226671
576.045695	0.226536
576.257802	0.227107
576.469890	0.227129
576.681961	0.227380
576.894013	0.227008
577.106046	0.226989
577.318062	0.226650
577.530059	0.226587
577.742039	0.227272
577.954000	0.227856
578.165942	0.227995
578.377867	0.229021
578.589773	0.228976
578.801661	0.228841
579.013531	0.228929
579.225382	0.229128
579.437216	0.228996
579.649031	0.229148
579.860828	0.228959
580.072606	0.228989
580.284367	0.228768
580.496109	0.229267
580.707833	0.230001
580.919539	0.229841
581.131227	0.230097
581.342896	0.230308
581.554547	0.230679
581.766180	0.231052
581.977795	0.231354
582.189391	0.231560
582.400969	0.231340
582.612529	0.231710
582.824071	0.231962
583.035595	0.231934
583.247100	0.232626
583.458587	0.232406
583.670056	0.232506
583.881506	0.232486
584.092939	0.232990
584.304353	0.233244
584.515749	0.233573
584.727127	0.233903
584.938486	0.234327
585.149828	0.234390
585.361151	0.234370
585.572456	0.234366
585.783742	0.234688
585.995011	0.234311
586.206261	0.234260
586.417493	0.234125
586.628706	0.234182
586.839902	0.234359
587.051079	0.234465
587.262238	0.234365
587.473379	0.234657
587.684502	0.234840
587.895606	0.234908
588.106692	0.234766
588.317760	0.234425
588.528810	0.234484
588.739841	0.234643
588.950855	0.234560
589.161850	0.235072
589.372827	0.235196
589.583785	0.235054
589.794726	0.235538
590.005648	0.235955
590.216552	0.236243
590.427437	0.236603
590.638305	0.236746
590.849154	0.236655
591.059985	0.236778
591.270798	0.236765
591.481592	0.236757
591.692369	0.236355
591.903127	0.236804
592.113867	0.237330
592.324588	0.237441
592.535292	0.237516
592.745977	0.238086
592.956644	0.238514
593.167293	0.239023
593.377923	0.239593
593.588536	0.240493
593.799130	0.240440
594.009706	0.240220
594.220263	0.240162
594.430803	0.240245
594.641324	0.240035
594.851827	0.240007
595.062312	0.239624
595.272778	0.239685
595.483227	0.239513
595.693657	0.239811
595.904069	0.239851
596.114462	0.240013
596.324838	0.240511
596.535195	0.240961
596.745534	0.241006
596.955855	0.241331
597.166157	0.241505
597.376441	0.241880
597.586707	0.241939
597.796955	0.242550
598.007185	0.243328
598.217396	0.242960
598.427589	0.243003
598.637764	0.243035
598.847921	0.243105
599.058060	0.242903
599.268180	0.242800
599.478282	0.242795
599.688366	0.242516
599.898431	0.242488
600.108479	0.242684
600.318508	0.242651
600.528519	0.242963
600.738511	0.243038
600.948486	0.243434
601.158442	0.243355
601.368380	0.243338
601.578300	0.243561
601.788202	0.243486
601.998085	0.243660
602.207950	0.243924
602.417797	0.243862
602.627626	0.244061
602.837436	0.244386
603.047228	0.244441
603.257002	0.244889
603.466758	0.245040
603.676496	0.244972
603.886215	0.244989
604.095916	0.245010
604.305599	0.244907
604.515264	0.245198
604.724910	0.245227
604.934538	0.245466
605.144148	0.245311
605.353740	0.245526
605.563314	0.245668
605.772869	0.245924
605.982406	0.245890
606.191925	0.246571
606.401425	0.246779
606.610908	0.246587
606.820372	0.246968
607.029818	0.247397
607.239246	0.247283
607.448655	0.247322
607.658047	0.247405
607.867420	0.247704
608.076775	0.247481
608.286111	0.247250
608.495430	0.247588
608.704730	0.247692
608.914012	0.247741
609.123275	0.247784
609.332521	0.248330
609.541748	0.248238
609.750957	0.248334
609.960148	0.248565
610.169321	0.248752
610.378475	0.248462
610.587611	0.248510
610.796729	0.248481
611.005829	0.248667
611.214910	0.248715
611.423974	0.249251
611.633019	0.249303
611.842045	0.249450
612.051054	0.249826
612.260044	0.250374
612.469017	0.250478
612.677970	0.250405
612.886906	0.250540
613.095824	0.250361
613.304723	0.250232
613.513604	0.250452
613.722467	0.250506
613.931311	0.250551
614.140138	0.250428
614.348946	0.250379
614.557736	0.250612
614.766507	0.250731
614.975261	0.251175
615.183996	0.251460
615.392713	0.251546
615.601412	0.251563
615.810092	0.251490
616.018754	0.251510
616.227399	0.251645
616.436024	0.251659
616.644632	0.252052
616.853222	0.252047
617.061793	0.252089
617.270346	0.252280
617.478880	0.252484
617.687397	0.252444
617.895895	0.252665
618.104375	0.253088
618.312837	0.253276
618.521281	0.253023
618.729706	0.253242
618.938113	0.253404
619.146502	0.253526
619.354873	0.253628
619.563226	0.253987
619.771560	0.254381
619.979876	0.254154
620.188174	0.254561
620.396453	0.254816
620.604715	0.254938
620.812958	0.255142
621.021183	0.255388
621.229390	0.255468
621.437578	0.255574
621.645748	0.255526
621.853900	0.255895
622.062034	0.255798
622.270150	0.256220
622.478247	0.256232
622.686326	0.256247
622.894387	0.256208
623.102430	0.256116
623.310454	0.256285
623.518461	0.256518
623.726449	0.256920
623.934418	0.257254
624.142370	0.257158
624.350303	0.257169
624.558218	0.257241
624.766115	0.257423
624.973994	0.257811
625.181855	0.257923
625.389697	0.257707
625.597521	0.257174
625.805327	0.257466
626.013114	0.257609
626.220883	0.257464
626.428634	0.257627
626.636367	0.257821
626.844082	0.257852
627.051778	0.258287
627.259457	0.258200
627.467117	0.258817
627.674758	0.258756
627.882382	0.258850
628.089987	0.259304
628.297574	0.259511
628.505143	0.259559
628.712694	0.259641
628.920226	0.259292
629.127740	0.260100
629.335236	0.260041
629.542714	0.260389
629.750174	0.260566
629.957615	0.260730
630.165038	0.260915
630.372443	0.260922
630.579829	0.261138
630.787198	0.261369
630.994548	0.261194
631.201880	0.261085
631.409194	0.260990
631.616489	0.260936
631.823766	0.261030
632.031025	0.261004
632.238266	0.261251
632.445489	0.261604
632.652693	0.262091
632.859879	0.262179
633.067047	0.262514
633.274197	0.262699
633.481329	0.263013
633.688442	0.263149
633.895537	0.263335
634.102614	0.263513
634.309672	0.263616
634.516713	0.263447
634.723735	0.263759
634.930739	0.263905
635.137724	0.263807
635.344692	0.263735
635.551641	0.264118
635.758572	0.264160
635.965485	0.264272
636.172379	0.264150
636.379256	0.264474
636.586114	0.264712
636.792954	0.264503
636.999775	0.264913
637.206579	0.265285
637.413364	0.265292
637.620131	0.265359
637.826880	0.265535
638.033610	0.265295
638.240323	0.265345
638.447017	0.265434
638.653692	0.265788
638.860350	0.265934
639.066990	0.266277
639.273611	0.266482
639.480214	0.266568
639.686798	0.266870
639.893365	0.267417
640.099913	0.267739
640.306443	0.267545
640.512955	0.267558
640.719449	0.267804
640.925924	0.267712
641.132381	0.267740
641.338820	0.268148
641.545241	0.268091
641.751644	0.268690
641.958028	0.268713
642.164394	0.269012
642.370742	0.269423
642.577071	0.269266
642.783383	0.269520
642.989676	0.269373
643.195951	0.269494
643.402207	0.269608
643.608446	0.269407
643.814666	0.269546
644.020868	0.269746
644.227052	0.269944
644.433218	0.270274
644.639365	0.270351
644.845494	0.270517
645.051605	0.270784
645.257698	0.270984
645.463772	0.271320
645.669828	0.271511
645.875866	0.271642
646.081886	0.271680
646.287888	0.271536
646.493871	0.271782
646.699836	0.272047
646.905783	0.271945
647.111712	0.272460
647.317622	0.272426
647.523514	0.272446
647.729388	0.272562
647.935244	0.272797
648.141082	0.273128
648.346901	0.272979
648.552702	0.272905
648.758485	0.272975
648.964250	0.272428
649.169996	0.272384
649.375724	0.272515
649.581434	0.273017
649.787126	0.273155
649.992800	0.272943
650.198455	0.273234
650.404092	0.273515
650.609711	0.273712
650.815311	0.274268
651.020894	0.274736
651.226458	0.274935
651.432004	0.274906
651.637532	0.274733
651.843041	0.275026
652.048532	0.275029
652.254006	0.275072
652.459460	0.275420
652.664897	0.275305
652.870315	0.275418
653.075716	0.275341
653.281097	0.275546
653.486461	0.275986
653.691807	0.276398
653.897134	0.277038
654.102443	0.277554
654.307734	0.277683
654.513006	0.277900
654.718261	0.277865
654.923497	0.278162
655.128715	0.278286
655.333915	0.278468
655.539096	0.278537
655.744259	0.278354
655.949404	0.278476
656.154531	0.278495
656.359640	0.278872
656.564730	0.279201
656.769802	0.279510
656.974856	0.279471
657.179892	0.279581
657.384909	0.279915
657.589908	0.280343
657.794889	0.280370
657.999852	0.280675
658.204797	0.280656
658.409723	0.280874
658.614631	0.280903
658.819521	0.281061
659.024393	0.281061
659.229246	0.281176
659.434081	0.281290
659.638898	0.281640
659.843697	0.281709
660.048478	0.282152
660.253240	0.282214
660.457984	0.282282
660.662710	0.282391
660.867417	0.282751
661.072107	0.282662
661.276778	0.282536
661.481431	0.282710
661.686066	0.282765
661.890682	0.282534
662.095281	0.282911
662.299861	0.283216
662.504422	0.283682
662.708966	0.284011
662.913491	0.284216
663.117999	0.284589
663.322488	0.284471
663.526958	0.284705
663.731411	0.285213
663.935845	0.285036
664.140261	0.285402
664.344659	0.285479
664.549038	0.285289
664.753400	0.285746
664.957743	0.286070
665.162068	0.286315
665.366375	0.286704
665.570663	0.286825
665.774933	0.287137
665.979185	0.287061
666.183419	0.287210
666.387635	0.287640
666.591832	0.287477
666.796011	0.287249
667.000172	0.287719
667.204315	0.287694
667.408439	0.287729
667.612545	0.288007
667.816634	0.288171
668.020703	0.288401
668.224755	0.288502
668.428788	0.288825
668.632803	0.289164
668.836800	0.289213
669.040779	0.289578
669.244739	0.289946
669.448681	0.289927
669.652605	0.290179
669.856511	0.290209
670.060399	0.290345
670.264268	0.290443
670.468119	0.290701
670.671952	0.290869
670.875767	0.290965
671.079563	0.291357
671.283341	0.291497
671.487101	0.291700
671.690843	0.291990
671.894567	0.292247
672.098272	0.292601
672.301959	0.292819
672.505628	0.293088
672.709278	0.293245
672.912911	0.293181
673.116525	0.293481
673.320121	0.293844
673.523699	0.294135
673.727258	0.294110
673.930799	0.294170
674.134322	0.294179
674.337827	0.294043
674.541314	0.294266
674.744782	0.294388
674.948232	0.294719
675.151664	0.294724
675.355078	0.294920
675.558474	0.295304
675.761851	0.295480
675.965210	0.295758
676.168551	0.296223
676.371873	0.296356
676.575178	0.296439
676.778464	0.296479
676.981732	0.296932
677.184981	0.297061
677.388213	0.297370
677.591426	0.297635
677.794621	0.297936
677.997798	0.298041
678.200956	0.298364
678.404097	0.298738
678.607219	0.299057
678.810323	0.299063
679.013408	0.299145
679.216476	0.299317
679.419525	0.299461
679.622556	0.299693
679.825569	0.299937
680.028563	0.299937
680.231540	0.299831
680.434498	0.299737
680.637438	0.299910
680.840359	0.300135
681.043263	0.300334
681.246148	0.300595
681.449015	0.300514
681.651864	0.300472
681.854694	0.300763
682.057506	0.301363
682.260301	0.301602
682.463076	0.301783
682.665834	0.301894
682.868573	0.301996
683.071295	0.301947
683.273998	0.302214
683.476682	0.302464
683.679349	0.302295
683.881997	0.302423
684.084627	0.302632
684.287239	0.302871
684.489833	0.303130
684.692408	0.303176
684.894965	0.303311
685.097504	0.303548
685.300025	0.303737
685.502527	0.304144
685.705012	0.304032
685.907478	0.304342
686.109925	0.304502
686.312355	0.304672
686.514766	0.304987
686.717159	0.305148
686.919534	0.305210
687.121891	0.305434
687.324230	0.305591
687.526550	0.306016
687.728852	0.306114
687.931136	0.306169
688.133401	0.306117
688.335649	0.305970
688.537878	0.306303
688.740089	0.306539
688.942281	0.306821
689.144456	0.307090
689.346612	0.306960
689.548750	0.307161
689.750870	0.307249
689.952971	0.307529
690.155055	0.307777
690.357120	0.307842
690.559167	0.308033
690.761195	0.307931
690.963206	0.308183
691.165198	0.308334
691.367172	0.308031
691.569128	0.308054
691.771065	0.308150
691.972984	0.308439
692.174885	0.308634
692.376768	0.308846
692.578633	0.309030
692.780479	0.308956
692.982308	0.309024
693.184118	0.309447
693.385909	0.309662
693.587683	0.309701
693.789438	0.309761
693.991175	0.309870
694.192894	0.309764
694.394595	0.309981
694.596277	0.310133
694.797941	0.310782
694.999587	0.311072
695.201215	0.311475
695.402824	0.311727
695.604416	0.311870
695.805989	0.311735
696.007543	0.311886
696.209080	0.311881
696.410598	0.311768
696.612099	0.311630
696.813580	0.311601
697.015044	0.311565
697.216490	0.311823
697.417917	0.311955
697.619326	0.312558
697.820717	0.312477
698.022089	0.312506
698.223444	0.312858
698.424780	0.312757
698.626098	0.312836
698.827397	0.312736
699.028679	0.312619
699.229942	0.312623
699.431187	0.312294
699.632414	0.312487
699.833622	0.313034
700.034813	0.313109
700.235985	0.313223
700.437139	0.313402
700.638274	0.313681
700.839392	0.313897
701.040491	0.314222
701.241572	0.314962
701.442635	0.315200
701.643679	0.315259
701.844706	0.315211
702.045714	0.315426
702.246704	0.315424
702.447675	0.315588
702.648629	0.315610
702.849564	0.315356
703.050481	0.315064
703.251380	0.315283
703.452260	0.315280
703.653122	0.315599
703.853966	0.315368
704.054792	0.315367
704.255600	0.315422
704.456389	0.315412
704.657160	0.315610
704.857913	0.315482
705.058648	0.315351
705.259365	0.315317
705.460063	0.315256
705.660743	0.315412
705.861405	0.315483
706.062048	0.315455
706.262674	0.315584
706.463281	0.315765
706.663870	0.315912
706.864441	0.315912
707.064993	0.316021
707.265527	0.315932
707.466043	0.315965
707.666541	0.315800
707.867021	0.315848
708.067482	0.315970
708.267925	0.315851
708.468350	0.315858
708.668757	0.315948
708.869145	0.315924
709.069516	0.316192
709.269868	0.316457
709.470201	0.316899
709.670517	0.316728
709.870814	0.316787
710.071093	0.317062
710.271354	0.317152
710.471597	0.317100
710.671821	0.317141
710.872028	0.317033
711.072216	0.317077
711.272385	0.316833
711.472537	0.316819
711.672670	0.316579
711.872785	0.316226
712.072882	0.316303
712.272961	0.316325
712.473021	0.316048
712.673063	0.316066
712.873087	0.315869
713.073093	0.315924
713.273081	0.315878
713.473050	0.315727
713.673001	0.315725
713.872934	0.315507
714.072849	0.315355
714.272745	0.315255
714.472623	0.314927
714.672483	0.314878
714.872325	0.314837
715.072148	0.314850
715.271954	0.314838
715.471741	0.314730
715.671509	0.314825
715.871260	0.314632
716.070992	0.314632
716.270707	0.314657
716.470403	0.314671
716.670080	0.314647
716.869740	0.314477
717.069381	0.314361
717.269004	0.314553
717.468609	0.314372
717.668195	0.314513
717.867764	0.314606
718.067314	0.314670
718.266846	0.314690
718.466360	0.314467
718.665855	0.314583
718.865332	0.314494
719.064791	0.314013
719.264232	0.314042
719.463655	0.314012
719.663059	0.313707
719.862445	0.313478
720.061813	0.313204
720.261163	0.313187
720.460494	0.312869
720.659807	0.312843
720.859102	0.312958
721.058379	0.312781
721.257638	0.312703
721.456878	0.312781
721.656100	0.312805
721.855304	0.312648
722.054490	0.312456
722.253657	0.312253
722.452806	0.312355
722.651937	0.312029
722.851050	0.312019
723.050145	0.311687
723.249221	0.311332
723.448279	0.311057
723.647319	0.311221
723.846340	0.311243
724.045344	0.311022
724.244329	0.310734
724.443296	0.310878
724.642245	0.310470
724.841175	0.310574
725.040088	0.310814
725.238982	0.310661
725.437857	0.310214
725.636715	0.310040
725.835554	0.310362
726.034376	0.310226
726.233179	0.310042
726.431963	0.310234
726.630730	0.310054
726.829478	0.309648
727.028208	0.309544
727.226920	0.309571
727.425614	0.309481
727.624289	0.309236
727.822946	0.309079
728.021585	0.309191
728.220206	0.308703
728.418808	0.308548
728.617392	0.308581
728.815958	0.308561
729.014506	0.308197
729.213036	0.307973
729.411547	0.307869
729.610040	0.307797
729.808515	0.307457
730.006972	0.307425
730.205410	0.307159
730.403831	0.306899
730.602233	0.306506
730.800616	0.306285
730.998982	0.306122
731.197329	0.305886
731.395658	0.305641
731.593969	0.305438
731.792262	0.305378
731.990536	0.305140
732.188793	0.305006
732.387031	0.304874
732.585250	0.304925
732.783452	0.305007
732.981635	0.304833
733.179800	0.304695
733.377947	0.304549
733.576076	0.304415
733.774186	0.304425
733.972278	0.304065
734.170352	0.304166
734.368408	0.304074
734.566446	0.303856
734.764465	0.303938
734.962466	0.303801
735.160449	0.303467
735.358413	0.303303
735.556360	0.303072
735.754288	0.303016
735.952198	0.302605
736.150090	0.302173
736.347963	0.301963
736.545818	0.301560
736.743655	0.301464
736.941474	0.301338
737.139275	0.301042
737.337057	0.301103
737.534821	0.300825
737.732567	0.300534
737.930295	0.300459
738.128005	0.300241
738.325696	0.299831
738.523369	0.299566
738.721024	0.299364
738.918660	0.299210
739.116279	0.298863
739.313879	0.298948
739.511461	0.298968
739.709024	0.299033
739.906570	0.298754
740.104097	0.299143
740.301606	0.299037
740.499097	0.299179
740.696569	0.298941
740.894024	0.298867
741.091460	0.298601
741.288878	0.298542
741.486277	0.298178
741.683659	0.298097
741.881022	0.297739
742.078367	0.297636
742.275694	0.297311
742.473002	0.297464
742.670293	0.297119
742.867565	0.296841
743.064819	0.296887
743.262054	0.296729
743.459272	0.296577
743.656471	0.296289
743.853652	0.296140
744.050815	0.295798
744.247959	0.295390
744.445085	0.295398
744.642194	0.295353
744.839283	0.294748
745.036355	0.294645
745.233408	0.294079
745.430444	0.293765
745.627461	0.293379
745.824459	0.293152
746.021440	0.293231
746.218402	0.292941
746.415346	0.292583
746.612272	0.292446
746.809180	0.292238
747.006069	0.292300
747.202940	0.292333
747.399793	0.292055
747.596628	0.291720
747.793444	0.291347
747.990243	0.291247
748.187023	0.291259
748.383784	0.291144
748.580528	0.290548
748.777253	0.290184
748.973960	0.289586
749.170649	0.289506
749.367320	0.289620
749.563973	0.289236
749.760607	0.288717
749.957223	0.288237
750.153821	0.287978
750.350400	0.288006
750.546962	0.288143
750.743505	0.288375
750.940030	0.288402
751.136536	0.288163
751.333025	0.288032
751.529495	0.288071
751.725947	0.288032
751.922381	0.287878
752.118796	0.287795
752.315194	0.287278
752.511573	0.286891
752.707934	0.286455
752.904276	0.286453
753.100601	0.286528
753.296907	0.286238
753.493195	0.286202
753.689465	0.285935
753.885716	0.285613
754.081949	0.285730
754.278164	0.285365
754.474361	0.285312
754.670540	0.284770
754.866700	0.284256
755.062843	0.284190
755.258967	0.284128
755.455072	0.284064
755.651160	0.284191
755.847229	0.283595
756.043280	0.283985
756.239313	0.283826
756.435328	0.283776
756.631324	0.283358
756.827302	0.283073
757.023262	0.282568
757.219204	0.282202
757.415127	0.281894
757.611033	0.281817
757.806920	0.281257
758.002788	0.280847
758.198639	0.280792
758.394471	0.280839
758.590286	0.280585
758.786081	0.280449
758.981859	0.280571
759.177619	0.280312
759.373360	0.280311
759.569083	0.280015
759.764788	0.279835
759.960474	0.279315
760.156143	0.278994
760.351793	0.278908
760.547425	0.278683
760.743038	0.278213
760.938634	0.277966
761.134211	0.277855
761.329770	0.277828
761.525311	0.277563
761.720833	0.277667
761.916338	0.277494
762.111824	0.277368
762.307292	0.277267
762.502741	0.277444
762.698173	0.277386
762.893586	0.277313
763.088981	0.277092
763.284358	0.277230
763.479716	0.276966
763.675057	0.277003
763.870379	0.276731
764.065683	0.276523
764.260968	0.276185
764.456236	0.275949
764.651485	0.275872
764.846716	0.275872
765.041929	0.275640
765.237123	0.275529
765.432299	0.275483
765.627457	0.275454
765.822597	0.275310
766.017719	0.274948
766.212822	0.274891
766.407907	0.274412
766.602974	0.273945
766.798023	0.273926
766.993054	0.273791
767.188066	0.273422
767.383060	0.273278
767.578036	0.273378
767.772993	0.273511
767.967933	0.273480
768.162854	0.273359
768.357757	0.273452
768.552642	0.273412
768.747508	0.273191
768.942356	0.273314
769.137186	0.273368
769.331998	0.273363
769.526792	0.273345
769.721567	0.273328
769.916324	0.273174
770.111063	0.273075
770.305784	0.272846
770.500486	0.272906
770.695171	0.273059
770.889837	0.272587
771.084484	0.272029
771.279114	0.271940
771.473725	0.271613
771.668318	0.271523
771.862893	0.271222
772.057450	0.271130
772.251988	0.270780
772.446509	0.270399
772.641011	0.270590
772.835494	0.270885
773.029960	0.270507
773.224407	0.270348
773.418836	0.270500
773.613247	0.270484
773.807640	0.270160
774.002014	0.270388
774.196370	0.270416
774.390708	0.270085
774.585028	0.269876
774.779330	0.269967
774.973613	0.269705
775.167878	0.269469
775.362125	0.269651
775.556354	0.269939
775.750564	0.269636
775.944756	0.269469
776.138930	0.269497
776.333086	0.269433
776.527223	0.269547
776.721343	0.269853
776.915444	0.270003
777.109526	0.269694
777.303591	0.269176
777.497637	0.269518
777.691666	0.269560
777.885676	0.269479
778.079667	0.269295
778.273641	0.269051
778.467596	0.269164
778.661533	0.269217
778.855452	0.269481
779.049352	0.269748
779.243235	0.269731
779.437099	0.269523
779.630945	0.269859
779.824773	0.269877
780.018582	0.270098
780.212373	0.269836
780.406146	0.269804
780.599901	0.269697
780.793638	0.269809
780.987356	0.269667
781.181056	0.269725
781.374738	0.269536
781.568402	0.269918
781.762047	0.269508
781.955674	0.269725
782.149283	0.269636
782.342874	0.269756
782.536447	0.270019
782.730001	0.269904
782.923537	0.269727
783.117055	0.269843
783.310555	0.269474
783.504036	0.269703
783.697499	0.269523
783.890944	0.269444
784.084371	0.269069
784.277780	0.268792
784.471170	0.269036
784.664542	0.269248
784.857896	0.269019
785.051231	0.269060
785.244549	0.269232
785.437848	0.269374
785.631129	0.269565
785.824392	0.270136
786.017636	0.269915
786.210863	0.269839
786.404071	0.269930
786.597260	0.270143
786.790432	0.270333
786.983585	0.270129
787.176721	0.270093
787.369838	0.269963
787.562936	0.269619
787.756017	0.269861
787.949079	0.269790
788.142123	0.269761
788.335149	0.269668
788.528156	0.269778
788.721146	0.270107
788.914117	0.270129
789.107070	0.270028
789.300005	0.270206
789.492921	0.270339
789.685819	0.270424
789.878699	0.270687
790.071561	0.270824
790.264405	0.270785
790.457230	0.270695
790.650037	0.270853
790.842826	0.271255
791.035597	0.271366
791.228349	0.271496
791.421084	0.271725
791.613800	0.271759
791.806497	0.271961
791.999177	0.272167
792.191838	0.272420
792.384481	0.272699
792.577106	0.272648
792.769713	0.272597
792.962301	0.272912
793.154871	0.272733
793.347423	0.272489
793.539957	0.272614
793.732473	0.272568
793.924970	0.272507
794.117449	0.272308
794.309910	0.272269
794.502353	0.272325
794.694777	0.271929
794.887183	0.272426
795.079571	0.272820
795.271941	0.272775
795.464293	0.272982
795.656626	0.272964
795.848941	0.273039
796.041238	0.273592
796.233516	0.274125
796.425777	0.274798
796.618019	0.275048
796.810243	0.275365
797.002449	0.275693
797.194636	0.275745
797.386805	0.276134
797.578956	0.276421
797.771089	0.276347
797.963204	0.276258
798.155300	0.275929
798.347378	0.275851
798.539438	0.275867
798.731480	0.275881
798.923503	0.276017
799.115509	0.276362
799.307496	0.276496
799.499465	0.276488
799.691415	0.276942
799.883348	0.277234
800.075262	0.277462
800.267158	0.277706
800.459035	0.277806
800.650895	0.277811
800.842736	0.277467
801.034559	0.277800
801.226364	0.278318
801.418150	0.278506
801.609919	0.278610
801.801669	0.278859
801.993401	0.279166
802.185114	0.279337
802.376810	0.279908
802.568487	0.280518
802.760146	0.280811
802.951787	0.281097
803.143409	0.281228
803.335014	0.281660
803.526600	0.281817
803.718168	0.281939
803.909717	0.282540
804.101249	0.282761
804.292762	0.282936
804.484257	0.282906
804.675734	0.283047
804.867192	0.282947
805.058632	0.282994
805.250054	0.283111
805.441458	0.283121
805.632844	0.283061
805.824211	0.283256
806.015561	0.283411
806.206891	0.283838
806.398204	0.283744
806.589499	0.283991
806.780775	0.284291
806.972033	0.284294
807.163273	0.284704
807.354495	0.284919
807.545698	0.285059
807.736883	0.285296
807.928050	0.285335
808.119199	0.286061
808.310329	0.286495
808.501441	0.286866
808.692535	0.287527
808.883611	0.287851
809.074669	0.288257
809.265708	0.288614
809.456729	0.288850
809.647732	0.289280
809.838717	0.289297
810.029683	0.289642
810.220632	0.290092
810.411562	0.290157
810.602474	0.290278
810.793367	0.290736
810.984242	0.291097
811.175100	0.291424
811.365938	0.291757
811.556759	0.291905
811.747562	0.292154
811.938346	0.292248
812.129112	0.292421
812.319860	0.292966
812.510589	0.292861
812.701300	0.292803
812.891994	0.293082
813.082668	0.293212
813.273325	0.293787
813.463964	0.293924
813.654584	0.293942
813.845186	0.294249
814.035769	0.294584
814.226335	0.295034
814.416882	0.295791
814.607411	0.296002
814.797922	0.296416
814.988415	0.296541
815.178889	0.297274
815.369345	0.297885
815.559783	0.298265
815.750203	0.298423
815.940605	0.298446
816.130988	0.298438
816.321353	0.299016
816.511700	0.299285
816.702028	0.299653
816.892339	0.299854
817.082631	0.300282
817.272905	0.300647
817.463161	0.301062
817.653398	0.301745
817.843617	0.302228
818.033819	0.302440
818.224001	0.303056
818.414166	0.303747
818.604312	0.303844
818.794440	0.304251
818.984550	0.304533
819.174642	0.304872
819.364716	0.305619
819.554771	0.306071
819.744808	0.306585
819.934827	0.306855
820.124827	0.306902
820.314810	0.307330
820.504774	0.307494
820.694720	0.307906
820.884647	0.308284
821.074557	0.308277
821.264448	0.308542
821.454321	0.308890
821.644176	0.308997
821.834012	0.309365
822.023831	0.309776
822.213631	0.310115
822.403413	0.310503
822.593176	0.310608
822.782922	0.311013
822.972649	0.311227
823.162358	0.311545
823.352049	0.312303
823.541721	0.312538
823.731376	0.312637
823.921012	0.312836
824.110629	0.313428
824.300229	0.313744
824.489811	0.314091
824.679374	0.314516
824.868919	0.314951
825.058445	0.315098
825.247954	0.315829
825.437444	0.316485
825.626916	0.317177
825.816370	0.317675
826.005806	0.318133
826.195223	0.318532
826.384622	0.319021
826.574003	0.319345
826.763366	0.319560
826.952711	0.319774
827.142037	0.320559
827.331345	0.320974
827.520635	0.321040
827.709906	0.321455
827.899160	0.321384
828.088395	0.321618
828.277612	0.321874
828.466810	0.321965
828.655991	0.322151
828.845153	0.321884
829.034297	0.322074
829.223423	0.322810
829.412531	0.323037
829.601620	0.323840
829.790691	0.324239
829.979744	0.324758
830.168779	0.325654
830.357795	0.326254
830.546793	0.327116
830.735773	0.327688
830.924735	0.327906
831.113679	0.328576
831.302604	0.328700
831.491511	0.329264
831.680400	0.329785
831.869271	0.330361
832.058123	0.330822
832.246957	0.331237
832.435773	0.331450
832.624571	0.331823
832.813351	0.332474
833.002112	0.333274
833.190855	0.333803
833.379580	0.334350
833.568287	0.334807
833.756975	0.334998
833.945645	0.335195
834.134297	0.335722
834.322931	0.336278
834.511547	0.336601
834.700144	0.337152
834.888723	0.337731
835.077284	0.338131
835.265826	0.338209
835.454351	0.339080
835.642857	0.339817
835.831345	0.340729
836.019815	0.341452
836.208266	0.342026
836.396699	0.342234
836.585114	0.342770
836.773511	0.343410
836.961890	0.344251
837.150250	0.344729
837.338592	0.345332
837.526916	0.345295
837.715222	0.345855
837.903510	0.346284
838.091779	0.347380
838.280030	0.347675
838.468263	0.348061
838.656477	0.348361
838.844674	0.348788
839.032852	0.349006
839.221012	0.349439
839.409153	0.349650
839.597277	0.350096
839.785382	0.350089
839.973469	0.350333
840.161538	0.350854
840.349589	0.351401
840.537621	0.352055
840.725635	0.352849
840.913631	0.353529
841.101609	0.353879
841.289568	0.354406
841.477509	0.355156
841.665432	0.356065
841.853337	0.356332
842.041224	0.356823
842.229092	0.356979
842.416942	0.356762
842.604774	0.357445
842.792588	0.357984
842.980383	0.358435
843.168160	0.358841
843.355919	0.359192
843.543660	0.359605
843.731382	0.360119
843.919087	0.360982
844.106773	0.362144
844.294441	0.362668
844.482090	0.363129
844.669722	0.363490
844.857335	0.364308
845.044930	0.364796
845.232507	0.365232
845.420065	0.365475
845.607605	0.365862
845.795127	0.366325
845.982631	0.366897
846.170117	0.367728
846.357584	0.368453
846.545033	0.368855
846.732464	0.369595
846.919877	0.370155
847.107272	0.370521
847.294648	0.370596
847.482006	0.370865
847.669346	0.371203
847.856667	0.371035
848.043971	0.371643
848.231256	0.371439
848.418523	0.371738
848.605771	0.372166
848.793002	0.372859
848.980214	0.373523
849.167408	0.373841
849.354584	0.374306
849.541742	0.374814
849.728881	0.374703
849.916002	0.375107
850.103105	0.375305
850.290190	0.375901
850.477256	0.376824
850.664304	0.377433
850.851334	0.377991
851.038346	0.378413
851.225340	0.379398
851.412315	0.379831
851.599272	0.380504
851.786211	0.381029
851.973132	0.381391
852.160034	0.381058
852.346918	0.381139
852.533784	0.381599
852.720632	0.381625
852.907462	0.382009
853.094273	0.382894
853.281066	0.383455
853.467841	0.383865
853.654598	0.384280
853.841336	0.384966
854.028056	0.385724
854.214758	0.385875
854.401442	0.386899
854.588107	0.387232
854.774755	0.387415
854.961384	0.387667
855.147995	0.388514
855.334587	0.389183
855.521162	0.389623
855.707718	0.390176
855.894256	0.390994
856.080775	0.390926
856.267277	0.391256
856.453760	0.391745
856.640225	0.392439
856.826672	0.392780
857.013101	0.393241
857.199511	0.393790
857.385903	0.394100
857.572277	0.394516
857.758633	0.395044
857.944970	0.395624
858.131290	0.396558
858.317591	0.397540
858.503873	0.397947
858.690138	0.398581
858.876384	0.398987
859.062612	0.399426
859.248822	0.399183
859.435014	0.399668
859.621188	0.399834
859.807343	0.399413
859.993480	0.399040
860.179599	0.398959
860.365699	0.398429
860.551781	0.398990
860.737846	0.398965
860.923891	0.399951
861.109919	0.400399
861.295929	0.400833
861.481920	0.401858
861.667893	0.402362
861.853848	0.403018
862.039784	0.403779
862.225702	0.403923
862.411603	0.404687
862.597484	0.404901
862.783348	0.405522
862.969193	0.405595
863.155021	0.405280
863.340830	0.405629
863.526620	0.405949
863.712393	0.406403
863.898147	0.406436
864.083883	0.406998
864.269601	0.407457
864.455301	0.407932
864.640982	0.408508
864.826645	0.409468
865.012290	0.410339
865.197917	0.410525
865.383526	0.410713
865.569116	0.411460
865.754688	0.411640
865.940242	0.411977
866.125777	0.411656
866.311295	0.412169
866.496794	0.412529
866.682275	0.412354
866.867737	0.412839
867.053182	0.413773
867.238608	0.414203
867.424016	0.414313
867.609406	0.414564
867.794778	0.415359
867.980131	0.415761
868.165466	0.415984
868.350783	0.416416
868.536082	0.416406
868.721362	0.416217
868.906625	0.416702
869.091869	0.417247
869.277094	0.417728
869.462302	0.418062
869.647491	0.418470
869.832662	0.418881
870.017815	0.418840
870.202950	0.419685
870.388066	0.420435
870.573165	0.420657
870.758245	0.420772
870.943306	0.421253
871.128350	0.421134
871.313375	0.421547
871.498382	0.421300
871.683371	0.422170
871.868342	0.422369
872.053294	0.422668
872.238229	0.422710
872.423144	0.423206
872.608042	0.423118
872.792922	0.423626
872.977783	0.423627
873.162626	0.424450
873.347451	0.424384
873.532258	0.424872
873.717046	0.424909
873.901816	0.425929
874.086568	0.426343
874.271302	0.426538
874.456017	0.426924
874.640715	0.427203
874.825394	0.427455
875.010055	0.428212
875.194697	0.428356
875.379322	0.428492
875.563928	0.428190
875.748516	0.428585
875.933085	0.429166
876.117637	0.429399
876.302170	0.429467
876.486685	0.429717
876.671182	0.429509
876.855661	0.430129
877.040121	0.430314
877.224563	0.430910
877.408987	0.430693
877.593393	0.430576
877.777780	0.430677
877.962150	0.431228
878.146501	0.431496
878.330833	0.431810
878.515148	0.431601
878.699444	0.432288
878.883722	0.432479
879.067982	0.432698
879.252224	0.433033
879.436447	0.433479
879.620653	0.434178
879.804840	0.434136
879.989008	0.434251
880.173159	0.434035
880.357291	0.434062
880.541405	0.434456
880.725501	0.435131
880.909579	0.435657
881.093638	0.435894
881.277680	0.435369
881.461703	0.435106
881.645707	0.435827
881.829694	0.436751
882.013662	0.436622
882.197612	0.436118
882.381544	0.436172
882.565458	0.436227
882.749353	0.436257
882.933230	0.436524
883.117089	0.437220
883.300930	0.436841
883.484753	0.437151
883.668557	0.437579
883.852343	0.438146
884.036111	0.437987
884.219861	0.438211
884.403592	0.438266
884.587305	0.438620
884.771000	0.439419
884.954677	0.439823
885.138335	0.438944
885.321976	0.439104
885.505598	0.439253
885.689201	0.439124
885.872787	0.438650
886.056354	0.438835
886.239904	0.438527
886.423434	0.437950
886.606947	0.438115
886.790442	0.439060
886.973918	0.438596
887.157376	0.438174
887.340816	0.438139
887.524237	0.438354
887.707641	0.438609
887.891026	0.439349
888.074393	0.439721
888.257741	0.439289
888.441072	0.438865
888.624384	0.439189
888.807678	0.439343
888.990954	0.439956
889.174211	0.440161
889.357451	0.440055
889.540672	0.440427
889.723875	0.439944
889.907059	0.440249
890.090226	0.440312
890.273374	0.440044
890.456504	0.439839
890.639616	0.439560
890.822709	0.439237
891.005785	0.439664
891.188842	0.438606
891.371881	0.438478
891.554901	0.438653
891.737904	0.438613
891.920888	0.438694
892.103854	0.438656
892.286802	0.438459
892.469731	0.438819
892.652643	0.438552
892.835536	0.438434
893.018410	0.438637
893.201267	0.437917
893.384106	0.437582
893.566926	0.438246
893.749728	0.438330
893.932511	0.438365
894.115277	0.438239
894.298024	0.437786
894.480753	0.437952
894.663464	0.437847
894.846157	0.438518
895.028831	0.438772
895.211487	0.438460
895.394125	0.438872
895.576745	0.439036
895.759346	0.438927
895.941930	0.438709
896.124495	0.438299
896.307041	0.438073
896.489570	0.437367
896.672080	0.437065
896.854573	0.437125
897.037046	0.436175
897.219502	0.435966
897.401940	0.435765
897.584359	0.435639
897.766760	0.435982
897.949143	0.435819
898.131507	0.435517
898.313854	0.435249
898.496182	0.434537
898.678492	0.434946
898.860783	0.434645
899.043057	0.434297
899.225312	0.434111
899.407549	0.433699
899.589768	0.434002
899.771968	0.433781
899.954151	0.433590
900.136315	0.433129
900.318461	0.432745
900.500588	0.432318
900.682698	0.432837
900.864789	0.432791
901.046862	0.432624
901.228917	0.431804
901.410953	0.431666
901.592971	0.431158
901.774972	0.430806
901.956953	0.430348
902.138917	0.430363
902.320862	0.429993
902.502790	0.428951
902.684699	0.428811
902.866589	0.428805
903.048462	0.428929
903.230316	0.429031
903.412152	0.429503
903.593970	0.430042
903.775770	0.429917
903.957551	0.429145
904.139314	0.429020
904.321059	0.428560
904.502786	0.427967
904.684494	0.427471
904.866185	0.427566
905.047857	0.427268
905.229510	0.426129
905.411146	0.425590
905.592763	0.425082
905.774363	0.425101
905.955943	0.424814
906.137506	0.424979
906.319051	0.424841
906.500577	0.424069
906.682085	0.423499
906.863575	0.423303
907.045046	0.422599
907.226500	0.422970
907.407935	0.423060
907.589352	0.422900
907.770750	0.422115
907.952131	0.421513
908.133493	0.420939
908.314837	0.420274
908.496163	0.420227
908.677470	0.420078
908.858760	0.419007
909.040031	0.418867
909.221284	0.418248
909.402518	0.418061
909.583735	0.418150
909.764933	0.417808
909.946113	0.417116
910.127275	0.416016
910.308418	0.415371
910.489544	0.414642
910.670651	0.413172
910.851740	0.412958
911.032810	0.412530
911.213863	0.411488
911.394897	0.411360
911.575913	0.411362
911.756911	0.411054
911.937890	0.411228
912.118851	0.411438
912.299794	0.411042
912.480719	0.410019
912.661626	0.409902
912.842514	0.408843
913.023384	0.407759
913.204236	0.406668
913.385070	0.406255
913.565886	0.404916
913.746683	0.404323
913.927462	0.404681
914.108223	0.404538
914.288965	0.403075
914.469690	0.403160
914.650396	0.403025
914.831084	0.402272
915.011754	0.401902
915.192405	0.402042
915.373038	0.401744
915.553653	0.401812
915.734250	0.401038
915.914829	0.400531
916.095389	0.400129
916.275931	0.399493
916.456455	0.399382
916.636961	0.399119
916.817448	0.397736
916.997917	0.397036
917.178368	0.395561
917.358801	0.394755
917.539216	0.393803
917.719612	0.392419
917.899990	0.391695
918.080350	0.391692
918.260692	0.391385
918.441015	0.391105
918.621320	0.389639
918.801607	0.388873
918.981876	0.387788
919.162127	0.387981
919.342359	0.387785
919.522573	0.387018
919.702769	0.386018
919.882947	0.385097
920.063106	0.384514
920.243247	0.384885
920.423370	0.383742
920.603475	0.383804
920.783562	0.382616
920.963630	0.381663
921.143680	0.380415
921.323712	0.379356
921.503725	0.377777
921.683721	0.376593
921.863698	0.374607
922.043657	0.374253
922.223598	0.373070
922.403520	0.372401
922.583424	0.371221
922.763311	0.371548
922.943178	0.371285
923.123028	0.370857
923.302859	0.369821
923.482673	0.369636
923.662467	0.368863
923.842244	0.368321
924.022003	0.367663
924.201743	0.367906
924.381465	0.366973
924.561169	0.366667
924.740854	0.366111
924.920522	0.366088
925.100171	0.364425
925.279802	0.363405
925.459414	0.363328
925.639009	0.362704
925.818585	0.362361
925.998143	0.361220
926.177683	0.359775
926.357205	0.359221
926.536708	0.358879
926.716193	0.359219
926.895660	0.358177
927.075109	0.356454
927.254539	0.355743
927.433951	0.354158
927.613345	0.353947
927.792721	0.353235
927.972079	0.351309
928.151418	0.349245
928.330739	0.348590
928.510042	0.347885
928.689327	0.347576
928.868593	0.345787
929.047841	0.344676
929.227071	0.343159
929.406283	0.341699
929.585476	0.340999
929.764652	0.340381
929.943809	0.338853
930.122948	0.337831
930.302068	0.336747
930.481171	0.337587
930.660255	0.336438
930.839321	0.335351
931.018369	0.335311
931.197398	0.334785
931.376409	0.334292
931.555402	0.333336
931.734377	0.332365
931.913334	0.332111
932.092272	0.330578
932.271192	0.330761
932.450094	0.329700
932.628978	0.328405
932.807844	0.327848
932.986691	0.327567
933.165520	0.327453
933.344331	0.327370
933.523123	0.325223
933.701898	0.324149
933.880654	0.322907
934.059392	0.322436
934.238111	0.321673
934.416813	0.320769
934.595496	0.319911
934.774161	0.318192
934.952808	0.317057
935.131437	0.316487
935.310047	0.315253
935.488639	0.314998
935.667213	0.314000
935.845769	0.312701
936.024306	0.310737
936.202825	0.309932
936.381326	0.309705
936.559809	0.308582
936.738274	0.308326
936.916720	0.307818
937.095148	0.305966
937.273558	0.305891
937.451950	0.304940
937.630323	0.304533
937.808678	0.302688
937.987015	0.301990
938.165334	0.300841
938.343635	0.299779
938.521917	0.298360
938.700181	0.298141
938.878427	0.295805
939.056655	0.294790
939.234864	0.293818
939.413055	0.292520
939.591228	0.290267
939.769383	0.289732
939.947519	0.287544
940.125638	0.286215
940.303738	0.283358
940.481820	0.282829
940.659883	0.280820
940.837929	0.280780
941.015956	0.280696
941.193965	0.281171
941.371955	0.279264
941.549928	0.278763
941.727882	0.278012
941.905818	0.277890
942.083736	0.276841
942.261636	0.276452
942.439517	0.273226
942.617380	0.270845
942.795225	0.269142
942.973052	0.268578
943.150860	0.268369
943.328651	0.266157
943.506423	0.264723
943.684176	0.264280
943.861912	0.262766
944.039629	0.262897
944.217328	0.261513
944.395009	0.260622
944.572672	0.259230
944.750317	0.257076
944.927943	0.258070
945.105551	0.255859
945.283141	0.255247
945.460712	0.255267
945.638265	0.253789
945.815801	0.254112
945.993317	0.252162
946.170816	0.251167
946.348297	0.250332
946.525759	0.247351
946.703203	0.248328
946.880629	0.247252
947.058036	0.245321
947.235425	0.244064
947.412797	0.241825
947.590149	0.240494
947.767484	0.239087
947.944800	0.236083
948.122099	0.234075
948.299379	0.232929
948.476640	0.231332
948.653884	0.231304
948.831109	0.231860
949.008316	0.229693
949.185505	0.229048
949.362676	0.227426
949.539828	0.227492
949.716962	0.229004
949.894078	0.228067
950.071176	0.226546
950.248256	0.224996
950.425317	0.221494
950.602360	0.220520
950.779385	0.217120
950.956391	0.218629
951.133380	0.218805
951.310350	0.217811
951.487302	0.216004
951.664235	0.214882
951.841151	0.214469
952.018048	0.214799
952.194927	0.214881
952.371788	0.217543
952.548631	0.212939
952.725455	0.211450
952.902261	0.210852
953.079049	0.209770
953.255819	0.208322
953.432570	0.207528
953.609303	0.204402
953.786018	0.206059
953.962715	0.203375
954.139394	0.203632
954.316054	0.200177
954.492696	0.197243
954.669320	0.196017
954.845926	0.195036
955.022513	0.192604
955.199083	0.193027
955.375634	0.188164
955.552166	0.187659
955.728681	0.186131
955.905177	0.185627
956.081655	0.184705
956.258115	0.182274
956.434557	0.180343
956.610980	0.180397
956.787385	0.179422
956.963772	0.181503
957.140141	0.180199
957.316492	0.179057
957.492824	0.179674
957.669138	0.180743
957.845434	0.182475
958.021712	0.181389
958.197971	0.179368
958.374212	0.178152
958.550435	0.175227
958.726640	0.175100
958.902826	0.174804
959.078995	0.176822
959.255145	0.176347
959.431277	0.173207
959.607390	0.172341
959.783486	0.171917
959.959563	0.171350
960.135622	0.172015
960.311662	0.171593
960.487685	0.172869
960.663689	0.170515
960.839675	0.169930
961.015643	0.170534
961.191593	0.172622
961.367524	0.173152
961.543437	0.170684
961.719332	0.169218
961.895209	0.169234
962.071067	0.167284
962.246907	0.165201
962.422730	0.161936
962.598533	0.161519
962.774319	0.161178
962.950086	0.159312
963.125835	0.160396
963.301566	0.158405
963.477279	0.158135
963.652973	0.157507
963.828650	0.156369
964.004308	0.157260
964.179947	0.159743
964.355569	0.157698
964.531172	0.158166
964.706757	0.159551
964.882324	0.162470
965.057873	0.161465
965.233403	0.161331
965.408916	0.162702
965.584410	0.163909
965.759885	0.161464
965.935343	0.159935
966.110782	0.158152
966.286203	0.156433
966.461606	0.154433
966.636991	0.152293
966.812357	0.152905
966.987705	0.151427
967.163035	0.149037
967.338347	0.148566
967.513641	0.149399
967.688916	0.149523
967.864173	0.151105
968.039412	0.152542
968.214632	0.154521
968.389835	0.155274
968.565019	0.155126
968.740185	0.155280
968.915333	0.152442
969.090462	0.154439
969.265573	0.156025
969.440667	0.155182
969.615741	0.155444
969.790798	0.155305
969.965836	0.153829
970.140856	0.154105
970.315858	0.155138
970.490842	0.155764
970.665808	0.151904
970.840755	0.149032
971.015684	0.150296
971.190595	0.148007
971.365487	0.145653
971.540362	0.145611
971.715218	0.146198
971.890056	0.148289
972.064875	0.149678
972.239677	0.152033
972.414460	0.152895
972.589225	0.152298
972.763972	0.154352
972.938700	0.154741
973.113411	0.155622
973.288103	0.155434
973.462777	0.151374
973.637432	0.150955
973.812070	0.149512
973.986689	0.149353
974.161290	0.146609
974.335873	0.146252
974.510437	0.148372
974.684984	0.149600
974.859512	0.150046
975.034022	0.150695
975.208513	0.151801
975.382987	0.152917
975.557442	0.155596
975.731879	0.157997
975.906298	0.159170
976.080698	0.160003
976.255080	0.158854
976.429445	0.158919
976.603790	0.161343
976.778118	0.158248
976.952427	0.161586
977.126719	0.158170
977.300992	0.156862
977.475246	0.155983
977.649483	0.152542
977.823701	0.151543
977.997901	0.148543
978.172083	0.144958
978.346247	0.145422
978.520392	0.143309
978.694519	0.142222
978.868628	0.140873
979.042719	0.136792
979.216791	0.137520
979.390845	0.135667
979.564882	0.138948
979.738899	0.141066
979.912899	0.141463
980.086880	0.138332
980.260843	0.142992
980.434788	0.144938
980.608715	0.148030
980.782623	0.147668
980.956514	0.152954
981.130386	0.151535
981.304240	0.150652
981.478075	0.152343
981.651892	0.157552
981.825692	0.156856
981.999472	0.157377
982.173235	0.157222
982.346980	0.160650
982.520706	0.158576
982.694414	0.157652
982.868104	0.158433
983.041775	0.158032
983.215428	0.155766
983.389064	0.152540
983.562680	0.149894
983.736279	0.150138
983.909860	0.148835
984.083422	0.147412
984.256966	0.151310
984.430491	0.150744
984.603999	0.150673
984.777488	0.149847
984.950959	0.152062
985.124412	0.155198
985.297847	0.154807
985.471263	0.151669
985.644661	0.151851
985.818041	0.149276
985.991403	0.146911
986.164747	0.145529
986.338072	0.146375
986.511379	0.148424
986.684668	0.144350
986.857938	0.144123
987.031191	0.147721
987.204425	0.148202
987.377641	0.149975
987.550839	0.150819
987.724018	0.152862
987.897179	0.152108
988.070322	0.150735
988.243447	0.154298
988.416554	0.156098
988.589642	0.155418
988.762712	0.156609
988.935764	0.154956
989.108798	0.156912
989.281813	0.154677
989.454811	0.157370
989.627790	0.156134
989.800751	0.156011
989.973693	0.155542
990.146617	0.155887
990.319524	0.153882
990.492412	0.153062
990.665281	0.151721
990.838133	0.151024
991.010966	0.148896
991.183781	0.147925
991.356578	0.147544
991.529356	0.146274
991.702117	0.146143
991.874859	0.146719
992.047583	0.147055
992.220288	0.147315
992.392976	0.147658
992.565645	0.147812
992.738296	0.149840
992.910929	0.149568
993.083543	0.148233
993.256139	0.147405
993.428718	0.147135
993.601277	0.146783
993.773819	0.146989
993.946342	0.149393
994.118848	0.150546
994.291335	0.148715
994.463803	0.148499
994.636254	0.146030
994.808686	0.144859
994.981100	0.144837
995.153496	0.147340
995.325874	0.147046
995.498233	0.146327
995.670574	0.145725
995.842897	0.146429
996.015202	0.148412
996.187488	0.151523
996.359757	0.152575
996.532007	0.152409
996.704239	0.151389
996.876452	0.150671
997.048648	0.148491
997.220825	0.146061
997.392984	0.145157
997.565124	0.142734
997.737247	0.143116
997.909351	0.140407
998.081437	0.139017
998.253505	0.138215
998.425554	0.137388
998.597586	0.139158
998.769599	0.138395
998.941594	0.140760
999.113571	0.140929
999.285529	0.142640
999.457469	0.142049
999.629391	0.144676
999.801295	0.142893
999.973181	0.145488
1000.145048	0.147448
1000.316897	0.148427
1000.488728	0.147012
1000.660541	0.148430
1000.832335	0.147089
1001.004111	0.148246
1001.175869	0.147239
1001.347609	0.147011
1001.519331	0.145509
1001.691034	0.143039
1001.862719	0.142633
1002.034386	0.142914
1002.206035	0.143107
1002.377665	0.142619
1002.549277	0.144548
1002.720871	0.143408
1002.892447	0.144013
1003.064004	0.145772
1003.235544	0.145683
1003.407065	0.147761
1003.578568	0.145891
1003.750052	0.145007
1003.921519	0.144240
1004.092967	0.144161
1004.264397	0.146700
1004.435809	0.147397
1004.607202	0.145489
1004.778577	0.145168
1004.949934	0.142668
1005.121273	0.143648
1005.292594	0.143713
1005.463896	0.145016
1005.635180	0.141165
1005.806446	0.136575
1005.977694	0.136990
1006.148923	0.138472
1006.320135	0.138267
1006.491328	0.138129
1006.662503	0.138432
1006.833659	0.138652
1007.004798	0.138904
1007.175918	0.141396
1007.347020	0.145018
1007.518103	0.144287
1007.689169	0.143048
1007.860216	0.145161
1008.031245	0.146622
1008.202256	0.144453
1008.373248	0.144694
1008.544223	0.144456
1008.715179	0.143542
1008.886117	0.142669
1009.057036	0.143796
1009.227938	0.144425
1009.398821	0.146423
1009.569686	0.145105
1009.740533	0.148821
1009.911361	0.150517
1010.082172	0.149035
1010.252964	0.150269
1010.423738	0.148033
1010.594493	0.145406
1010.765231	0.145462
1010.935950	0.142137
1011.106651	0.144769
1011.277334	0.142862
1011.447998	0.139281
1011.618645	0.139794
1011.789273	0.140040
1011.959882	0.140330
1012.130474	0.141185
1012.301048	0.138388
1012.471603	0.139195
1012.642140	0.136439
1012.812658	0.137018
1012.983159	0.139858
1013.153641	0.138601
1013.324105	0.138733
1013.494551	0.140265
1013.664979	0.140168
1013.835388	0.142088
1014.005779	0.141419
1014.176152	0.143832
1014.346507	0.143564
1014.516843	0.141423
1014.687162	0.144757
1014.857462	0.145465
1015.027744	0.144340
1015.198007	0.143716
1015.368252	0.141915
1015.538480	0.141728
1015.708689	0.139352
1015.878879	0.138994
1016.049052	0.139345
1016.219206	0.139688
1016.389342	0.139015
1016.559460	0.139350
1016.729559	0.139368
1016.899641	0.140053
1017.069704	0.139238
1017.239749	0.141663
1017.409775	0.140645
1017.579784	0.141232
1017.749774	0.139069
1017.919746	0.139137
1018.089700	0.138020
1018.259635	0.140579
1018.429553	0.142358
1018.599452	0.142308
1018.769333	0.139585
1018.939195	0.141773
1019.109040	0.139981
1019.278866	0.140101
1019.448674	0.141048
1019.618464	0.143860
1019.788235	0.143360
1019.957989	0.142491
1020.127724	0.142747
1020.297441	0.144462
1020.467139	0.144145
1020.636820	0.143510
1020.806482	0.142907
1020.976126	0.142415
1021.145752	0.141662
1021.315359	0.140900
1021.484948	0.142599
1021.654519	0.144587
1021.824072	0.145702
1021.993607	0.144332
1022.163123	0.145462
1022.332621	0.143808
1022.502101	0.142498
1022.671563	0.143885
1022.841007	0.143683
1023.010432	0.142858
1023.179839	0.142133
1023.349228	0.140723
1023.518598	0.142144
1023.687951	0.142259
1023.857285	0.144089
1024.026601	0.143748
1024.195899	0.140123
1024.365178	0.137954
1024.534439	0.136130
1024.703682	0.133791
1024.872907	0.134373
1025.042114	0.132181
1025.211302	0.130988
1025.380472	0.130992
1025.549624	0.130638
1025.718758	0.131535
1025.887873	0.132993
1026.056970	0.132975
1026.226049	0.133736
1026.395110	0.133546
1026.564153	0.134640
1026.733177	0.135782
1026.902183	0.133649
1027.071171	0.135560
1027.240141	0.136768
1027.409092	0.137126
1027.578026	0.139752
1027.746940	0.140203
1027.915837	0.140420
1028.084716	0.139978
1028.253576	0.140472
1028.422418	0.142186
1028.591242	0.140385
1028.760048	0.141586
1028.928835	0.141352
1029.097604	0.139574
1029.266355	0.140062
1029.435088	0.137190
1029.603803	0.136300
1029.772499	0.135221
1029.941177	0.134252
1030.109837	0.136213
1030.278478	0.134114
1030.447102	0.137446
1030.615707	0.138079
1030.784294	0.139790
1030.952863	0.142930
1031.121413	0.144472
1031.289945	0.145173
1031.458460	0.146145
1031.626955	0.146288
1031.795433	0.146691
1031.963892	0.144121
1032.132334	0.141551
1032.300756	0.138214
1032.469161	0.136808
1032.637548	0.136720
1032.805916	0.136391
1032.974266	0.136763
1033.142598	0.134160
1033.310911	0.134122
1033.479207	0.133046
1033.647484	0.135433
1033.815743	0.136430
1033.983983	0.136126
1034.152206	0.136308
1034.320410	0.135724
1034.488596	0.137076
1034.656764	0.138391
1034.824914	0.137324
1034.993045	0.138175
1035.161158	0.136925
1035.329253	0.138235
1035.497330	0.139098
1035.665388	0.137270
1035.833428	0.138370
1036.001450	0.137387
1036.169454	0.138276
1036.337440	0.140253
1036.505407	0.140236
1036.673356	0.140653
1036.841287	0.141245
1037.009200	0.142257
1037.177094	0.143429
1037.344970	0.141358
1037.512828	0.139505
1037.680668	0.136945
1037.848489	0.136726
1038.016293	0.135635
1038.184078	0.134670
1038.351845	0.131790
1038.519593	0.131484
1038.687324	0.132356
1038.855036	0.134605
1039.022730	0.136805
1039.190406	0.140682
1039.358063	0.139817
1039.525702	0.141710
1039.693323	0.140392
1039.860926	0.138171
1040.028511	0.136042
1040.196077	0.132421
1040.363625	0.131357
1040.531155	0.129380
1040.698667	0.127248
1040.866161	0.126378
1041.033636	0.126481
1041.201093	0.128962
1041.368532	0.132841
1041.535952	0.134243
1041.703355	0.135933
1041.870739	0.135837
1042.038105	0.136016
1042.205452	0.136128
1042.372782	0.136898
1042.540093	0.134248
1042.707386	0.134860
1042.874661	0.134363
1043.041918	0.134644
1043.209156	0.137063
1043.376376	0.137247
1043.543578	0.136761
1043.710762	0.135277
1043.877927	0.137410
1044.045074	0.137258
1044.212203	0.137395
1044.379314	0.137876
1044.546407	0.136071
1044.713481	0.137010
1044.880537	0.136892
1045.047575	0.138635
1045.214595	0.139465
1045.381596	0.137312
1045.548579	0.137167
1045.715544	0.136706
1045.882491	0.136260
1046.049420	0.137157
1046.216330	0.135033
1046.383222	0.134452
1046.550096	0.134742
1046.716951	0.134013
1046.883789	0.136770
1047.050608	0.136998
1047.217409	0.135720
1047.384192	0.135045
1047.550956	0.136415
1047.717703	0.136068
1047.884431	0.137491
1048.051140	0.137177
1048.217832	0.137318
1048.384505	0.135725
1048.551161	0.136526
1048.717798	0.139275
1048.884416	0.139834
1049.051017	0.138587
1049.217599	0.138651
1049.384163	0.138360
1049.550709	0.138897
1049.717237	0.141467
1049.883746	0.142666
1050.050237	0.145136
1050.216710	0.145168
1050.383165	0.145341
1050.549601	0.146310
1050.716019	0.147805
1050.882420	0.148961
1051.048801	0.147335
1051.215165	0.145046
1051.381510	0.143973
1051.547837	0.141364
1051.714146	0.138473
1051.880437	0.136711
1052.046709	0.136606
1052.212964	0.136098
1052.379200	0.133924
1052.545417	0.135586
1052.711617	0.138264
1052.877798	0.136763
1053.043961	0.136998
1053.210106	0.139192
1053.376233	0.141673
1053.542341	0.143970
1053.708432	0.143036
1053.874504	0.143023
1054.040557	0.140534
1054.206593	0.139671
1054.372610	0.139328
1054.538609	0.140083
1054.704590	0.139306
1054.870553	0.141079
1055.036497	0.136923
1055.202424	0.136860
1055.368331	0.138086
1055.534221	0.139357
1055.700093	0.138689
1055.865946	0.137015
1056.031781	0.136526
1056.197598	0.135187
1056.363397	0.129656
1056.529177	0.132267
1056.694939	0.132962
1056.860683	0.129367
1057.026409	0.130803
1057.192116	0.132614
1057.357806	0.135416
1057.523477	0.135779
1057.689130	0.137405
1057.854764	0.143146
1058.020381	0.141743
1058.185979	0.142848
1058.351559	0.147708
1058.517120	0.144461
1058.682664	0.142057
1058.848189	0.142162
1059.013696	0.142527
1059.179185	0.142143
1059.344656	0.137871
1059.510108	0.140482
1059.675542	0.138199
1059.840958	0.135268
1060.006356	0.136934
1060.171735	0.134966
1060.337096	0.134292
1060.502439	0.133893
1060.667764	0.133070
1060.833071	0.132558
1060.998359	0.129342
1061.163629	0.131506
1061.328881	0.133490
1061.494115	0.134984
1061.659330	0.138043
1061.824527	0.140822
1061.989706	0.139109
1062.154867	0.140785
1062.320010	0.143306
1062.485134	0.143983
1062.650240	0.141175
1062.815328	0.140908
1062.980398	0.140122
1063.145449	0.137406
1063.310482	0.135434
1063.475497	0.138019
1063.640494	0.135966
1063.805473	0.137135
1063.970433	0.137377
1064.135375	0.136516
1064.300299	0.135464
1064.465204	0.135867
1064.630092	0.138171
1064.794961	0.138267
1064.959812	0.139604
1065.124645	0.140233
1065.289459	0.137316
1065.454256	0.137777
1065.619034	0.139814
1065.783793	0.141305
1065.948535	0.143376
1066.113258	0.143417
1066.277964	0.144512
1066.442651	0.143985
1066.607319	0.145611
1066.771970	0.147920
1066.936602	0.149556
1067.101216	0.152721
1067.265812	0.152757
1067.430389	0.148654
1067.594949	0.149769
1067.759490	0.148985
1067.924013	0.148097
1068.088518	0.146963
1068.253004	0.145971
1068.417472	0.144802
1068.581922	0.140907
1068.746354	0.140846
1068.910768	0.141096
1069.075163	0.136916
1069.239540	0.137014
1069.403899	0.135561
1069.568240	0.136313
1069.732562	0.136475
1069.896866	0.136264
1070.061152	0.135899
1070.225420	0.135630
1070.389670	0.136038
1070.553901	0.140854
1070.718114	0.142441
1070.882309	0.145259
1071.046486	0.146519
1071.210644	0.144867
1071.374784	0.145660
1071.538906	0.148776
1071.703010	0.148765
1071.867096	0.151496
1072.031163	0.152035
1072.195212	0.147558
1072.359243	0.148283
1072.523256	0.146407
1072.687250	0.148861
1072.851226	0.149927
1073.015184	0.151305
1073.179124	0.151553
1073.343045	0.151082
1073.506949	0.149477
1073.670834	0.151593
1073.834701	0.148254
1073.998549	0.150218
1074.162380	0.150624
1074.326192	0.149567
1074.489986	0.147915
1074.653761	0.147389
1074.817519	0.148092
1074.981258	0.147723
1075.144979	0.149596
1075.308682	0.153271
1075.472367	0.152371
1075.636033	0.150423
1075.799681	0.151082
1075.963311	0.147554
1076.126923	0.149074
1076.290516	0.148556
1076.454092	0.149908
1076.617649	0.148694
1076.781187	0.145599
1076.944708	0.144405
1077.108210	0.148844
1077.271695	0.148119
1077.435160	0.151754
1077.598608	0.152512
1077.762038	0.152944
1077.925449	0.153542
1078.088842	0.153678
1078.252217	0.153988
1078.415573	0.153040
1078.578912	0.152323
1078.742232	0.152672
1078.905534	0.153490
1079.068817	0.151518
1079.232083	0.151322
1079.395330	0.152213
1079.558559	0.152521
1079.721770	0.156023
1079.884962	0.158825
1080.048136	0.156813
1080.211293	0.156325
1080.374430	0.155002
1080.537550	0.154008
1080.700651	0.155082
1080.863735	0.152578
1081.026800	0.152211
1081.189846	0.151833
1081.352875	0.151809
1081.515885	0.153094
1081.678877	0.154427
1081.841851	0.157668
1082.004807	0.159110
1082.167744	0.158801
1082.330663	0.160049
1082.493564	0.160208
1082.656447	0.157924
1082.819312	0.159450
1082.982158	0.158929
1083.144986	0.158218
1083.307796	0.155958
1083.470587	0.155793
1083.633361	0.158841
1083.796116	0.157534
1083.958853	0.159818
1084.121571	0.160837
1084.284272	0.156542
1084.446954	0.156413
1084.609618	0.154366
1084.772264	0.154996
1084.934892	0.157308
1085.097501	0.155918
1085.260092	0.155275
1085.422665	0.154536
1085.585220	0.156047
1085.747756	0.159913
1085.910274	0.162051
1086.072774	0.161831
1086.235256	0.163535
1086.397720	0.165591
1086.560165	0.164441
1086.722592	0.165974
1086.885001	0.159473
1087.047392	0.157619
1087.209764	0.154369
1087.372119	0.150931
1087.534455	0.154290
1087.696772	0.151715
1087.859072	0.149267
1088.021353	0.149385
1088.183616	0.152758
1088.345861	0.156850
1088.508088	0.159682
1088.670296	0.163193
1088.832486	0.163028
1088.994658	0.162306
1089.156812	0.163016
1089.318948	0.161798
1089.481065	0.159229
1089.643164	0.156411
1089.805245	0.157014
1089.967308	0.155354
1090.129352	0.153567
1090.291378	0.157502
1090.453386	0.157306
1090.615376	0.157595
1090.777347	0.160227
1090.939301	0.158030
1091.101236	0.154835
1091.263153	0.161137
1091.425051	0.161800
1091.586932	0.164521
1091.748794	0.162074
1091.910638	0.162762
1092.072463	0.162195
1092.234271	0.162647
1092.396060	0.168134
1092.557831	0.172341
1092.719584	0.168567
1092.881319	0.167029
1093.043035	0.165515
1093.204733	0.165733
1093.366413	0.166633
1093.528075	0.165987
1093.689718	0.165865
1093.851343	0.165320
1094.012950	0.163055
1094.174539	0.161912
1094.336110	0.165807
1094.497662	0.165213
1094.659196	0.169384
1094.820712	0.164671
1094.982210	0.165644
1095.143689	0.164657
1095.305151	0.163323
1095.466594	0.161852
1095.628018	0.161843
1095.789425	0.155433
1095.950813	0.159016
1096.112183	0.157491
1096.273535	0.160049
1096.434869	0.164793
1096.596184	0.166853
1096.757482	0.170602
1096.918761	0.175221
1097.080021	0.175903
1097.241264	0.178123
1097.402488	0.172138
1097.563694	0.171012
1097.724882	0.169949
1097.886052	0.166105
1098.047203	0.166739
1098.208336	0.163268
1098.369451	0.160992
1098.530548	0.162950
1098.691627	0.164530
1098.852687	0.169864
1099.013729	0.168130
1099.174753	0.171078
1099.335758	0.171871
1099.496746	0.169748
1099.657715	0.169643
1099.818666	0.170753
1099.979599	0.166650
1100.140513	0.170728
1100.301409	0.169756
1100.462287	0.175180
1100.623147	0.175363
1100.783989	0.174477
1100.944812	0.175706
1101.105617	0.178179
1101.266404	0.176174
1101.427173	0.183368
1101.587923	0.180667
1101.748656	0.182903
1101.909370	0.178837
1102.070066	0.176591
1102.230743	0.174835
1102.391403	0.174469
1102.552044	0.175642
1102.712667	0.177041
1102.873271	0.172386
1103.033858	0.173503
1103.194426	0.166999
1103.354976	0.170052
1103.515508	0.172997
1103.676021	0.176789
1103.836517	0.179290
1103.996994	0.172301
1104.157453	0.176570
1104.317893	0.177079
1104.478316	0.174593
1104.638720	0.179787
1104.799106	0.179940
1104.959474	0.183690
1105.119823	0.185902
1105.280155	0.179802
1105.440468	0.186034
1105.600763	0.179991
1105.761039	0.178234
1105.921298	0.183569
1106.081538	0.184797
1106.241760	0.182402
1106.401964	0.179824
1106.562149	0.177675
1106.722316	0.187902
1106.882465	0.195003
1107.042596	0.203107
1107.202709	0.204607
1107.362803	0.197336
1107.522879	0.198572
1107.682937	0.200577
1107.842977	0.199598
1108.002999	0.199859
1108.163002	0.193383
1108.322987	0.184226
1108.482954	0.183517
1108.642902	0.186260
1108.802833	0.188637
1108.962745	0.188937
1109.122639	0.188317
1109.282515	0.188443
1109.442372	0.192274
1109.602211	0.201105
1109.762032	0.206827
1109.921835	0.198692
1110.081620	0.201615
1110.241386	0.201234
1110.401134	0.199367
1110.560864	0.199344
1110.720576	0.200263
1110.880269	0.201550
1111.039945	0.191714
1111.199602	0.186355
1111.359240	0.195878
1111.518861	0.190917
1111.678463	0.188484
1111.838047	0.188284
1111.997613	0.184994
1112.157161	0.185380
1112.316690	0.180382
1112.476202	0.180415
1112.635695	0.177231
1112.795169	0.175232
1112.954626	0.176837
1113.114064	0.179413
1113.273484	0.186376
1113.432886	0.190691
1113.592270	0.193660
1113.751635	0.194438
1113.910983	0.197011
1114.070312	0.200533
1114.229622	0.206713
1114.388915	0.207865
1114.548189	0.212860
1114.707445	0.206746
1114.866683	0.206103
1115.025903	0.201938
1115.185104	0.203157
1115.344287	0.205742
1115.503452	0.213387
1115.662599	0.205647
1115.821727	0.198993
1115.980838	0.193312
1116.139930	0.193338
1116.299004	0.193696
1116.458059	0.193380
1116.617097	0.196795
1116.776116	0.189977
1116.935117	0.185288
1117.094099	0.184161
1117.253064	0.186735
1117.412010	0.193130
1117.570938	0.191906
1117.729848	0.187756
1117.888740	0.192283
1118.047613	0.186911
1118.206468	0.187382
1118.365305	0.187785
1118.524124	0.184237
1118.682924	0.187738
1118.841707	0.180900
1119.000471	0.192004
1119.159216	0.202483
1119.317944	0.199967
1119.476653	0.194611
1119.635344	0.202484
1119.794017	0.200087
1119.952672	0.208472
1120.111308	0.206873
1120.269927	0.211446
1120.428527	0.198710
1120.587108	0.196300
1120.745672	0.200508
1120.904217	0.206975
1121.062744	0.203108
1121.221253	0.202651
1121.379744	0.199802
1121.538216	0.203353
1121.696671	0.203528
1121.855107	0.204212
1122.013524	0.202006
1122.171924	0.201067
1122.330305	0.205005
1122.488668	0.200493
1122.647013	0.201271
1122.805340	0.204397
1122.963648	0.199165
1123.121938	0.198100
1123.280210	0.199083
1123.438464	0.194173
1123.596700	0.195881
1123.754917	0.193321
1123.913116	0.197883
1124.071297	0.203352
1124.229459	0.198931
1124.387604	0.197534
1124.545730	0.198433
1124.703838	0.200907
1124.861928	0.206759
1125.019999	0.201788
1125.178052	0.207112
1125.336088	0.208114
1125.494104	0.203889
1125.652103	0.200761
1125.810083	0.202991
1125.968045	0.202752
1126.125989	0.200077
1126.283915	0.200611
1126.441823	0.198293
1126.599712	0.194919
1126.757583	0.193847
1126.915436	0.192894
1127.073270	0.194377
1127.231087	0.204907
1127.388885	0.205304
1127.546665	0.203200
1127.704426	0.198750
1127.862170	0.197326
1128.019895	0.194310
1128.177602	0.188634
1128.335291	0.191684
1128.492961	0.194719
1128.650614	0.185883
1128.808248	0.182317
1128.965864	0.184829
1129.123461	0.188483
1129.281041	0.191510
1129.438602	0.194293
1129.596145	0.195992
1129.753670	0.191603
1129.911176	0.188263
1130.068665	0.193319
1130.226135	0.198404
1130.383587	0.199129
1130.541020	0.203179
1130.698436	0.203283
1130.855833	0.199763
1131.013212	0.205860
1131.170573	0.207383
1131.327915	0.217922
1131.485239	0.205741
1131.642545	0.203914
1131.799833	0.207170
1131.957103	0.197930
1132.114354	0.195124
1132.271588	0.199536
1132.428803	0.195981
1132.585999	0.199244
1132.743178	0.193340
1132.900338	0.206646
1133.057480	0.214464
1133.214604	0.208051
1133.371710	0.212126
1133.528797	0.221585
1133.685866	0.221464
1133.842917	0.226880
1133.999950	0.229020
1134.156964	0.236343
1134.313960	0.232228
1134.470938	0.226896
1134.627898	0.229954
1134.784840	0.228504
1134.941763	0.225738
1135.098668	0.222961
1135.255555	0.218163
1135.412424	0.218077
1135.569274	0.211385
1135.726107	0.207371
1135.882921	0.202474
1136.039716	0.204667
1136.196494	0.216644
1136.353253	0.216545
1136.509995	0.216618
1136.666717	0.218300
1136.823422	0.219852
1136.980109	0.223488
1137.136777	0.229579
1137.293427	0.231824
1137.450059	0.233803
1137.606672	0.220552
1137.763267	0.215647
1137.919844	0.217049
1138.076403	0.222444
1138.232944	0.226451
1138.389466	0.214576
1138.545971	0.212753
1138.702457	0.213169
1138.858924	0.215435
1139.015374	0.220514
1139.171805	0.224093
1139.328218	0.228692
1139.484613	0.226402
1139.640990	0.228624
1139.797348	0.231384
1139.953688	0.236750
1140.110010	0.235258
1140.266314	0.225977
1140.422600	0.215293
1140.578867	0.211864
1140.735116	0.206140
1140.891347	0.204063
1141.047559	0.195054
1141.203754	0.207758
1141.359930	0.202684
1141.516088	0.218964
1141.672228	0.229674
1141.828349	0.240299
1141.984452	0.250472
1142.140537	0.257038
1142.296604	0.259861
1142.452653	0.252128
1142.608683	0.242970
1142.764695	0.238774
1142.920689	0.221948
1143.076665	0.210082
1143.232622	0.209536
1143.388562	0.203302
1143.544483	0.198242
1143.700385	0.203388
1143.856270	0.210068
1144.012136	0.209406
1144.167985	0.213583
1144.323814	0.220909
1144.479626	0.215879
1144.635420	0.210105
1144.791195	0.209174
1144.946952	0.198196
1145.102691	0.190447
1145.258411	0.177368
1145.414113	0.177138
1145.569798	0.179431
1145.725463	0.174097
1145.881111	0.189062
1146.036741	0.191859
1146.192352	0.188897
1146.347945	0.199712
1146.503519	0.202823
1146.659076	0.220331
1146.814614	0.218981
1146.970134	0.218139
1147.125636	0.214822
1147.281120	0.211701
1147.436585	0.207189
1147.592032	0.207603
1147.747461	0.200903
1147.902872	0.193778
1148.058265	0.193362
1148.213639	0.192318
1148.368995	0.192364
1148.524333	0.191627
1148.679653	0.182777
1148.834954	0.184774
1148.990237	0.189392
1149.145502	0.197119
1149.300749	0.204782
1149.455977	0.213556
1149.611188	0.215117
1149.766380	0.214794
1149.921553	0.216240
1150.076709	0.234426
1150.231846	0.243719
1150.386966	0.243158
1150.542066	0.246391
1150.697149	0.253253
1150.852214	0.240089
1151.007260	0.242254
1151.162288	0.248775
1151.317298	0.261883
1151.472289	0.248002
1151.627263	0.244537
1151.782218	0.241548
1151.937155	0.239860
1152.092073	0.231635
1152.246974	0.232018
1152.401856	0.243312
1152.556720	0.237633
1152.711566	0.226327
1152.866393	0.237437
1153.021203	0.247823
1153.175994	0.253140
1153.330767	0.254516
1153.485521	0.250388
1153.640258	0.251176
1153.794976	0.250469
1153.949676	0.241112
1154.104358	0.253480
1154.259021	0.240402
1154.413667	0.232854
1154.568294	0.223660
1154.722903	0.232309
1154.877493	0.244950
1155.032066	0.253623
1155.186620	0.241942
1155.341156	0.250894
1155.495674	0.243311
1155.650173	0.253985
1155.804654	0.251738
1155.959118	0.255886
1156.113562	0.240917
1156.267989	0.221683
1156.422397	0.215527
1156.576788	0.227340
1156.731160	0.224653
1156.885513	0.228985
1157.039849	0.208428
1157.194166	0.215816
1157.348465	0.221266
1157.502746	0.222996
1157.657009	0.243219
1157.811253	0.258225
1157.965479	0.242514
1158.119687	0.238271
1158.273877	0.223765
1158.428048	0.246415
1158.582201	0.245416
1158.736337	0.252647
1158.890453	0.248456
1159.044552	0.229512
1159.198632	0.215082
1159.352694	0.221160
1159.506738	0.216881
1159.660764	0.228219
1159.814771	0.231236
1159.968761	0.234318
1160.122732	0.226369
1160.276685	0.235015
1160.430619	0.241975
1160.584535	0.247289
1160.738434	0.257955
1160.892313	0.276913
1161.046175	0.268805
1161.200019	0.257899
1161.353844	0.244271
1161.507651	0.237214
1161.661440	0.238995
1161.815210	0.242134
1161.968962	0.234068
1162.122697	0.220286
1162.276412	0.220861
1162.430110	0.227489
1162.583789	0.227793
1162.737451	0.225096
1162.891094	0.230686
1163.044718	0.223101
1163.198325	0.212023
1163.351913	0.222427
1163.505483	0.228103
1163.659035	0.218664
1163.812569	0.210245
1163.966084	0.210100
1164.119581	0.218181
1164.273060	0.215187
1164.426521	0.220903
1164.579964	0.246340
1164.733388	0.239394
1164.886794	0.242032
1165.040182	0.239454
1165.193551	0.243880
1165.346903	0.252375
1165.500236	0.238147
1165.653551	0.234925
1165.806848	0.237105
1165.960126	0.235225
1166.113386	0.227049
1166.266628	0.232488
1166.419852	0.235797
1166.573058	0.236095
1166.726245	0.225038
1166.879414	0.248561
1167.032565	0.253951
1167.185698	0.247302
1167.338812	0.227176
1167.491909	0.222517
1167.644987	0.216376
1167.798046	0.213320
1167.951088	0.213111
1168.104111	0.201834
1168.257117	0.187084
1168.410103	0.192404
1168.563072	0.200824
1168.716023	0.211247
1168.868955	0.230556
1169.021869	0.222065
1169.174765	0.223675
1169.327642	0.220480
1169.480501	0.236149
1169.633343	0.266884
1169.786165	0.260673
1169.938970	0.241839
1170.091757	0.214822
1170.244525	0.219271
1170.397275	0.214539
1170.550007	0.214141
1170.702720	0.208163
1170.855415	0.220286
1171.008092	0.178711
1171.160751	0.162281
1171.313392	0.156640
1171.466014	0.388545
1171.618619	0.088886
1171.771205	0.088886
1171.923772	0.088886
