sample name	sample
index	1253
start time	 04-29-2021  12:52:54 PM
880	0.274190
Peak Time (s)	100.037
Peak Height 	0.2742
calc peak height	100,103
Baseline Time (s)	10.535
Baseline Value 	-0.003059
subtract baseline	10,4
Abs	0.171926
Peak Time (s)	100.537
Peak Height 	0.1719
calc peak height	100,103
Baseline Time (s)	10.034
Baseline Value 	0.002656
subtract baseline	10,3
PK_550	0.098431
Peak Time (s)	102.535
Peak Height 	0.09843
calc peak height	100,103
Baseline Time (s)	11.535
Baseline Value 	2.1369E-4
subtract baseline	10,2
PK_880	0.161687
Peak Time (s)	101.037
Peak Height 	0.1617
calc peak height	100,103
Baseline Time (s)	8.537
Baseline Value 	-1.5846E-4
subtract baseline	10,1


Time (s)	A880-A510	A880-A775	A880-A975	A880	I510	I775	I975	I880	
0.039000	0.000887	-0.000199	0.003488	0.000157	6206.750318	43968.607025	3918.112201	22760.856636
0.537000	-0.001696	-0.000528	-0.002487	0.002108	6172.865014	43753.929427	3900.007137	22671.986372
1.037500	0.000433	-0.000293	-0.002987	0.003948	6175.014331	43603.522200	3894.724800	22588.562656
1.538500	0.000319	0.000480	0.002706	0.000213	6202.063235	44027.381043	3916.182503	22758.290101
2.035000	0.001148	0.000678	0.000992	-0.000181	6211.255233	44083.445448	3913.148955	22776.274884
2.535500	-0.000652	-0.000276	-0.003473	-0.000273	6198.428848	44001.852533	3903.168567	22780.470259
3.035500	-0.000023	0.000019	-0.002510	0.002741	6180.602278	43745.855187	3898.521692	22643.249927
3.535500	0.003333	0.001823	0.002388	0.001546	6214.701818	44028.394210	3912.391240	22697.547594
4.036500	0.001669	0.000293	-0.002021	0.000605	6209.259428	43972.703142	3904.472045	22740.397268
4.539500	0.002081	0.000462	-0.000364	0.000827	6210.689703	43967.711303	3907.742110	22730.293849
5.037000	-0.000519	-0.000026	-0.007226	0.004505	6163.805183	43576.299861	3883.984216	22563.350695
5.537500	-0.000003	0.000357	0.004511	0.000583	6196.871938	43980.792214	3919.488563	22741.394262
6.035000	-0.000335	0.000194	0.000330	0.000429	6195.547594	43980.020803	3910.236816	22748.437311
6.535000	0.002468	0.000347	0.005436	0.000912	6212.964716	43948.888676	3920.866869	22726.417538
7.035500	0.001971	0.000865	-0.002563	0.000925	6209.130274	43996.576275	3902.515666	22725.842729
7.535500	0.002968	0.000199	0.002386	0.000405	6220.551284	43982.727378	3915.004272	22749.511881
8.036000	-0.001026	-0.000117	0.000446	-0.000305	6195.865043	44019.962380	3912.182144	22781.951493
8.536500	0.000000	-0.000129	-0.000263	0.000098	6200.538638	43980.760097	3909.638758	22763.561641
9.039000	-0.000231	0.000328	0.001991	0.001036	6191.780446	43935.369353	3912.651047	22720.761779
9.537000	0.001819	0.001161	-0.000489	0.001111	6206.586134	44006.943708	3906.810243	22717.354426
10.034500	-0.000652	-0.000438	0.000000	-0.000219	6198.025230	43981.515833	3910.963271	22778.003349
10.535000	-0.000487	0.000194	0.000733	0.000000	6197.621909	44020.541932	3912.141502	22768.018955
11.035000	0.000706	-0.000259	0.002572	-0.000567	6210.833284	44031.253129	3917.670203	22793.911819
11.535000	0.002801	0.000000	-0.002281	-0.000613	6226.980263	44060.188414	3906.654871	22796.047003
12.035500	-0.000168	0.000512	-0.000955	-0.000143	6201.087764	44064.169503	3908.607412	22774.568683
12.535500	0.004724	0.000979	0.005563	0.000119	6235.997305	44083.526307	3922.996953	22762.598246
13.036000	0.004034	0.000725	0.000624	-0.000752	6237.361473	44141.998529	3913.615896	22802.375063
13.539500	-0.000318	0.000427	-0.001437	-0.001068	6206.896863	44143.672180	3909.619530	22816.833766
14.036500	-0.000944	0.001274	-0.001686	0.002032	6179.027730	43930.736312	3901.995293	22675.468926
14.537000	0.000597	-0.000063	0.001799	0.001065	6197.762476	43895.765315	3912.143602	22719.459227
15.042500	0.001835	0.000068	0.001635	-0.001679	6227.731074	44167.576936	3918.072541	22844.836998
15.535000	0.003367	0.001300	0.005357	-0.000567	6230.910952	44178.951310	3924.109513	22793.931493
16.040500	0.001536	-0.000053	0.000658	-0.001627	6225.081842	44151.192504	3915.704735	22842.469172
16.535500	0.001244	0.000528	0.002998	-0.001195	6219.614105	44165.350540	3920.101115	22822.665648
17.035500	-0.002216	-0.000801	0.003215	0.001942	6170.227541	43743.852676	3913.378329	22679.524699
17.536000	-0.000420	-0.000686	-0.004009	-0.000565	6202.361662	43990.772925	3902.616641	22793.852291
18.036000	0.001175	0.001000	-0.004225	0.000354	6207.429487	44063.244100	3900.042305	22751.839189
18.536500	0.002917	0.000282	0.003747	-0.000241	6225.046218	44051.672758	3919.629062	22779.025547
19.037000	0.001008	0.001460	0.000628	0.001420	6198.183979	44005.989062	3908.653476	22703.288963
19.537000	0.000408	0.000365	0.004629	-0.000063	6204.806688	44042.690601	3921.255677	22770.911839
20.037000	-0.000926	-0.000385	-0.001929	-0.000679	6199.418944	44029.993025	3907.608376	22799.066708
20.535000	0.002253	0.000830	0.000370	0.000443	6214.874995	44038.773087	3910.296169	22747.795690
21.034500	0.002932	0.000453	0.001923	0.000037	6223.058319	44041.528587	3914.786690	22766.339646
21.535500	0.001969	0.001024	0.002620	0.000592	6211.610578	44042.982126	3915.112616	22740.996655
22.035500	-0.000504	0.000343	0.000249	-0.000298	6199.729822	44062.843499	3911.716253	22781.644009
22.536000	0.002857	0.001562	-0.001320	0.000730	6217.263696	44080.827917	3905.783854	22734.701894
23.036000	0.001956	0.000828	-0.000807	0.000513	6212.111876	44031.902609	3907.447221	22744.596767
23.536500	-0.000925	0.000064	0.002013	0.000007	6194.287728	44007.651873	3915.062954	22767.718483
24.039500	0.002057	0.000616	-0.000632	0.000596	6212.247107	44004.098521	3907.655938	22740.808562
24.537000	0.000245	0.000367	-0.002943	-0.000338	6205.645002	44068.809155	3904.521328	22783.451676
25.034500	0.002025	0.000497	-0.001193	0.000478	6212.893320	44004.023759	3906.647056	22746.202678
25.535000	0.002115	0.000750	0.000163	0.000784	6211.267535	43998.947801	3909.042284	22732.243195
26.035000	0.001964	0.000873	0.002771	0.000554	6211.859844	44032.320331	3915.548382	22742.736162
26.535500	0.000715	0.000486	-0.001069	0.000380	6203.784279	44012.254683	3907.153520	22750.678285
27.041500	0.005017	0.001144	0.001840	-0.000976	6246.533658	44203.016869	3916.925192	22812.633823
27.542500	0.002692	0.000311	0.005086	-0.001986	6236.545887	44219.713223	3926.774015	22858.899543
28.036500	-0.000212	-0.000183	0.007601	-0.001498	6210.926123	44126.571673	3931.496475	22836.518234
28.537000	0.000781	0.000432	-0.000365	-0.000915	6214.019833	44129.687985	3911.722777	22809.859576
29.037000	-0.002006	0.000750	-0.004931	0.005216	6147.551927	43582.483194	3887.520183	22531.273496
29.534500	0.000415	0.000133	0.002060	-0.001338	6214.446920	44141.369759	3918.267659	22829.199733
30.039500	0.002198	0.000212	0.002336	-0.000774	6223.636398	44095.412648	3917.602588	22803.385140
30.540000	0.002318	-0.000054	0.002105	0.001504	6207.386106	43855.230857	3911.838712	22699.465564
31.035000	0.000652	0.000251	0.000096	0.002355	6188.521020	43803.918055	3905.309839	22660.779384
31.536000	0.003822	-0.000078	-0.000798	-0.001696	6242.928570	44155.420696	3912.519792	22845.635970
32.044000	0.001268	0.000980	0.004578	-0.000503	6214.584176	44142.531022	3922.155165	22791.011626
32.536000	0.003525	0.000646	0.001899	-0.000647	6232.715250	44124.583866	3916.305117	22797.589056
33.036000	-0.001450	0.000973	-0.000702	0.004163	6159.438563	43701.878174	3899.396462	22578.830159
33.536500	0.002163	-0.000102	0.002765	-0.003022	6240.396090	44278.945723	3923.789750	22906.488299
34.034000	0.000294	0.001193	0.000728	0.001260	6194.029124	43995.798181	3909.246112	22710.548501
34.534500	-0.000670	0.000168	-0.002387	0.000540	6192.210843	43967.074201	3903.789691	22743.396490
35.034500	0.001133	-0.000267	-0.003099	0.001208	6200.711864	43863.127739	3900.659591	22712.953057
35.535000	0.001669	0.000450	0.004321	0.000692	6208.603925	43979.306320	3918.799823	22736.444343
36.035000	-0.000192	0.000318	-0.000561	0.000742	6194.265988	43962.152529	3907.485005	22734.145736
36.536500	0.000330	0.000594	0.003237	0.001045	6195.912969	43959.616042	3915.491508	22720.380447
37.036000	0.001166	0.000549	0.000111	0.001007	6202.459194	43958.918845	3908.415220	22722.083013
37.536500	-0.000307	0.000168	-0.000262	0.000927	6192.029119	43930.506513	3907.746999	22725.733144
38.036500	0.001198	0.001017	0.001151	0.001046	6202.414430	43999.455061	3910.703240	22720.313427
38.537000	0.002576	0.001465	0.001337	0.001844	6206.767858	43966.455905	3909.304793	22684.014802
39.037000	0.000976	0.000112	0.000460	0.000520	6204.691814	43963.688594	3910.325019	22744.288948
39.535000	0.000251	0.000938	-0.001705	0.001154	6194.500728	43981.754403	3903.942584	22715.376172
40.034500	0.002193	0.001080	0.000472	0.001770	6204.448032	43937.051903	3907.497330	22687.362537
40.535500	0.001843	0.001358	0.000551	0.002050	6199.713912	43936.862790	3907.038497	22674.622035
41.035500	0.001764	0.001320	-0.000812	0.001790	6201.073435	43957.824049	3904.526578	22686.431753
41.538500	-0.000146	0.000792	0.004180	0.001177	6191.361660	43965.838890	3917.356379	22714.342632
42.036000	0.001617	0.000909	0.000695	0.000976	6206.079005	43995.857068	3909.819003	22723.481006
42.536500	0.001936	0.001276	0.003126	0.001511	6204.459100	43979.921962	3914.164740	22699.124062
43.036500	0.000938	0.001473	0.005848	0.001175	6199.489993	44030.284696	3921.210525	22714.421987
43.537000	0.001979	0.000936	0.005282	0.001041	6208.307425	43992.242210	3920.210956	22720.521614
44.034000	0.002754	0.000438	0.001027	-0.001938	6236.650633	44227.315579	3917.269071	22856.712019
44.535000	0.004996	0.001214	0.004692	-0.000271	6241.013251	44142.705248	3921.881535	22780.389674
45.035000	-0.001827	0.000043	-0.003241	0.002405	6169.677773	43779.649558	3897.629193	22658.485948
45.535500	0.001461	0.000803	0.007073	-0.001125	6220.725400	44184.829385	3929.397342	22819.472865
46.038500	0.002803	0.000351	0.003881	-0.001961	6237.200500	44221.184907	3923.919129	22857.771878
46.536000	0.002063	0.000448	0.002694	-0.000755	6222.472582	44116.018112	3918.385091	22802.512923
47.036500	0.002323	0.001098	-0.006096	0.004046	6188.371411	43724.602037	3887.530098	22584.114240
47.536500	0.000640	0.000708	-0.001102	0.000945	6198.984643	43979.801423	3905.791222	22724.902980
48.034500	0.001308	0.000835	0.008719	-0.000441	6214.416731	44122.988584	3931.641932	22788.179837
48.537000	0.001986	-0.000482	0.002160	-0.000944	6223.318751	44045.809569	3917.588386	22811.163663
49.037500	0.001230	0.000965	-0.001609	0.002958	6188.337665	43814.359573	3900.070329	22633.411817
49.535000	0.006108	0.000813	0.001513	-0.002978	6270.138249	44362.012555	3920.790991	22904.489202
50.035500	0.003055	0.001319	-0.000106	-0.000920	6231.218965	44214.309833	3912.327376	22810.069870
50.538500	-0.000100	-0.000111	0.008024	0.006957	6148.764015	43339.834551	3912.905071	22452.849329
51.035500	0.016482	-0.010893	0.006673	0.039847	6030.650838	39477.843580	3837.397128	21029.458595
51.536500	0.029825	-0.019119	0.005610	0.265955	4835.075442	24254.430890	3462.478660	13686.424769
52.036500	-0.002179	-0.023068	-0.010028	-0.077440	6817.630786	49474.580766	4077.294626	26639.054703
52.537000	-0.007683	-0.041308	-0.000991	-0.167078	7645.702460	57783.953338	4373.295637	32072.637838
53.037000	0.005226	-0.043614	0.004825	-0.198962	8156.542325	61647.160998	4505.373002	34292.197269
53.534500	0.017450	-0.017799	0.018067	-0.140473	7629.788047	57394.629295	4348.205191	30341.347091
54.035000	0.028736	-0.013335	0.029221	-0.109867	7425.907231	54215.363157	4285.516825	28476.577534
54.535000	0.028989	-0.004526	0.034730	-0.026964	6649.178104	46177.736213	4062.116711	24038.298570
55.038000	0.032497	0.005491	0.032867	0.006218	6404.466194	43933.626781	3973.337882	22486.124880
55.536000	0.043019	0.014585	0.048396	-0.007089	6599.648898	46101.960803	4045.864262	23094.405079
56.035500	0.051291	0.020866	0.047762	-0.003195	6636.684436	46339.564140	4034.153425	22914.466761
56.536000	0.063840	0.028603	0.064768	0.017062	6571.721660	45107.195295	4025.819412	22004.004942
57.036500	0.074850	0.033231	0.070113	0.035277	6512.036991	43809.397873	3993.442687	21220.861540
57.537000	0.083860	0.041585	0.081560	0.064764	6347.697661	41869.776420	3949.640770	20020.636853
58.033500	0.094573	0.049854	0.093107	0.070166	6389.571719	42127.364452	3964.356081	19809.435585
58.537500	0.104016	0.056751	0.105008	0.087945	6324.068069	41158.428060	3950.274065	19132.651120
59.035000	0.107822	0.060397	0.111271	0.111571	6173.272337	39441.408132	3909.777070	18275.134755
59.535000	0.114781	0.064080	0.112314	0.131048	6081.518618	38138.926455	3868.516749	17602.442694
60.035500	0.120572	0.067542	0.116828	0.147991	6001.967700	37063.980756	3841.667744	17041.287922
60.536000	0.125397	0.070869	0.125491	0.165528	5913.756518	35966.568295	3822.966498	16483.111643
61.036500	0.131207	0.071650	0.134124	0.191112	5781.564105	34134.963309	3788.280786	15708.134741
61.536500	0.135945	0.073334	0.135615	0.194115	5792.927061	34040.450417	3785.253625	15620.138077
62.036500	0.132587	0.070317	0.138667	0.225145	5576.035914	31697.817065	3731.078225	14745.542349
62.537000	0.137907	0.071217	0.145080	0.243810	5496.381386	30546.413408	3708.430034	14248.771127
63.037500	0.143678	0.073399	0.145730	0.282045	5312.531251	28349.674873	3642.812400	13295.452561
63.534500	0.144926	0.072171	0.157356	0.293179	5259.221508	27637.487243	3643.634806	13033.264004
64.035500	0.146092	0.069910	0.157210	0.312331	5165.290705	26450.749872	3612.049294	12597.676721
64.535500	0.139736	0.073492	0.160021	0.325298	5068.618028	25948.822225	3595.982185	12313.480633
65.041500	0.144491	0.075969	0.146681	0.333190	5053.323395	25664.109578	3563.582393	12144.627361
65.535500	0.141172	0.080042	0.146169	0.336062	5023.469870	25726.979164	3558.563461	12083.943724
66.036000	0.145299	0.082187	0.144118	0.336359	5041.885783	25823.962606	3555.103303	12077.683104
66.536000	0.145118	0.085133	0.153797	0.335298	5046.143853	26035.820726	3571.081297	12100.041584
67.036500	0.145516	0.085981	0.150257	0.336666	5041.455683	26008.249550	3563.731757	12071.235109
67.537500	0.145683	0.085671	0.152500	0.332289	5063.517149	26224.988363	3573.666461	12163.761378
68.035000	0.148958	0.086582	0.154134	0.328935	5096.115463	26454.441616	3581.251399	12235.284357
68.535000	0.145454	0.086109	0.156751	0.322122	5112.582114	26799.798461	3595.835679	12382.316242
69.038000	0.146764	0.087567	0.151652	0.315474	5152.687992	27248.745150	3598.261116	12528.018439
69.535500	0.143894	0.087499	0.154265	0.307217	5180.257167	27710.830958	3615.529505	12712.112362
70.035500	0.146304	0.088518	0.154708	0.302578	5216.852179	28035.270289	3623.752316	12817.085932
70.536000	0.149046	0.088546	0.151631	0.299999	5244.872849	28186.168461	3622.942391	12875.940997
71.035500	0.146435	0.088779	0.154384	0.298264	5240.236063	28300.664364	3630.277127	12915.724972
71.539000	0.149085	0.090032	0.153231	0.294661	5273.542103	28585.529082	3634.312120	12998.867348
72.037000	0.148465	0.089320	0.154060	0.292019	5284.406231	28699.562365	3640.069076	13060.254028
72.537500	0.147038	0.089793	0.158644	0.292450	5274.417720	28702.054907	3647.016364	13050.210856
73.037500	0.145731	0.090515	0.151598	0.290340	5278.733350	28870.453675	3638.766355	13099.480341
73.538000	0.148726	0.090355	0.155655	0.287398	5310.867669	29036.834478	3650.492375	13168.543927
74.034500	0.151229	0.091484	0.155086	0.287291	5325.135891	29111.166293	3649.713848	13171.075030
74.535500	0.147587	0.091116	0.154543	0.286702	5308.458266	29124.437836	3649.791913	13184.964491
75.036000	0.150159	0.091302	0.148552	0.284910	5332.330947	29243.783359	3642.739449	13227.323127
75.536000	0.147598	0.091814	0.153096	0.283782	5324.464134	29343.181851	3652.281058	13254.089110
76.036500	0.145729	0.092849	0.151045	0.284149	5312.240236	29383.818191	3648.197677	13245.382874
76.537000	0.148338	0.093235	0.153621	0.285441	5319.434996	29328.801853	3650.364425	13214.767502
77.037000	0.149662	0.093076	0.158387	0.284049	5334.335646	29403.717101	3660.837008	13247.749348
77.534500	0.154334	0.093197	0.154149	0.284238	5359.142790	29399.616479	3653.292643	13243.278767
78.034500	0.152360	0.093874	0.155203	0.285975	5338.591344	29335.121638	3652.134999	13202.120706
78.535000	0.151547	0.095826	0.154712	0.289355	5315.583706	29248.582826	3645.610860	13122.542164
79.035500	0.153396	0.094605	0.161648	0.288478	5330.515236	29227.789366	3658.838471	13143.128774
79.536000	0.154455	0.094547	0.164670	0.288674	5335.262993	29212.421507	3663.682426	13138.525627
80.036500	0.156372	0.094109	0.152508	0.289257	5342.621443	29150.834437	3642.085342	13124.842038
80.536000	0.154359	0.095943	0.154120	0.291063	5321.619146	29152.536872	3641.762722	13082.571174
81.036500	0.156355	0.094123	0.163139	0.290219	5337.221396	29093.714367	3658.412551	13102.300819
81.536500	0.154423	0.093228	0.158839	0.289593	5330.036617	29077.584930	3652.166931	13116.971954
82.037000	0.152535	0.094485	0.162104	0.291027	5311.852972	29066.977316	3655.272381	13083.418967
82.536500	0.158842	0.095663	0.160464	0.291765	5342.410025	29093.351797	3651.240468	13066.178166
83.038000	0.154283	0.094239	0.158076	0.290466	5324.469272	29085.833707	3649.401453	13096.515473
83.535000	0.156246	0.095341	0.162641	0.289639	5339.813709	29202.130118	3658.551621	13115.883004
84.035500	0.155317	0.096117	0.159991	0.289099	5337.671754	29281.753297	3654.958780	13128.564154
84.536000	0.154925	0.095052	0.161019	0.288208	5340.422767	29271.198986	3658.226298	13149.493656
85.036500	0.156687	0.095670	0.164575	0.287870	5352.038003	29329.099676	3664.901901	13157.428774
85.536500	0.157084	0.095428	0.166980	0.286426	5362.270542	29402.168072	3671.561651	13191.468493
86.037000	0.156272	0.095913	0.161390	0.285816	5361.144919	29468.893173	3662.957468	13205.878948
86.537000	0.154806	0.095633	0.159996	0.285305	5355.834647	29483.054469	3661.442123	13217.984747
87.034500	0.153816	0.095690	0.155459	0.284833	5352.958877	29515.368019	3654.507005	13229.162918
87.540500	0.154795	0.095942	0.158273	0.284105	5362.443966	29575.295061	3660.546095	13246.416596
88.035000	0.157479	0.097042	0.163737	0.284543	5374.984572	29615.877365	3669.200989	13236.023620
88.535500	0.158484	0.096053	0.162554	0.283158	5388.404155	29640.203962	3669.553286	13268.941814
89.038500	0.156342	0.097371	0.158965	0.283913	5372.150602	29674.801366	3662.061285	13250.982594
89.535500	0.156514	0.097313	0.156814	0.282120	5383.164833	29781.686326	3661.446857	13293.655426
90.036000	0.156406	0.096654	0.154795	0.281109	5388.240514	29803.425075	3659.721813	13317.793956
90.539000	0.156077	0.096764	0.165626	0.283133	5375.033091	29685.394094	3674.937959	13269.519302
91.036000	0.158072	0.098345	0.162456	0.281942	5392.938615	29856.492021	3671.492761	13297.912223
91.537000	0.154977	0.096415	0.164090	0.278741	5393.531764	29935.278457	3679.938938	13374.552613
92.040000	0.156277	0.097206	0.173773	0.279142	5398.610755	29959.550616	3696.423326	13364.928945
92.537000	0.159499	0.096542	0.158508	0.279592	5414.325509	29890.353775	3668.721189	13354.117938
93.037500	0.160582	0.098116	0.167331	0.279739	5419.653123	29978.961254	3683.889705	13350.583915
93.535000	0.161101	0.097583	0.161212	0.277727	5434.130788	30071.127303	3676.672470	13398.959400
94.036000	0.156475	0.097857	0.164976	0.277777	5407.461687	30085.120177	3683.196902	13397.755725
94.536500	0.158246	0.097550	0.167981	0.278557	5413.089309	30017.325476	3687.133106	13378.986496
95.036000	0.160173	0.098642	0.165125	0.277738	5428.751295	30136.587685	3683.528543	13398.683621
95.536500	0.161904	0.099004	0.162964	0.277670	5439.062987	30163.505683	3679.844417	13400.333273
96.037000	0.159966	0.097696	0.162668	0.276267	5435.987656	30169.438837	3681.789298	13434.174520
96.537000	0.159008	0.098868	0.166774	0.278772	5416.195026	30086.066766	3684.613303	13373.796504
97.037000	0.160970	0.097502	0.164861	0.275835	5444.248206	30184.337961	3686.426549	13444.627391
97.535000	0.161706	0.097329	0.167072	0.275239	5451.926082	30210.836186	3691.416185	13459.051953
98.035000	0.157998	0.098683	0.169010	0.275651	5428.247476	30270.036807	3694.144481	13449.092557
98.535500	0.160279	0.096540	0.161941	0.274914	5445.567955	30181.743338	3682.894198	13466.938037
99.036000	0.159495	0.097645	0.167676	0.274781	5441.823289	30259.433203	3693.313658	13470.169481
99.536000	0.160411	0.097999	0.164997	0.275238	5444.465653	30252.972628	3687.726878	13459.081732
100.036500	0.160545	0.097416	0.169174	0.274190	5451.277991	30282.158055	3697.055192	13484.494387
100.536500	0.160006	0.098176	0.171926	0.274144	5448.434535	30332.939114	3702.099068	13485.616546
101.037000	0.161687	0.097700	0.166956	0.273855	5459.821553	30321.156559	3693.680759	13492.641487
101.537500	0.160427	0.097294	0.166759	0.273110	5456.841235	30342.538726	3694.662512	13510.776165
102.035000	0.161671	0.098129	0.170278	0.273830	5459.874666	30349.778987	3699.690086	13493.249595
102.534500	0.159331	0.098431	0.168254	0.273762	5446.744025	30373.133928	3696.173055	13494.909596
103.035500	0.160814	0.098197	0.165517	0.272760	5461.103208	30421.586840	3693.065350	13519.284648
103.535500	0.161424	0.097860	0.164109	0.272541	5465.919890	30414.165687	3690.944803	13524.633496
104.036500	0.160544	0.097484	0.174575	0.271947	5464.258431	30427.924898	3710.909264	13539.119907
104.536000	0.158112	0.097856	0.168023	0.273713	5440.012321	30339.947032	3695.846527	13496.093055
105.036500	0.161721	0.099694	0.169053	0.273076	5464.537935	30496.316527	3698.841465	13511.595890
105.556500	0.161918	0.097091	0.174067	0.270731	5479.334383	30479.982505	3712.203791	13568.845250
106.037000	0.161100	0.098399	0.165573	0.270885	5473.667925	30553.209251	3696.526781	13565.092453
106.534500	0.159425	0.098930	0.165397	0.271438	5460.719946	30551.770435	3695.216848	13551.547595
107.035000	0.161288	0.098503	0.164375	0.270483	5477.105173	30585.360770	3695.097986	13574.930801
107.535500	0.156109	0.097021	0.168934	0.269469	5452.924034	30555.588340	3705.147041	13599.786336
108.036000	0.160646	0.097673	0.169114	0.269748	5477.648270	30579.266116	3704.967845	13592.938450
