sample name	sample
index	1491
start time	 05-18-2021  01:04:50 PM


Wavelength (nm)	Absorbance
494.344910	-0.298520
494.563924	-0.298520
494.782919	-0.298520
495.001897	-0.046941
495.220856	-0.125895
495.439797	-0.082650
495.658719	-0.016757
495.877624	0.051323
496.096510	0.051329
496.315378	0.106834
496.534227	0.187229
496.753059	0.136510
496.971872	0.134267
497.190667	0.079961
497.409444	0.068121
497.628203	0.063834
497.846943	0.063930
498.065665	0.064026
498.284369	0.065707
498.503055	0.065732
498.721723	0.065608
498.940372	0.065019
499.159003	0.064576
499.377616	0.065314
499.596210	0.065704
499.814787	0.066103
500.033345	0.066585
500.251885	0.064754
500.470406	0.064450
500.688910	0.063899
500.907395	0.064278
501.125862	0.064190
501.344311	0.063208
501.562742	0.063323
501.781154	0.062615
501.999548	0.062188
502.217924	0.061991
502.436282	0.061866
502.654621	0.062577
502.872942	0.063473
503.091245	0.064026
503.309530	0.065255
503.527797	0.064396
503.746045	0.064270
503.964275	0.064694
504.182487	0.065287
504.400681	0.065627
504.618856	0.065825
504.837013	0.065358
505.055152	0.065601
505.273273	0.065007
505.491376	0.065557
505.709460	0.067241
505.927526	0.066183
506.145574	0.067102
506.363604	0.067144
506.581615	0.067311
506.799608	0.067052
507.017583	0.066172
507.235540	0.067290
507.453478	0.067797
507.671399	0.066984
507.889301	0.068572
508.107185	0.068103
508.325050	0.068367
508.542898	0.068389
508.760727	0.068546
508.978538	0.068411
509.196330	0.067983
509.414105	0.068919
509.631861	0.069634
509.849599	0.069363
510.067319	0.070126
510.285021	0.069907
510.502704	0.070174
510.720369	0.071361
510.938016	0.072534
511.155645	0.072004
511.373255	0.071312
511.590848	0.071182
511.808422	0.071767
512.025977	0.071245
512.243515	0.072000
512.461034	0.072186
512.678536	0.071749
512.896018	0.071980
513.113483	0.072451
513.330930	0.072166
513.548358	0.072344
513.765768	0.072000
513.983160	0.072497
514.200533	0.072740
514.417889	0.073167
514.635226	0.073127
514.852545	0.072883
515.069845	0.073332
515.287128	0.073824
515.504392	0.074473
515.721638	0.074463
515.938866	0.074332
516.156075	0.074288
516.373267	0.074625
516.590440	0.075099
516.807594	0.075302
517.024731	0.075679
517.241850	0.076226
517.458950	0.076084
517.676032	0.076103
517.893095	0.076528
518.110141	0.076827
518.327168	0.076842
518.544177	0.076083
518.761168	0.076603
518.978141	0.075769
519.195095	0.076140
519.412031	0.075666
519.628949	0.076390
519.845849	0.076516
520.062731	0.075610
520.279594	0.075838
520.496439	0.076547
520.713266	0.076359
520.930074	0.077570
521.146865	0.077710
521.363637	0.077541
521.580391	0.077608
521.797127	0.077497
522.013844	0.078769
522.230543	0.078846
522.447224	0.079622
522.663887	0.080255
522.880532	0.079747
523.097158	0.079143
523.313766	0.079820
523.530356	0.080251
523.746928	0.080377
523.963481	0.080387
524.180017	0.081002
524.396534	0.080514
524.613032	0.080302
524.829513	0.080380
525.045975	0.080701
525.262420	0.080785
525.478845	0.080492
525.695253	0.080895
525.911643	0.080660
526.128014	0.080553
526.344367	0.080791
526.560702	0.081371
526.777018	0.081656
526.993316	0.082083
527.209597	0.081907
527.425858	0.082363
527.642102	0.082635
527.858328	0.083076
528.074535	0.082718
528.290724	0.082703
528.506894	0.082790
528.723047	0.083118
528.939181	0.083385
529.155297	0.083789
529.371395	0.083966
529.587475	0.084382
529.803536	0.084402
530.019579	0.084215
530.235604	0.084829
530.451611	0.085033
530.667600	0.085473
530.883570	0.084996
531.099522	0.085988
531.315456	0.086294
531.531372	0.086133
531.747269	0.086025
531.963148	0.086624
532.179009	0.086876
532.394852	0.087142
532.610676	0.087522
532.826482	0.088112
533.042271	0.088401
533.258040	0.088981
533.473792	0.089879
533.689525	0.090474
533.905240	0.091027
534.120937	0.091231
534.336616	0.091419
534.552277	0.091104
534.767919	0.091547
534.983543	0.091418
535.199149	0.091467
535.414736	0.091471
535.630306	0.092371
535.845857	0.092453
536.061390	0.092371
536.276904	0.092391
536.492401	0.092831
536.707879	0.093415
536.923339	0.093535
537.138781	0.093681
537.354204	0.093493
537.569610	0.093088
537.784997	0.093448
538.000366	0.093867
538.215716	0.093784
538.431049	0.093864
538.646363	0.093520
538.861659	0.093735
539.076937	0.093689
539.292196	0.093631
539.507438	0.093810
539.722661	0.093996
539.937866	0.094241
540.153052	0.095077
540.368221	0.095579
540.583371	0.096240
540.798503	0.096746
541.013617	0.097001
541.228712	0.097914
541.443789	0.098386
541.658848	0.098475
541.873889	0.098587
542.088912	0.098973
542.303916	0.098769
542.518902	0.098600
542.733870	0.098395
542.948820	0.098866
543.163752	0.098723
543.378665	0.099011
543.593560	0.099586
543.808437	0.099782
544.023295	0.099419
544.238136	0.099924
544.452958	0.100432
544.667762	0.100610
544.882548	0.100364
545.097315	0.100815
545.312064	0.100950
545.526795	0.100878
545.741508	0.101154
545.956203	0.101447
546.170879	0.101532
546.385537	0.101322
546.600177	0.101894
546.814799	0.102388
547.029402	0.102369
547.243988	0.102414
547.458555	0.102774
547.673103	0.103156
547.887634	0.103453
548.102146	0.104046
548.316640	0.104559
548.531116	0.104259
548.745574	0.104279
548.960013	0.104680
549.174435	0.104828
549.388838	0.104775
549.603222	0.105187
549.817589	0.105440
550.031937	0.105835
550.246267	0.105990
550.460579	0.106800
550.674873	0.107515
550.889148	0.107134
551.103405	0.107437
551.317644	0.107603
551.531865	0.107107
551.746068	0.107347
551.960252	0.107342
552.174418	0.107612
552.388566	0.107167
552.602696	0.106900
552.816807	0.107582
553.030900	0.107705
553.244975	0.108205
553.459032	0.108618
553.673070	0.108865
553.887091	0.108554
554.101093	0.108827
554.315077	0.109421
554.529042	0.109780
554.742990	0.109590
554.956919	0.109848
555.170830	0.109983
555.384722	0.110096
555.598597	0.109910
555.812453	0.110157
556.026291	0.110250
556.240111	0.110285
556.453913	0.109930
556.667696	0.110585
556.881461	0.110530
557.095208	0.110254
557.308937	0.110668
557.522647	0.110897
557.736339	0.111317
557.950013	0.111224
558.163669	0.111754
558.377307	0.112245
558.590926	0.112293
558.804527	0.112563
559.018110	0.113356
559.231675	0.113397
559.445221	0.114222
559.658749	0.114407
559.872259	0.114680
560.085751	0.114390
560.299225	0.114636
560.512680	0.114674
560.726117	0.115229
560.939536	0.115132
561.152937	0.115384
561.366319	0.114937
561.579683	0.115105
561.793029	0.115478
562.006357	0.115729
562.219667	0.115954
562.432958	0.116059
562.646231	0.115771
562.859486	0.116128
563.072723	0.116208
563.285941	0.116493
563.499141	0.116501
563.712323	0.116857
563.925487	0.117011
564.138632	0.117124
564.351760	0.117575
564.564869	0.118040
564.777960	0.118223
564.991032	0.118602
565.204087	0.118696
565.417123	0.119316
565.630141	0.119578
565.843140	0.119884
566.056122	0.120270
566.269085	0.120474
566.482030	0.121107
566.694957	0.121321
566.907866	0.121443
567.120756	0.121619
567.333628	0.121592
567.546482	0.121190
567.759318	0.121392
567.972135	0.121742
568.184935	0.121658
568.397716	0.121658
568.610478	0.121545
568.823223	0.121953
569.035949	0.122391
569.248657	0.122638
569.461347	0.122904
569.674019	0.122877
569.886672	0.122612
570.099308	0.123036
570.311925	0.122811
570.524523	0.122890
570.737104	0.122816
570.949666	0.123100
571.162210	0.123144
571.374736	0.123222
571.587244	0.123690
571.799733	0.123783
572.012205	0.123960
572.224658	0.124280
572.437092	0.124655
572.649509	0.125140
572.861907	0.125170
573.074287	0.125405
573.286649	0.125970
573.498993	0.125880
573.711318	0.126254
573.923625	0.126584
574.135914	0.126856
574.348185	0.127068
574.560438	0.126791
574.772672	0.126725
574.984888	0.126912
575.197086	0.127382
575.409266	0.127845
575.621427	0.128265
575.833570	0.128139
576.045695	0.128398
576.257802	0.128301
576.469890	0.128512
576.681961	0.128850
576.894013	0.129015
577.106046	0.128964
577.318062	0.128912
577.530059	0.129226
577.742039	0.129477
577.954000	0.129349
578.165942	0.129701
578.377867	0.129902
578.589773	0.129566
578.801661	0.129639
579.013531	0.129858
579.225382	0.130230
579.437216	0.130309
579.649031	0.130450
579.860828	0.130381
580.072606	0.130731
580.284367	0.130948
580.496109	0.131579
580.707833	0.131378
580.919539	0.131011
581.131227	0.130878
581.342896	0.130645
581.554547	0.130898
581.766180	0.131304
581.977795	0.131201
582.189391	0.131345
582.400969	0.131307
582.612529	0.131687
582.824071	0.132023
583.035595	0.132258
583.247100	0.132590
583.458587	0.132860
583.670056	0.133005
583.881506	0.133245
584.092939	0.133432
584.304353	0.133932
584.515749	0.134317
584.727127	0.134957
584.938486	0.135035
585.149828	0.135182
585.361151	0.135414
585.572456	0.135737
585.783742	0.135926
585.995011	0.136265
586.206261	0.136301
586.417493	0.136214
586.628706	0.136125
586.839902	0.136635
587.051079	0.136731
587.262238	0.136343
587.473379	0.136739
587.684502	0.136718
587.895606	0.136728
588.106692	0.136650
588.317760	0.136955
588.528810	0.136770
588.739841	0.136520
588.950855	0.136616
589.161850	0.137241
589.372827	0.137349
589.583785	0.137927
589.794726	0.138365
590.005648	0.138790
590.216552	0.138985
590.427437	0.139343
590.638305	0.139850
590.849154	0.140367
591.059985	0.140188
591.270798	0.140046
591.481592	0.140287
591.692369	0.140339
591.903127	0.140962
592.113867	0.140970
592.324588	0.141397
592.535292	0.141251
592.745977	0.141464
592.956644	0.141679
593.167293	0.142159
593.377923	0.142226
593.588536	0.142290
593.799130	0.142165
594.009706	0.142224
594.220263	0.142160
594.430803	0.142438
594.641324	0.142270
594.851827	0.142637
595.062312	0.142541
595.272778	0.142433
595.483227	0.142562
595.693657	0.142676
595.904069	0.142847
596.114462	0.142841
596.324838	0.143274
596.535195	0.143368
596.745534	0.143267
596.955855	0.143284
597.166157	0.143739
597.376441	0.143864
597.586707	0.143827
597.796955	0.144320
598.007185	0.144727
598.217396	0.144631
598.427589	0.144878
598.637764	0.145307
598.847921	0.145615
599.058060	0.145449
599.268180	0.145295
599.478282	0.145390
599.688366	0.145339
599.898431	0.145397
600.108479	0.145323
600.318508	0.145571
600.528519	0.145503
600.738511	0.145541
600.948486	0.145479
601.158442	0.145881
601.368380	0.146126
601.578300	0.146307
601.788202	0.146431
601.998085	0.147048
602.207950	0.147168
602.417797	0.147457
602.627626	0.147642
602.837436	0.148187
603.047228	0.148373
603.257002	0.148731
603.466758	0.148803
603.676496	0.149011
603.886215	0.148669
604.095916	0.148646
604.305599	0.148724
604.515264	0.148888
604.724910	0.148524
604.934538	0.148593
605.144148	0.148519
605.353740	0.148785
605.563314	0.148806
605.772869	0.149030
605.982406	0.149311
606.191925	0.149440
606.401425	0.149550
606.610908	0.150084
606.820372	0.150285
607.029818	0.150397
607.239246	0.150545
607.448655	0.150808
607.658047	0.151100
607.867420	0.151166
608.076775	0.151156
608.286111	0.151287
608.495430	0.151455
608.704730	0.151784
608.914012	0.151961
609.123275	0.152052
609.332521	0.152258
609.541748	0.152312
609.750957	0.152497
609.960148	0.153054
610.169321	0.153292
610.378475	0.153263
610.587611	0.153226
610.796729	0.153242
611.005829	0.153542
611.214910	0.153224
611.423974	0.153492
611.633019	0.153496
611.842045	0.153474
612.051054	0.153679
612.260044	0.153937
612.469017	0.154229
612.677970	0.154270
612.886906	0.154168
613.095824	0.154697
613.304723	0.154792
613.513604	0.154812
613.722467	0.154830
613.931311	0.154860
614.140138	0.155000
614.348946	0.154950
614.557736	0.155008
614.766507	0.155247
614.975261	0.155176
615.183996	0.155445
615.392713	0.155565
615.601412	0.155614
615.810092	0.155755
616.018754	0.155775
616.227399	0.155878
616.436024	0.156083
616.644632	0.156046
616.853222	0.156270
617.061793	0.156112
617.270346	0.156095
617.478880	0.156228
617.687397	0.156295
617.895895	0.156315
618.104375	0.156270
618.312837	0.156581
618.521281	0.156932
618.729706	0.156926
618.938113	0.157133
619.146502	0.157596
619.354873	0.157626
619.563226	0.157713
619.771560	0.158022
619.979876	0.158415
620.188174	0.158369
620.396453	0.158491
620.604715	0.158673
620.812958	0.158902
621.021183	0.159134
621.229390	0.159582
621.437578	0.159782
621.645748	0.159840
621.853900	0.159994
622.062034	0.160179
622.270150	0.160233
622.478247	0.160389
622.686326	0.160551
622.894387	0.160503
623.102430	0.160517
623.310454	0.160560
623.518461	0.160625
623.726449	0.160513
623.934418	0.160777
624.142370	0.160789
624.350303	0.160908
624.558218	0.160720
624.766115	0.160769
624.973994	0.160708
625.181855	0.160960
625.389697	0.161003
625.597521	0.161278
625.805327	0.161203
626.013114	0.161443
626.220883	0.161619
626.428634	0.162037
626.636367	0.162252
626.844082	0.162730
627.051778	0.162741
627.259457	0.162854
627.467117	0.163142
627.674758	0.163662
627.882382	0.163848
628.089987	0.163973
628.297574	0.164231
628.505143	0.164630
628.712694	0.164833
628.920226	0.165175
629.127740	0.165580
629.335236	0.165653
629.542714	0.165749
629.750174	0.165942
629.957615	0.166167
630.165038	0.166413
630.372443	0.166412
630.579829	0.166448
630.787198	0.166522
630.994548	0.166679
631.201880	0.166784
631.409194	0.166991
631.616489	0.167042
631.823766	0.167201
632.031025	0.167261
632.238266	0.167484
632.445489	0.167205
632.652693	0.167283
632.859879	0.167335
633.067047	0.167582
633.274197	0.167484
633.481329	0.167706
633.688442	0.167971
633.895537	0.168015
634.102614	0.168146
634.309672	0.168533
634.516713	0.168781
634.723735	0.169115
634.930739	0.169269
635.137724	0.169522
635.344692	0.169611
635.551641	0.169857
635.758572	0.169901
635.965485	0.170001
636.172379	0.170192
636.379256	0.170209
636.586114	0.170258
636.792954	0.170008
636.999775	0.170021
637.206579	0.170012
637.413364	0.169929
637.620131	0.169988
637.826880	0.169872
638.033610	0.170075
638.240323	0.170248
638.447017	0.170271
638.653692	0.170836
638.860350	0.170991
639.066990	0.171356
639.273611	0.171359
639.480214	0.171521
639.686798	0.171816
639.893365	0.172085
640.099913	0.172154
640.306443	0.172442
640.512955	0.172279
640.719449	0.172207
640.925924	0.172141
641.132381	0.172442
641.338820	0.172524
641.545241	0.172851
641.751644	0.172868
641.958028	0.173059
642.164394	0.173133
642.370742	0.173339
642.577071	0.173624
642.783383	0.173810
642.989676	0.173908
643.195951	0.174135
643.402207	0.174226
643.608446	0.174188
643.814666	0.174161
644.020868	0.174141
644.227052	0.174317
644.433218	0.174406
644.639365	0.174622
644.845494	0.174639
645.051605	0.174736
645.257698	0.174667
645.463772	0.175129
645.669828	0.175339
645.875866	0.175600
646.081886	0.175582
646.287888	0.175742
646.493871	0.175808
646.699836	0.175905
646.905783	0.175814
647.111712	0.176319
647.317622	0.176411
647.523514	0.176604
647.729388	0.176785
647.935244	0.176964
648.141082	0.177264
648.346901	0.177455
648.552702	0.177900
648.758485	0.178481
648.964250	0.178344
649.169996	0.178316
649.375724	0.178649
649.581434	0.178848
649.787126	0.179312
649.992800	0.179329
650.198455	0.179666
650.404092	0.180099
650.609711	0.180270
650.815311	0.180755
651.020894	0.180988
651.226458	0.180980
651.432004	0.181052
651.637532	0.181122
651.843041	0.181428
652.048532	0.181420
652.254006	0.181003
652.459460	0.181137
652.664897	0.181136
652.870315	0.181397
653.075716	0.181676
653.281097	0.181929
653.486461	0.182239
653.691807	0.182369
653.897134	0.182683
654.102443	0.183442
654.307734	0.183744
654.513006	0.184029
654.718261	0.184139
654.923497	0.184198
655.128715	0.184560
655.333915	0.184771
655.539096	0.185082
655.744259	0.185156
655.949404	0.184907
656.154531	0.184784
656.359640	0.184800
656.564730	0.185340
656.769802	0.185433
656.974856	0.185422
657.179892	0.185457
657.384909	0.185487
657.589908	0.185656
657.794889	0.186105
657.999852	0.186436
658.204797	0.186465
658.409723	0.186329
658.614631	0.186804
658.819521	0.187049
659.024393	0.187127
659.229246	0.187271
659.434081	0.187642
659.638898	0.187705
659.843697	0.187992
660.048478	0.188591
660.253240	0.188626
660.457984	0.188701
660.662710	0.188896
660.867417	0.189276
661.072107	0.189647
661.276778	0.189748
661.481431	0.190056
661.686066	0.190256
661.890682	0.190175
662.095281	0.190644
662.299861	0.190806
662.504422	0.190793
662.708966	0.191069
662.913491	0.191027
663.117999	0.191130
663.322488	0.191167
663.526958	0.191247
663.731411	0.191563
663.935845	0.191562
664.140261	0.191866
664.344659	0.191996
664.549038	0.191836
664.753400	0.192260
664.957743	0.192685
665.162068	0.192764
665.366375	0.193042
665.570663	0.193082
665.774933	0.193199
665.979185	0.193293
666.183419	0.193644
666.387635	0.194006
666.591832	0.194256
666.796011	0.194478
667.000172	0.194880
667.204315	0.195088
667.408439	0.195219
667.612545	0.195434
667.816634	0.195690
668.020703	0.195919
668.224755	0.196065
668.428788	0.196049
668.632803	0.196099
668.836800	0.196061
669.040779	0.196273
669.244739	0.196212
669.448681	0.196473
669.652605	0.196604
669.856511	0.196709
670.060399	0.196877
670.264268	0.196984
670.468119	0.197021
670.671952	0.197286
670.875767	0.197462
671.079563	0.197936
671.283341	0.198154
671.487101	0.198292
671.690843	0.198725
671.894567	0.199027
672.098272	0.199442
672.301959	0.199634
672.505628	0.199907
672.709278	0.200224
672.912911	0.200674
673.116525	0.200937
673.320121	0.201259
673.523699	0.201345
673.727258	0.201529
673.930799	0.201694
674.134322	0.202030
674.337827	0.202221
674.541314	0.202309
674.744782	0.202335
674.948232	0.202613
675.151664	0.202770
675.355078	0.202807
675.558474	0.202947
675.761851	0.203073
675.965210	0.203069
676.168551	0.203137
676.371873	0.203370
676.575178	0.203517
676.778464	0.203564
676.981732	0.204014
677.184981	0.204462
677.388213	0.204786
677.591426	0.204840
677.794621	0.204985
677.997798	0.205257
678.200956	0.205291
678.404097	0.205481
678.607219	0.205566
678.810323	0.205399
679.013408	0.205564
679.216476	0.205893
679.419525	0.205994
679.622556	0.206265
679.825569	0.206532
680.028563	0.206767
680.231540	0.207128
680.434498	0.207735
680.637438	0.207980
680.840359	0.208262
681.043263	0.208213
681.246148	0.208670
681.449015	0.209020
681.651864	0.209296
681.854694	0.209120
682.057506	0.209068
682.260301	0.208991
682.463076	0.209195
682.665834	0.209002
682.868573	0.209262
683.071295	0.209254
683.273998	0.209317
683.476682	0.209400
683.679349	0.209953
683.881997	0.210311
684.084627	0.210272
684.287239	0.210399
684.489833	0.210675
684.692408	0.210555
684.894965	0.210877
685.097504	0.211013
685.300025	0.211053
685.502527	0.211032
685.705012	0.210939
685.907478	0.211265
686.109925	0.211413
686.312355	0.211563
686.514766	0.211868
686.717159	0.212125
686.919534	0.212314
687.121891	0.212295
687.324230	0.212561
687.526550	0.212581
687.728852	0.212404
687.931136	0.212541
688.133401	0.212637
688.335649	0.212820
688.537878	0.212944
688.740089	0.213023
688.942281	0.213148
689.144456	0.213251
689.346612	0.213481
689.548750	0.213952
689.750870	0.214198
689.952971	0.214444
690.155055	0.214617
690.357120	0.214459
690.559167	0.214704
690.761195	0.214985
690.963206	0.215310
691.165198	0.215620
691.367172	0.215742
691.569128	0.215786
691.771065	0.215932
691.972984	0.216044
692.174885	0.216527
692.376768	0.216644
692.578633	0.216959
692.780479	0.216852
692.982308	0.217087
693.184118	0.217166
693.385909	0.217398
693.587683	0.217733
693.789438	0.217846
693.991175	0.218026
694.192894	0.218115
694.394595	0.218146
694.596277	0.218292
694.797941	0.218373
694.999587	0.218419
695.201215	0.218359
695.402824	0.218226
695.604416	0.218308
695.805989	0.218136
696.007543	0.218202
696.209080	0.218138
696.410598	0.218333
696.612099	0.218269
696.813580	0.218365
697.015044	0.218408
697.216490	0.218363
697.417917	0.218182
697.619326	0.218228
697.820717	0.218391
698.022089	0.218438
698.223444	0.218480
698.424780	0.218592
698.626098	0.218702
698.827397	0.218914
699.028679	0.219235
699.229942	0.219408
699.431187	0.219472
699.632414	0.219353
699.833622	0.219641
700.034813	0.219657
700.235985	0.219826
700.437139	0.219742
700.638274	0.220000
700.839392	0.220017
701.040491	0.220391
701.241572	0.220597
701.442635	0.220868
701.643679	0.221122
701.844706	0.221150
702.045714	0.221160
702.246704	0.221405
702.447675	0.221442
702.648629	0.221450
702.849564	0.221461
703.050481	0.221605
703.251380	0.221687
703.452260	0.221611
703.653122	0.221792
703.853966	0.221867
704.054792	0.222055
704.255600	0.222013
704.456389	0.222036
704.657160	0.221957
704.857913	0.222095
705.058648	0.222253
705.259365	0.222173
705.460063	0.222310
705.660743	0.222308
705.861405	0.222272
706.062048	0.222214
706.262674	0.222226
706.463281	0.222145
706.663870	0.222201
706.864441	0.222155
707.064993	0.222433
707.265527	0.222285
707.466043	0.222487
707.666541	0.222411
707.867021	0.222789
708.067482	0.223000
708.267925	0.223210
708.468350	0.223125
708.668757	0.223177
708.869145	0.223309
709.069516	0.223537
709.269868	0.223585
709.470201	0.223800
709.670517	0.223652
709.870814	0.223866
710.071093	0.224134
710.271354	0.224066
710.471597	0.224069
710.671821	0.223841
710.872028	0.223753
711.072216	0.223596
711.272385	0.223618
711.472537	0.223497
711.672670	0.223200
711.872785	0.222785
712.072882	0.222939
712.272961	0.222719
712.473021	0.222820
712.673063	0.222741
712.873087	0.222718
713.073093	0.222411
713.273081	0.222376
713.473050	0.222364
713.673001	0.222404
713.872934	0.222487
714.072849	0.222652
714.272745	0.222707
714.472623	0.222679
714.672483	0.222636
714.872325	0.222924
715.072148	0.223007
715.271954	0.223178
715.471741	0.223133
715.671509	0.222758
715.871260	0.222490
716.070992	0.222098
716.270707	0.221827
716.470403	0.221870
716.670080	0.221601
716.869740	0.221344
717.069381	0.221038
717.269004	0.221025
717.468609	0.221013
717.668195	0.220944
717.867764	0.220976
718.067314	0.220869
718.266846	0.220697
718.466360	0.220627
718.665855	0.220534
718.865332	0.220451
719.064791	0.220085
719.264232	0.219991
719.463655	0.219920
719.663059	0.219714
719.862445	0.219733
720.061813	0.219762
720.261163	0.219704
720.460494	0.219748
720.659807	0.219510
720.859102	0.219615
721.058379	0.219641
721.257638	0.219707
721.456878	0.219810
721.656100	0.219858
721.855304	0.219665
722.054490	0.219634
722.253657	0.219804
722.452806	0.220051
722.651937	0.220355
722.851050	0.220361
723.050145	0.220228
723.249221	0.220168
723.448279	0.220158
723.647319	0.220109
723.846340	0.220284
724.045344	0.219967
724.244329	0.219899
724.443296	0.219469
724.642245	0.219255
724.841175	0.219182
725.040088	0.219011
725.238982	0.219020
725.437857	0.218967
725.636715	0.218611
725.835554	0.218531
726.034376	0.218251
726.233179	0.218430
726.431963	0.218554
726.630730	0.218587
726.829478	0.218360
727.028208	0.218168
727.226920	0.218360
727.425614	0.218238
727.624289	0.218060
727.822946	0.217873
728.021585	0.217747
728.220206	0.217536
728.418808	0.217281
728.617392	0.217292
728.815958	0.217261
729.014506	0.216811
729.213036	0.216608
729.411547	0.216570
729.610040	0.216650
729.808515	0.216347
730.006972	0.216190
730.205410	0.216040
730.403831	0.215812
730.602233	0.215672
730.800616	0.215452
730.998982	0.215395
731.197329	0.214985
731.395658	0.214610
731.593969	0.214435
731.792262	0.214252
731.990536	0.214044
732.188793	0.213745
732.387031	0.213048
732.585250	0.212749
732.783452	0.212482
732.981635	0.212253
733.179800	0.212050
733.377947	0.211642
733.576076	0.211252
733.774186	0.211147
733.972278	0.211222
734.170352	0.211316
734.368408	0.211433
734.566446	0.211345
734.764465	0.211194
734.962466	0.211233
735.160449	0.211197
735.358413	0.211058
735.556360	0.210943
735.754288	0.210784
735.952198	0.210666
736.150090	0.210510
736.347963	0.210205
736.545818	0.209966
736.743655	0.209682
736.941474	0.209441
737.139275	0.209053
737.337057	0.208713
737.534821	0.208338
737.732567	0.207933
737.930295	0.207785
738.128005	0.207417
738.325696	0.207419
738.523369	0.207117
738.721024	0.207115
738.918660	0.207071
739.116279	0.207055
739.313879	0.206931
739.511461	0.206925
739.709024	0.206535
739.906570	0.206739
740.104097	0.206666
740.301606	0.206465
740.499097	0.206276
740.696569	0.206210
740.894024	0.205973
741.091460	0.205710
741.288878	0.205418
741.486277	0.205295
741.683659	0.205134
741.881022	0.204870
742.078367	0.204744
742.275694	0.204525
742.473002	0.204084
742.670293	0.203874
742.867565	0.203599
743.064819	0.203704
743.262054	0.203416
743.459272	0.203223
743.656471	0.203030
743.853652	0.203140
744.050815	0.202912
744.247959	0.203140
744.445085	0.203222
744.642194	0.203055
744.839283	0.202772
745.036355	0.202664
745.233408	0.202482
745.430444	0.202405
745.627461	0.201968
745.824459	0.201831
746.021440	0.201681
746.218402	0.201311
746.415346	0.201335
746.612272	0.201164
746.809180	0.201218
747.006069	0.201009
747.202940	0.200887
747.399793	0.200653
747.596628	0.200692
747.793444	0.200395
747.990243	0.200400
748.187023	0.200242
748.383784	0.200192
748.580528	0.199576
748.777253	0.199201
748.973960	0.198904
749.170649	0.198539
749.367320	0.198149
749.563973	0.197899
749.760607	0.197466
749.957223	0.197194
750.153821	0.196969
750.350400	0.196964
750.546962	0.196861
750.743505	0.196559
750.940030	0.196691
751.136536	0.196400
751.333025	0.196225
751.529495	0.195904
751.725947	0.195738
751.922381	0.195673
752.118796	0.195609
752.315194	0.195370
752.511573	0.195380
752.707934	0.195192
752.904276	0.195084
753.100601	0.194981
753.296907	0.195074
753.493195	0.195052
753.689465	0.194634
753.885716	0.194254
754.081949	0.194084
754.278164	0.193937
754.474361	0.193824
754.670540	0.193679
754.866700	0.193630
755.062843	0.193282
755.258967	0.193104
755.455072	0.192824
755.651160	0.192930
755.847229	0.192848
756.043280	0.192555
756.239313	0.192256
756.435328	0.192097
756.631324	0.191609
756.827302	0.191409
757.023262	0.191192
757.219204	0.191088
757.415127	0.190855
757.611033	0.190722
757.806920	0.190667
758.002788	0.190575
758.198639	0.190461
758.394471	0.190395
758.590286	0.190267
758.786081	0.189994
758.981859	0.189791
759.177619	0.189547
759.373360	0.189432
759.569083	0.189151
759.764788	0.189202
759.960474	0.188749
760.156143	0.188721
760.351793	0.188595
760.547425	0.188439
760.743038	0.188496
760.938634	0.188312
761.134211	0.188118
761.329770	0.188065
761.525311	0.187777
761.720833	0.187903
761.916338	0.187690
762.111824	0.187572
762.307292	0.187326
762.502741	0.187240
762.698173	0.187243
762.893586	0.187171
763.088981	0.187024
763.284358	0.186836
763.479716	0.186595
763.675057	0.186379
763.870379	0.186215
764.065683	0.186409
764.260968	0.186122
764.456236	0.185793
764.651485	0.185622
764.846716	0.185405
765.041929	0.185232
765.237123	0.185168
765.432299	0.185300
765.627457	0.185328
765.822597	0.184961
766.017719	0.184793
766.212822	0.184889
766.407907	0.184747
766.602974	0.184769
766.798023	0.184929
766.993054	0.185007
767.188066	0.184861
767.383060	0.184895
767.578036	0.184962
767.772993	0.185099
767.967933	0.185020
768.162854	0.185031
768.357757	0.185079
768.552642	0.185045
768.747508	0.185182
768.942356	0.185075
769.137186	0.184847
769.331998	0.184949
769.526792	0.184702
769.721567	0.184461
769.916324	0.184302
770.111063	0.184125
770.305784	0.183881
770.500486	0.183463
770.695171	0.183346
770.889837	0.183298
771.084484	0.182973
771.279114	0.183126
771.473725	0.182990
771.668318	0.183243
771.862893	0.183103
772.057450	0.182914
772.251988	0.182938
772.446509	0.182784
772.641011	0.182738
772.835494	0.182716
773.029960	0.182688
773.224407	0.182922
773.418836	0.182597
773.613247	0.182752
773.807640	0.182808
774.002014	0.182823
774.196370	0.182911
774.390708	0.182718
774.585028	0.182485
774.779330	0.182253
774.973613	0.182084
775.167878	0.181969
775.362125	0.181994
775.556354	0.181719
775.750564	0.181602
775.944756	0.181728
776.138930	0.181720
776.333086	0.181819
776.527223	0.181858
776.721343	0.181881
776.915444	0.182021
777.109526	0.181798
777.303591	0.181931
777.497637	0.182058
777.691666	0.181796
777.885676	0.181878
778.079667	0.182180
778.273641	0.182322
778.467596	0.182630
778.661533	0.182745
778.855452	0.182882
779.049352	0.183141
779.243235	0.183340
779.437099	0.183490
779.630945	0.183743
779.824773	0.183643
780.018582	0.183684
780.212373	0.183553
780.406146	0.183527
780.599901	0.183521
780.793638	0.183514
780.987356	0.183533
781.181056	0.183707
781.374738	0.183524
781.568402	0.183586
781.762047	0.183574
781.955674	0.183579
782.149283	0.183410
782.342874	0.183312
782.536447	0.183300
782.730001	0.183127
782.923537	0.183217
783.117055	0.183376
783.310555	0.183440
783.504036	0.183524
783.697499	0.183781
783.890944	0.183921
784.084371	0.184023
784.277780	0.184063
784.471170	0.184220
784.664542	0.184163
784.857896	0.184330
785.051231	0.184411
785.244549	0.184508
785.437848	0.184578
785.631129	0.185108
785.824392	0.185299
786.017636	0.185503
786.210863	0.185676
786.404071	0.185750
786.597260	0.185737
786.790432	0.185951
786.983585	0.185945
787.176721	0.185992
787.369838	0.185901
787.562936	0.186143
787.756017	0.186324
787.949079	0.186471
788.142123	0.186550
788.335149	0.186707
788.528156	0.186929
788.721146	0.187177
788.914117	0.187109
789.107070	0.187229
789.300005	0.187325
789.492921	0.187309
789.685819	0.187070
789.878699	0.187230
790.071561	0.187604
790.264405	0.187702
790.457230	0.187761
790.650037	0.188219
790.842826	0.188390
791.035597	0.188583
791.228349	0.188811
791.421084	0.189102
791.613800	0.189343
791.806497	0.189201
791.999177	0.189214
792.191838	0.189444
792.384481	0.189261
792.577106	0.189330
792.769713	0.189349
792.962301	0.189400
793.154871	0.189743
793.347423	0.189861
793.539957	0.189929
793.732473	0.189808
793.924970	0.190008
794.117449	0.190236
794.309910	0.190399
794.502353	0.190583
794.694777	0.190848
794.887183	0.190831
795.079571	0.190880
795.271941	0.191021
795.464293	0.191394
795.656626	0.191511
795.848941	0.191799
796.041238	0.191816
796.233516	0.191935
796.425777	0.192104
796.618019	0.192582
796.810243	0.192848
797.002449	0.193389
797.194636	0.193686
797.386805	0.193864
797.578956	0.194001
797.771089	0.194553
797.963204	0.194781
798.155300	0.194998
798.347378	0.195026
798.539438	0.195203
798.731480	0.195332
798.923503	0.195475
799.115509	0.195691
799.307496	0.195877
799.499465	0.195996
799.691415	0.196109
799.883348	0.196235
800.075262	0.196309
800.267158	0.196629
800.459035	0.196848
800.650895	0.197143
800.842736	0.197211
801.034559	0.197456
801.226364	0.197577
801.418150	0.198072
801.609919	0.198295
801.801669	0.198530
801.993401	0.198753
802.185114	0.198667
802.376810	0.198799
802.568487	0.199087
802.760146	0.199313
802.951787	0.199230
803.143409	0.199222
803.335014	0.199368
803.526600	0.199551
803.718168	0.199488
803.909717	0.199601
804.101249	0.199662
804.292762	0.199932
804.484257	0.200097
804.675734	0.200350
804.867192	0.200648
805.058632	0.201262
805.250054	0.201489
805.441458	0.202160
805.632844	0.202618
805.824211	0.203121
806.015561	0.203435
806.206891	0.203859
806.398204	0.204130
806.589499	0.204300
806.780775	0.204513
806.972033	0.205158
807.163273	0.205251
807.354495	0.205433
807.545698	0.205780
807.736883	0.206251
807.928050	0.206490
808.119199	0.207091
808.310329	0.207631
808.501441	0.207746
808.692535	0.208011
808.883611	0.208592
809.074669	0.209324
809.265708	0.209644
809.456729	0.209926
809.647732	0.210212
809.838717	0.210752
810.029683	0.211172
810.220632	0.211748
810.411562	0.211961
810.602474	0.212393
810.793367	0.212796
810.984242	0.213090
811.175100	0.213541
811.365938	0.214101
811.556759	0.214069
811.747562	0.214175
811.938346	0.214259
812.129112	0.214596
812.319860	0.214687
812.510589	0.214973
812.701300	0.215275
812.891994	0.215341
813.082668	0.215426
813.273325	0.216057
813.463964	0.216515
813.654584	0.216929
813.845186	0.217112
814.035769	0.217356
814.226335	0.217482
814.416882	0.217851
814.607411	0.218165
814.797922	0.218648
814.988415	0.218901
815.178889	0.219113
815.369345	0.219503
815.559783	0.219873
815.750203	0.220346
815.940605	0.220688
816.130988	0.221183
816.321353	0.221827
816.511700	0.222045
816.702028	0.222316
816.892339	0.222914
817.082631	0.223071
817.272905	0.223404
817.463161	0.223423
817.653398	0.223679
817.843617	0.224055
818.033819	0.224003
818.224001	0.224486
818.414166	0.224842
818.604312	0.224928
818.794440	0.225253
818.984550	0.225623
819.174642	0.226173
819.364716	0.226548
819.554771	0.226800
819.744808	0.227338
819.934827	0.227460
820.124827	0.227771
820.314810	0.228234
820.504774	0.228901
820.694720	0.229220
820.884647	0.229761
821.074557	0.230399
821.264448	0.230418
821.454321	0.230895
821.644176	0.231694
821.834012	0.232203
822.023831	0.232726
822.213631	0.233093
822.403413	0.233619
822.593176	0.233904
822.782922	0.234233
822.972649	0.235012
823.162358	0.235480
823.352049	0.235861
823.541721	0.236412
823.731376	0.236958
823.921012	0.237420
824.110629	0.238112
824.300229	0.238391
824.489811	0.238839
824.679374	0.239150
824.868919	0.239420
825.058445	0.239822
825.247954	0.240114
825.437444	0.240527
825.626916	0.240930
825.816370	0.241385
826.005806	0.242123
826.195223	0.242435
826.384622	0.242946
826.574003	0.243454
826.763366	0.243671
826.952711	0.243899
827.142037	0.244351
827.331345	0.244889
827.520635	0.245392
827.709906	0.245726
827.899160	0.246495
828.088395	0.247128
828.277612	0.247804
828.466810	0.248432
828.655991	0.249155
828.845153	0.249467
829.034297	0.249699
829.223423	0.250027
829.412531	0.250379
829.601620	0.250573
829.790691	0.250934
829.979744	0.251461
830.168779	0.251686
830.357795	0.251943
830.546793	0.252464
830.735773	0.252779
830.924735	0.253155
831.113679	0.253659
831.302604	0.254224
831.491511	0.254562
831.680400	0.254884
831.869271	0.255397
832.058123	0.255878
832.246957	0.256104
832.435773	0.257026
832.624571	0.257376
832.813351	0.257926
833.002112	0.258334
833.190855	0.258903
833.379580	0.259166
833.568287	0.259595
833.756975	0.260409
833.945645	0.260859
834.134297	0.261281
834.322931	0.262020
834.511547	0.262524
834.700144	0.262875
834.888723	0.263329
835.077284	0.263554
835.265826	0.264267
835.454351	0.264556
835.642857	0.265271
835.831345	0.265765
836.019815	0.266397
836.208266	0.267005
836.396699	0.267560
836.585114	0.268121
836.773511	0.268965
836.961890	0.269485
837.150250	0.270086
837.338592	0.270569
837.526916	0.271042
837.715222	0.271142
837.903510	0.271623
838.091779	0.272200
838.280030	0.272466
838.468263	0.272960
838.656477	0.273521
838.844674	0.274170
839.032852	0.274758
839.221012	0.274990
839.409153	0.275613
839.597277	0.276174
839.785382	0.276581
839.973469	0.277380
840.161538	0.277688
840.349589	0.278290
840.537621	0.278614
840.725635	0.279008
840.913631	0.279627
841.101609	0.280069
841.289568	0.280618
841.477509	0.281181
841.665432	0.281384
841.853337	0.281988
842.041224	0.281844
842.229092	0.282182
842.416942	0.282584
842.604774	0.283253
842.792588	0.283834
842.980383	0.283883
843.168160	0.284156
843.355919	0.284666
843.543660	0.285357
843.731382	0.286436
843.919087	0.287064
844.106773	0.287757
844.294441	0.288059
844.482090	0.288673
844.669722	0.289172
844.857335	0.290079
845.044930	0.290740
845.232507	0.290957
845.420065	0.291470
845.607605	0.291950
845.795127	0.292182
845.982631	0.292752
846.170117	0.293029
846.357584	0.293959
846.545033	0.294166
846.732464	0.294580
846.919877	0.295317
847.107272	0.295805
847.294648	0.296402
847.482006	0.297105
847.669346	0.297349
847.856667	0.297773
848.043971	0.298015
848.231256	0.298971
848.418523	0.299648
848.605771	0.300228
848.793002	0.300479
848.980214	0.301006
849.167408	0.301296
849.354584	0.302034
849.541742	0.302747
849.728881	0.303294
849.916002	0.303699
850.103105	0.304397
850.290190	0.304581
850.477256	0.304871
850.664304	0.305296
850.851334	0.306080
851.038346	0.306593
851.225340	0.306965
851.412315	0.307470
851.599272	0.307919
851.786211	0.308111
851.973132	0.308834
852.160034	0.309587
852.346918	0.310092
852.533784	0.310415
852.720632	0.310947
852.907462	0.311336
853.094273	0.311968
853.281066	0.312393
853.467841	0.313014
853.654598	0.313451
853.841336	0.313661
854.028056	0.313815
854.214758	0.314210
854.401442	0.314551
854.588107	0.315421
854.774755	0.315642
854.961384	0.316363
855.147995	0.316484
855.334587	0.316681
855.521162	0.317099
855.707718	0.317695
855.894256	0.318083
856.080775	0.318356
856.267277	0.318180
856.453760	0.319011
856.640225	0.319022
856.826672	0.319702
857.013101	0.320157
857.199511	0.320829
857.385903	0.320955
857.572277	0.321683
857.758633	0.322423
857.944970	0.323103
858.131290	0.322883
858.317591	0.323356
858.503873	0.323711
858.690138	0.324141
858.876384	0.324718
859.062612	0.325554
859.248822	0.325843
859.435014	0.326086
859.621188	0.326767
859.807343	0.327371
859.993480	0.327757
860.179599	0.328057
860.365699	0.328526
860.551781	0.328615
860.737846	0.328922
860.923891	0.329197
861.109919	0.329809
861.295929	0.330418
861.481920	0.330770
861.667893	0.331437
861.853848	0.331762
862.039784	0.332298
862.225702	0.332948
862.411603	0.333477
862.597484	0.333911
862.783348	0.334113
862.969193	0.334441
863.155021	0.335092
863.340830	0.335306
863.526620	0.335718
863.712393	0.336204
863.898147	0.336395
864.083883	0.336318
864.269601	0.336644
864.455301	0.337288
864.640982	0.337522
864.826645	0.337831
865.012290	0.338362
865.197917	0.338748
865.383526	0.339075
865.569116	0.339307
865.754688	0.340316
865.940242	0.340953
866.125777	0.341018
866.311295	0.341439
866.496794	0.342359
866.682275	0.342560
866.867737	0.343483
867.053182	0.343706
867.238608	0.344199
867.424016	0.344430
867.609406	0.344773
867.794778	0.345228
867.980131	0.345642
868.165466	0.345320
868.350783	0.345628
868.536082	0.346144
868.721362	0.346415
868.906625	0.346773
869.091869	0.347165
869.277094	0.347158
869.462302	0.347332
869.647491	0.347661
869.832662	0.347971
870.017815	0.348423
870.202950	0.348353
870.388066	0.348741
870.573165	0.349390
870.758245	0.349994
870.943306	0.350393
871.128350	0.351181
871.313375	0.351088
871.498382	0.351325
871.683371	0.351585
871.868342	0.351739
872.053294	0.351954
872.238229	0.352129
872.423144	0.351886
872.608042	0.352206
872.792922	0.352496
872.977783	0.352791
873.162626	0.353178
873.347451	0.353621
873.532258	0.353873
873.717046	0.354567
873.901816	0.354887
874.086568	0.355844
874.271302	0.356448
874.456017	0.356336
874.640715	0.357044
874.825394	0.357526
875.010055	0.357882
875.194697	0.357918
875.379322	0.357987
875.563928	0.358132
875.748516	0.357644
875.933085	0.357824
876.117637	0.358337
876.302170	0.358841
876.486685	0.359072
876.671182	0.358829
876.855661	0.359138
877.040121	0.359502
877.224563	0.360122
877.408987	0.360451
877.593393	0.360974
877.777780	0.361200
877.962150	0.361042
878.146501	0.361229
878.330833	0.361568
878.515148	0.362171
878.699444	0.362152
878.883722	0.362069
879.067982	0.362348
879.252224	0.361865
879.436447	0.361937
879.620653	0.361954
879.804840	0.362323
879.989008	0.362857
880.173159	0.362781
880.357291	0.363075
880.541405	0.363434
880.725501	0.363842
880.909579	0.364595
881.093638	0.364818
881.277680	0.365186
881.461703	0.365570
881.645707	0.365259
881.829694	0.365838
882.013662	0.365932
882.197612	0.366083
882.381544	0.366150
882.565458	0.365785
882.749353	0.365448
882.933230	0.365494
883.117089	0.365253
883.300930	0.365219
883.484753	0.364942
883.668557	0.365133
883.852343	0.364971
884.036111	0.365005
884.219861	0.365646
884.403592	0.365919
884.587305	0.365908
884.771000	0.365766
884.954677	0.366257
885.138335	0.366091
885.321976	0.366002
885.505598	0.365917
885.689201	0.366183
885.872787	0.365949
886.056354	0.366482
886.239904	0.366629
886.423434	0.366843
886.606947	0.366656
886.790442	0.367019
886.973918	0.367234
887.157376	0.367340
887.340816	0.367253
887.524237	0.367091
887.707641	0.366970
887.891026	0.366613
888.074393	0.366670
888.257741	0.366717
888.441072	0.366831
888.624384	0.367124
888.807678	0.367278
888.990954	0.366832
889.174211	0.367357
889.357451	0.366863
889.540672	0.366964
889.723875	0.367005
889.907059	0.366843
890.090226	0.366854
890.273374	0.367000
890.456504	0.366490
890.639616	0.366692
890.822709	0.366146
891.005785	0.366311
891.188842	0.366214
891.371881	0.365633
891.554901	0.366172
891.737904	0.366118
891.920888	0.365409
892.103854	0.365806
892.286802	0.365998
892.469731	0.366122
892.652643	0.366022
892.835536	0.366168
893.018410	0.366544
893.201267	0.365848
893.384106	0.365078
893.566926	0.365076
893.749728	0.364907
893.932511	0.364745
894.115277	0.364788
894.298024	0.364594
894.480753	0.364525
894.663464	0.364150
894.846157	0.364771
895.028831	0.365297
895.211487	0.365156
895.394125	0.365479
895.576745	0.365109
895.759346	0.364478
895.941930	0.364623
896.124495	0.364816
896.307041	0.364841
896.489570	0.364443
896.672080	0.364167
896.854573	0.364341
897.037046	0.363380
897.219502	0.362833
897.401940	0.362775
897.584359	0.362471
897.766760	0.361891
897.949143	0.361559
898.131507	0.361607
898.313854	0.361648
898.496182	0.361184
898.678492	0.361819
898.860783	0.362245
899.043057	0.362298
899.225312	0.362775
899.407549	0.362566
899.589768	0.362470
899.771968	0.362073
899.954151	0.361293
900.136315	0.360947
900.318461	0.360172
900.500588	0.359596
900.682698	0.359096
900.864789	0.357999
901.046862	0.357500
901.228917	0.356629
901.410953	0.356066
901.592971	0.355888
901.774972	0.355364
901.956953	0.354803
902.138917	0.354258
902.320862	0.353941
902.502790	0.354068
902.684699	0.353958
902.866589	0.354165
903.048462	0.353538
903.230316	0.352720
903.412152	0.352750
903.593970	0.352991
903.775770	0.352957
903.957551	0.352822
904.139314	0.351818
904.321059	0.351544
904.502786	0.350965
904.684494	0.351005
904.866185	0.350919
905.047857	0.350227
905.229510	0.349474
905.411146	0.348918
905.592763	0.347956
905.774363	0.348211
905.955943	0.347154
906.137506	0.347297
906.319051	0.346766
906.500577	0.346408
906.682085	0.346289
906.863575	0.345834
907.045046	0.345761
907.226500	0.345453
907.407935	0.344647
907.589352	0.344310
907.770750	0.343483
907.952131	0.342697
908.133493	0.342272
908.314837	0.341895
908.496163	0.341644
908.677470	0.340953
908.858760	0.340882
909.040031	0.340616
909.221284	0.340488
909.402518	0.340767
909.583735	0.340334
909.764933	0.340268
909.946113	0.339838
910.127275	0.339286
910.308418	0.338732
910.489544	0.338744
910.670651	0.338177
910.851740	0.338348
911.032810	0.337362
911.213863	0.336902
911.394897	0.336044
911.575913	0.335116
911.756911	0.334369
911.937890	0.333900
912.118851	0.332952
912.299794	0.332769
912.480719	0.331608
912.661626	0.330624
912.842514	0.330666
913.023384	0.330340
913.204236	0.330011
913.385070	0.329592
913.565886	0.328919
913.746683	0.328336
913.927462	0.327427
914.108223	0.326597
914.288965	0.326237
914.469690	0.325041
914.650396	0.324195
914.831084	0.323427
915.011754	0.323561
915.192405	0.323304
915.373038	0.322347
915.553653	0.321364
915.734250	0.320676
915.914829	0.320131
916.095389	0.319428
916.275931	0.318964
916.456455	0.317805
916.636961	0.316040
916.817448	0.315086
916.997917	0.314723
917.178368	0.314567
917.358801	0.314489
917.539216	0.313153
917.719612	0.312612
917.899990	0.312430
918.080350	0.312210
918.260692	0.312158
918.441015	0.311605
918.621320	0.310229
918.801607	0.309242
918.981876	0.307742
919.162127	0.307483
919.342359	0.307202
919.522573	0.305558
919.702769	0.305065
919.882947	0.303504
920.063106	0.302467
920.243247	0.302253
920.423370	0.301780
920.603475	0.301672
920.783562	0.300243
920.963630	0.298495
921.143680	0.298075
921.323712	0.297303
921.503725	0.297264
921.683721	0.296461
921.863698	0.295699
922.043657	0.294792
922.223598	0.294299
922.403520	0.294069
922.583424	0.293780
922.763311	0.293277
922.943178	0.292526
923.123028	0.291570
923.302859	0.291175
923.482673	0.290150
923.662467	0.289202
923.842244	0.288240
924.022003	0.287799
924.201743	0.287570
924.381465	0.286213
924.561169	0.285290
924.740854	0.284438
924.920522	0.283811
925.100171	0.283111
925.279802	0.281780
925.459414	0.280871
925.639009	0.279834
925.818585	0.278904
925.998143	0.278700
926.177683	0.277133
926.357205	0.276496
926.536708	0.275604
926.716193	0.274598
926.895660	0.273798
927.075109	0.272714
927.254539	0.271698
927.433951	0.269940
927.613345	0.268481
927.792721	0.268598
927.972079	0.267288
928.151418	0.265888
928.330739	0.265694
928.510042	0.265442
928.689327	0.264119
928.868593	0.263028
929.047841	0.262754
929.227071	0.262785
929.406283	0.261097
929.585476	0.260366
929.764652	0.259934
929.943809	0.258463
930.122948	0.257294
930.302068	0.256941
930.481171	0.256164
930.660255	0.254883
930.839321	0.253852
931.018369	0.253401
931.197398	0.252688
931.376409	0.250787
931.555402	0.250606
931.734377	0.249787
931.913334	0.248714
932.092272	0.248292
932.271192	0.247474
932.450094	0.245920
932.628978	0.244756
932.807844	0.244445
932.986691	0.244928
933.165520	0.243065
933.344331	0.241967
933.523123	0.241659
933.701898	0.240505
933.880654	0.239674
934.059392	0.239387
934.238111	0.239194
934.416813	0.236926
934.595496	0.234875
934.774161	0.233813
934.952808	0.233193
935.131437	0.231401
935.310047	0.230709
935.488639	0.229766
935.667213	0.227815
935.845769	0.226304
936.024306	0.226695
936.202825	0.224555
936.381326	0.224125
936.559809	0.222414
936.738274	0.220803
936.916720	0.220300
937.095148	0.219364
937.273558	0.219147
937.451950	0.218286
937.630323	0.216578
937.808678	0.217665
937.987015	0.217036
938.165334	0.216644
938.343635	0.216549
938.521917	0.214845
938.700181	0.213207
938.878427	0.211401
939.056655	0.210371
939.234864	0.208736
939.413055	0.207837
939.591228	0.206254
939.769383	0.205239
939.947519	0.204089
940.125638	0.203697
940.303738	0.202710
940.481820	0.201820
940.659883	0.200865
940.837929	0.199768
941.015956	0.197418
941.193965	0.195252
941.371955	0.193817
941.549928	0.192955
941.727882	0.190300
941.905818	0.190055
942.083736	0.188291
942.261636	0.186455
942.439517	0.186556
942.617380	0.185841
942.795225	0.186362
942.973052	0.184376
943.150860	0.182978
943.328651	0.183307
943.506423	0.182021
943.684176	0.181678
943.861912	0.181877
944.039629	0.179176
944.217328	0.178037
944.395009	0.175974
944.572672	0.176177
944.750317	0.175160
944.927943	0.173051
945.105551	0.172850
945.283141	0.171018
945.460712	0.168964
945.638265	0.168146
945.815801	0.166670
945.993317	0.165675
946.170816	0.163803
946.348297	0.162997
946.525759	0.162296
946.703203	0.158942
946.880629	0.158101
947.058036	0.156182
947.235425	0.154912
947.412797	0.154634
947.590149	0.154091
947.767484	0.154509
947.944800	0.152160
948.122099	0.150935
948.299379	0.151898
948.476640	0.151994
948.653884	0.151772
948.831109	0.151639
949.008316	0.149645
949.185505	0.147679
949.362676	0.144671
949.539828	0.143280
949.716962	0.142001
949.894078	0.139343
950.071176	0.137546
950.248256	0.136368
950.425317	0.133111
950.602360	0.131217
950.779385	0.130509
950.956391	0.129789
951.133380	0.130163
951.310350	0.128821
951.487302	0.129408
951.664235	0.129454
951.841151	0.128226
952.018048	0.129350
952.194927	0.129219
952.371788	0.127483
952.548631	0.125830
952.725455	0.124546
952.902261	0.123936
953.079049	0.121007
953.255819	0.119177
953.432570	0.116207
953.609303	0.114872
953.786018	0.113332
953.962715	0.112808
954.139394	0.112738
954.316054	0.110437
954.492696	0.109480
954.669320	0.109156
954.845926	0.106278
955.022513	0.108851
955.199083	0.106110
955.375634	0.106782
955.552166	0.106388
955.728681	0.105669
955.905177	0.106946
956.081655	0.104227
956.258115	0.101921
956.434557	0.099864
956.610980	0.095687
956.787385	0.096339
956.963772	0.095083
957.140141	0.093528
957.316492	0.090209
957.492824	0.087206
957.669138	0.087727
957.845434	0.088740
958.021712	0.091172
958.197971	0.090892
958.374212	0.089468
958.550435	0.088746
958.726640	0.088125
958.902826	0.090784
959.078995	0.090579
959.255145	0.091488
959.431277	0.090014
959.607390	0.086875
959.783486	0.086241
959.959563	0.086160
960.135622	0.085357
960.311662	0.084931
960.487685	0.082827
960.663689	0.082718
960.839675	0.081291
961.015643	0.078445
961.191593	0.077995
961.367524	0.078906
961.543437	0.080169
961.719332	0.079183
961.895209	0.076476
962.071067	0.077851
962.246907	0.076776
962.422730	0.075047
962.598533	0.076295
962.774319	0.075237
962.950086	0.074286
963.125835	0.071064
963.301566	0.071606
963.477279	0.072411
963.652973	0.069220
963.828650	0.068264
964.004308	0.069221
964.179947	0.069082
964.355569	0.070267
964.531172	0.069911
964.706757	0.070953
964.882324	0.069436
965.057873	0.071773
965.233403	0.071698
965.408916	0.072590
965.584410	0.070694
965.759885	0.070463
965.935343	0.070943
966.110782	0.071578
966.286203	0.072401
966.461606	0.072589
966.636991	0.071699
966.812357	0.072487
966.987705	0.072452
967.163035	0.074185
967.338347	0.073925
967.513641	0.074043
967.688916	0.072023
967.864173	0.071194
968.039412	0.072450
968.214632	0.070445
968.389835	0.069757
968.565019	0.070496
968.740185	0.071420
968.915333	0.070882
969.090462	0.071160
969.265573	0.072026
969.440667	0.072954
969.615741	0.071236
969.790798	0.071362
969.965836	0.071814
970.140856	0.069230
970.315858	0.066122
970.490842	0.067049
970.665808	0.067479
970.840755	0.066827
971.015684	0.065055
971.190595	0.065846
971.365487	0.066509
971.540362	0.066304
971.715218	0.066799
971.890056	0.069053
972.064875	0.069718
972.239677	0.070111
972.414460	0.070944
972.589225	0.071849
972.763972	0.069523
972.938700	0.071435
973.113411	0.071911
973.288103	0.074234
973.462777	0.073359
973.637432	0.070548
973.812070	0.066778
973.986689	0.065294
974.161290	0.064691
974.335873	0.065949
974.510437	0.062883
974.684984	0.061661
974.859512	0.058962
975.034022	0.058809
975.208513	0.061733
975.382987	0.062988
975.557442	0.064025
975.731879	0.065248
975.906298	0.065841
976.080698	0.066203
976.255080	0.066180
976.429445	0.066557
976.603790	0.064496
976.778118	0.063790
976.952427	0.064066
977.126719	0.064928
977.300992	0.064230
977.475246	0.066548
977.649483	0.066403
977.823701	0.066300
977.997901	0.067057
978.172083	0.068826
978.346247	0.068612
978.520392	0.068844
978.694519	0.069044
978.868628	0.068758
979.042719	0.067006
979.216791	0.069219
979.390845	0.069834
979.564882	0.070859
979.738899	0.072335
979.912899	0.072738
980.086880	0.074592
980.260843	0.073493
980.434788	0.072492
980.608715	0.073332
980.782623	0.071478
980.956514	0.073095
981.130386	0.071128
981.304240	0.070100
981.478075	0.066756
981.651892	0.065406
981.825692	0.065665
981.999472	0.066685
982.173235	0.064809
982.346980	0.066804
982.520706	0.065497
982.694414	0.065431
982.868104	0.063742
983.041775	0.064401
983.215428	0.062532
983.389064	0.062522
983.562680	0.062289
983.736279	0.062202
983.909860	0.060528
984.083422	0.060130
984.256966	0.060275
984.430491	0.061114
984.603999	0.062786
984.777488	0.064264
984.950959	0.063660
985.124412	0.063750
985.297847	0.063370
985.471263	0.064807
985.644661	0.064836
985.818041	0.064042
985.991403	0.065418
986.164747	0.064543
986.338072	0.063300
986.511379	0.063356
986.684668	0.063794
986.857938	0.064882
987.031191	0.064417
987.204425	0.065752
987.377641	0.066736
987.550839	0.065668
987.724018	0.065889
987.897179	0.066605
988.070322	0.066918
988.243447	0.067533
988.416554	0.067354
988.589642	0.066457
988.762712	0.066352
988.935764	0.066578
989.108798	0.065407
989.281813	0.067691
989.454811	0.066185
989.627790	0.065235
989.800751	0.064258
989.973693	0.064060
990.146617	0.063850
990.319524	0.064078
990.492412	0.065634
990.665281	0.067196
990.838133	0.065032
991.010966	0.067165
991.183781	0.067892
991.356578	0.065981
991.529356	0.066085
991.702117	0.067020
991.874859	0.067814
992.047583	0.066329
992.220288	0.066543
992.392976	0.067438
992.565645	0.068075
992.738296	0.068551
992.910929	0.069742
993.083543	0.069529
993.256139	0.067515
993.428718	0.065829
993.601277	0.065971
993.773819	0.065081
993.946342	0.063823
994.118848	0.063085
994.291335	0.062909
994.463803	0.062307
994.636254	0.061080
994.808686	0.063123
994.981100	0.061992
995.153496	0.062235
995.325874	0.062727
995.498233	0.063293
995.670574	0.063385
995.842897	0.062118
996.015202	0.061768
996.187488	0.063853
996.359757	0.063656
996.532007	0.064856
996.704239	0.064211
996.876452	0.063712
997.048648	0.063743
997.220825	0.063017
997.392984	0.063872
997.565124	0.066349
997.737247	0.065426
997.909351	0.064901
998.081437	0.064232
998.253505	0.063935
998.425554	0.063065
998.597586	0.061963
998.769599	0.063248
998.941594	0.064120
999.113571	0.063364
999.285529	0.063307
999.457469	0.062548
999.629391	0.062027
999.801295	0.063526
999.973181	0.063659
1000.145048	0.065689
1000.316897	0.066483
1000.488728	0.065409
1000.660541	0.062015
1000.832335	0.063157
1001.004111	0.063962
1001.175869	0.065378
1001.347609	0.063780
1001.519331	0.065298
1001.691034	0.066259
1001.862719	0.065567
1002.034386	0.067533
1002.206035	0.071567
1002.377665	0.071197
1002.549277	0.071131
1002.720871	0.070500
1002.892447	0.069661
1003.064004	0.070764
1003.235544	0.068408
1003.407065	0.067445
1003.578568	0.066188
1003.750052	0.064594
1003.921519	0.065246
1004.092967	0.064567
1004.264397	0.064503
1004.435809	0.066586
1004.607202	0.064556
1004.778577	0.064482
1004.949934	0.063762
1005.121273	0.063506
1005.292594	0.063554
1005.463896	0.061498
1005.635180	0.061676
1005.806446	0.060847
1005.977694	0.061025
1006.148923	0.060565
1006.320135	0.061048
1006.491328	0.060783
1006.662503	0.061197
1006.833659	0.061626
1007.004798	0.062018
1007.175918	0.061574
1007.347020	0.061257
1007.518103	0.059789
1007.689169	0.060974
1007.860216	0.061403
1008.031245	0.063504
1008.202256	0.063129
1008.373248	0.063308
1008.544223	0.063259
1008.715179	0.064125
1008.886117	0.064561
1009.057036	0.064688
1009.227938	0.064639
1009.398821	0.065260
1009.569686	0.064935
1009.740533	0.063675
1009.911361	0.063457
1010.082172	0.063539
1010.252964	0.062821
1010.423738	0.063286
1010.594493	0.062668
1010.765231	0.062162
1010.935950	0.061101
1011.106651	0.061033
1011.277334	0.063052
1011.447998	0.062798
1011.618645	0.061887
1011.789273	0.061363
1011.959882	0.061752
1012.130474	0.061811
1012.301048	0.062212
1012.471603	0.062465
1012.642140	0.062515
1012.812658	0.060508
1012.983159	0.060282
1013.153641	0.061391
1013.324105	0.064064
1013.494551	0.064113
1013.664979	0.064381
1013.835388	0.063514
1014.005779	0.062910
1014.176152	0.060862
1014.346507	0.062532
1014.516843	0.063028
1014.687162	0.062078
1014.857462	0.060410
1015.027744	0.060630
1015.198007	0.061275
1015.368252	0.061070
1015.538480	0.059936
1015.708689	0.061868
1015.878879	0.061150
1016.049052	0.061494
1016.219206	0.061456
1016.389342	0.061279
1016.559460	0.060101
1016.729559	0.058837
1016.899641	0.060728
1017.069704	0.061880
1017.239749	0.062208
1017.409775	0.061527
1017.579784	0.060845
1017.749774	0.060299
1017.919746	0.060715
1018.089700	0.060194
1018.259635	0.061302
1018.429553	0.061884
1018.599452	0.062752
1018.769333	0.061045
1018.939195	0.060893
1019.109040	0.061001
1019.278866	0.063426
1019.448674	0.062523
1019.618464	0.063826
1019.788235	0.064177
1019.957989	0.061432
1020.127724	0.061678
1020.297441	0.063999
1020.467139	0.062502
1020.636820	0.061896
1020.806482	0.061271
1020.976126	0.060783
1021.145752	0.060357
1021.315359	0.060199
1021.484948	0.059888
1021.654519	0.058657
1021.824072	0.057601
1021.993607	0.059856
1022.163123	0.062380
1022.332621	0.061444
1022.502101	0.061813
1022.671563	0.061794
1022.841007	0.062191
1023.010432	0.063218
1023.179839	0.063877
1023.349228	0.061960
1023.518598	0.062792
1023.687951	0.059629
1023.857285	0.060796
1024.026601	0.061271
1024.195899	0.061069
1024.365178	0.061053
1024.534439	0.060699
1024.703682	0.060128
1024.872907	0.059597
1025.042114	0.058605
1025.211302	0.060387
1025.380472	0.058706
1025.549624	0.059443
1025.718758	0.059403
1025.887873	0.059906
1026.056970	0.060999
1026.226049	0.060035
1026.395110	0.061662
1026.564153	0.063070
1026.733177	0.062571
1026.902183	0.063026
1027.071171	0.062005
1027.240141	0.062074
1027.409092	0.060883
1027.578026	0.060133
1027.746940	0.060660
1027.915837	0.060321
1028.084716	0.058485
1028.253576	0.057164
1028.422418	0.058646
1028.591242	0.058687
1028.760048	0.059896
1028.928835	0.059953
1029.097604	0.060392
1029.266355	0.060713
1029.435088	0.060861
1029.603803	0.059729
1029.772499	0.060474
1029.941177	0.058845
1030.109837	0.059023
1030.278478	0.058201
1030.447102	0.058108
1030.615707	0.058268
1030.784294	0.058448
1030.952863	0.058791
1031.121413	0.059845
1031.289945	0.060444
1031.458460	0.061322
1031.626955	0.061671
1031.795433	0.060999
1031.963892	0.061167
1032.132334	0.060984
1032.300756	0.061879
1032.469161	0.061958
1032.637548	0.063236
1032.805916	0.062845
1032.974266	0.062121
1033.142598	0.061411
1033.310911	0.061190
1033.479207	0.060588
1033.647484	0.058797
1033.815743	0.057035
1033.983983	0.055961
1034.152206	0.055158
1034.320410	0.052981
1034.488596	0.052068
1034.656764	0.053147
1034.824914	0.053662
1034.993045	0.053419
1035.161158	0.054795
1035.329253	0.055084
1035.497330	0.054470
1035.665388	0.055249
1035.833428	0.057569
1036.001450	0.058882
1036.169454	0.058506
1036.337440	0.058160
1036.505407	0.057230
1036.673356	0.057817
1036.841287	0.058856
1037.009200	0.061522
1037.177094	0.061747
1037.344970	0.061416
1037.512828	0.061046
1037.680668	0.061874
1037.848489	0.062892
1038.016293	0.065235
1038.184078	0.063519
1038.351845	0.062692
1038.519593	0.061773
1038.687324	0.061381
1038.855036	0.061427
1039.022730	0.062264
1039.190406	0.060535
1039.358063	0.059514
1039.525702	0.057448
1039.693323	0.057962
1039.860926	0.057931
1040.028511	0.057409
1040.196077	0.055056
1040.363625	0.055333
1040.531155	0.054952
1040.698667	0.053682
1040.866161	0.052562
1041.033636	0.053522
1041.201093	0.054214
1041.368532	0.054387
1041.535952	0.055289
1041.703355	0.056823
1041.870739	0.056725
1042.038105	0.055869
1042.205452	0.058188
1042.372782	0.061459
1042.540093	0.061527
1042.707386	0.059926
1042.874661	0.060333
1043.041918	0.058653
1043.209156	0.058931
1043.376376	0.060238
1043.543578	0.060836
1043.710762	0.060638
1043.877927	0.058572
1044.045074	0.059130
1044.212203	0.061488
1044.379314	0.062541
1044.546407	0.063864
1044.713481	0.064849
1044.880537	0.063130
1045.047575	0.063154
1045.214595	0.064229
1045.381596	0.064230
1045.548579	0.063476
1045.715544	0.063968
1045.882491	0.062209
1046.049420	0.061554
1046.216330	0.059248
1046.383222	0.057753
1046.550096	0.057020
1046.716951	0.054702
1046.883789	0.054986
1047.050608	0.056654
1047.217409	0.056482
1047.384192	0.057282
1047.550956	0.058728
1047.717703	0.060659
1047.884431	0.062713
1048.051140	0.063696
1048.217832	0.064835
1048.384505	0.064663
1048.551161	0.063843
1048.717798	0.062579
1048.884416	0.061353
1049.051017	0.059830
1049.217599	0.059235
1049.384163	0.057878
1049.550709	0.059406
1049.717237	0.059763
1049.883746	0.058642
1050.050237	0.058335
1050.216710	0.059266
1050.383165	0.060936
1050.549601	0.061931
1050.716019	0.063043
1050.882420	0.066360
1051.048801	0.063409
1051.215165	0.062845
1051.381510	0.064416
1051.547837	0.063349
1051.714146	0.062682
1051.880437	0.062904
1052.046709	0.061440
1052.212964	0.061671
1052.379200	0.058920
1052.545417	0.059734
1052.711617	0.060324
1052.877798	0.060358
1053.043961	0.060610
1053.210106	0.061212
1053.376233	0.061597
1053.542341	0.063063
1053.708432	0.060653
1053.874504	0.061589
1054.040557	0.062023
1054.206593	0.060768
1054.372610	0.060594
1054.538609	0.061977
1054.704590	0.061032
1054.870553	0.059067
1055.036497	0.057606
1055.202424	0.059085
1055.368331	0.060335
1055.534221	0.059572
1055.700093	0.059910
1055.865946	0.059421
1056.031781	0.059309
1056.197598	0.060715
1056.363397	0.061628
1056.529177	0.062781
1056.694939	0.061870
1056.860683	0.061400
1057.026409	0.064708
1057.192116	0.065439
1057.357806	0.066440
1057.523477	0.066908
1057.689130	0.068468
1057.854764	0.068458
1058.020381	0.069551
1058.185979	0.069720
1058.351559	0.068296
1058.517120	0.066461
1058.682664	0.068109
1058.848189	0.068299
1059.013696	0.067291
1059.179185	0.066072
1059.344656	0.068150
1059.510108	0.068225
1059.675542	0.069039
1059.840958	0.069499
1060.006356	0.069514
1060.171735	0.068131
1060.337096	0.067884
1060.502439	0.067896
1060.667764	0.066250
1060.833071	0.064518
1060.998359	0.063122
1061.163629	0.062237
1061.328881	0.061969
1061.494115	0.061053
1061.659330	0.063046
1061.824527	0.065024
1061.989706	0.065241
1062.154867	0.065497
1062.320010	0.064828
1062.485134	0.065159
1062.650240	0.067654
1062.815328	0.068413
1062.980398	0.069422
1063.145449	0.067695
1063.310482	0.067518
1063.475497	0.068927
1063.640494	0.069628
1063.805473	0.071174
1063.970433	0.071074
1064.135375	0.067956
1064.300299	0.068291
1064.465204	0.068899
1064.630092	0.070520
1064.794961	0.069107
1064.959812	0.068814
1065.124645	0.068761
1065.289459	0.067956
1065.454256	0.066080
1065.619034	0.067868
1065.783793	0.066576
1065.948535	0.064862
1066.113258	0.061807
1066.277964	0.061744
1066.442651	0.060485
1066.607319	0.059881
1066.771970	0.061455
1066.936602	0.065204
1067.101216	0.066784
1067.265812	0.069727
1067.430389	0.071748
1067.594949	0.073839
1067.759490	0.073466
1067.924013	0.076028
1068.088518	0.074721
1068.253004	0.072900
1068.417472	0.071341
1068.581922	0.071659
1068.746354	0.070953
1068.910768	0.069365
1069.075163	0.069536
1069.239540	0.068575
1069.403899	0.066359
1069.568240	0.068421
1069.732562	0.066715
1069.896866	0.067575
1070.061152	0.064991
1070.225420	0.066950
1070.389670	0.067533
1070.553901	0.067635
1070.718114	0.068893
1070.882309	0.069002
1071.046486	0.071117
1071.210644	0.073289
1071.374784	0.071621
1071.538906	0.072125
1071.703010	0.070938
1071.867096	0.071858
1072.031163	0.070219
1072.195212	0.071466
1072.359243	0.072771
1072.523256	0.071388
1072.687250	0.072706
1072.851226	0.074295
1073.015184	0.075006
1073.179124	0.074002
1073.343045	0.073065
1073.506949	0.075221
1073.670834	0.074698
1073.834701	0.073215
1073.998549	0.072748
1074.162380	0.070247
1074.326192	0.071361
1074.489986	0.073071
1074.653761	0.071322
1074.817519	0.071700
1074.981258	0.072874
1075.144979	0.071481
1075.308682	0.073873
1075.472367	0.071758
1075.636033	0.073527
1075.799681	0.073982
1075.963311	0.071244
1076.126923	0.071267
1076.290516	0.071888
1076.454092	0.069344
1076.617649	0.071819
1076.781187	0.071430
1076.944708	0.074421
1077.108210	0.074840
1077.271695	0.072834
1077.435160	0.075031
1077.598608	0.079470
1077.762038	0.078331
1077.925449	0.079333
1078.088842	0.078756
1078.252217	0.078231
1078.415573	0.076333
1078.578912	0.076064
1078.742232	0.076321
1078.905534	0.076405
1079.068817	0.074483
1079.232083	0.075277
1079.395330	0.074121
1079.558559	0.073456
1079.721770	0.073321
1079.884962	0.073100
1080.048136	0.073752
1080.211293	0.075208
1080.374430	0.074387
1080.537550	0.074992
1080.700651	0.075031
1080.863735	0.073782
1081.026800	0.074686
1081.189846	0.072604
1081.352875	0.076066
1081.515885	0.075471
1081.678877	0.075836
1081.841851	0.074968
1082.004807	0.076186
1082.167744	0.079884
1082.330663	0.079836
1082.493564	0.078945
1082.656447	0.081467
1082.819312	0.081057
1082.982158	0.079668
1083.144986	0.078775
1083.307796	0.082160
1083.470587	0.080133
1083.633361	0.077627
1083.796116	0.079161
1083.958853	0.081641
1084.121571	0.082734
1084.284272	0.079960
1084.446954	0.079211
1084.609618	0.079453
1084.772264	0.079224
1084.934892	0.080303
1085.097501	0.080435
1085.260092	0.081184
1085.422665	0.081045
1085.585220	0.080750
1085.747756	0.084348
1085.910274	0.089314
1086.072774	0.090102
1086.235256	0.092018
1086.397720	0.092435
1086.560165	0.092756
1086.722592	0.094366
1086.885001	0.091977
1087.047392	0.090377
1087.209764	0.090724
1087.372119	0.086744
1087.534455	0.089007
1087.696772	0.086665
1087.859072	0.085290
1088.021353	0.087919
1088.183616	0.087293
1088.345861	0.090073
1088.508088	0.090366
1088.670296	0.089304
1088.832486	0.093547
1088.994658	0.093257
1089.156812	0.093399
1089.318948	0.093751
1089.481065	0.091653
1089.643164	0.093898
1089.805245	0.092245
1089.967308	0.095755
1090.129352	0.093784
1090.291378	0.093190
1090.453386	0.090101
1090.615376	0.089474
1090.777347	0.091027
1090.939301	0.091167
1091.101236	0.089678
1091.263153	0.089054
1091.425051	0.087098
1091.586932	0.088997
1091.748794	0.086728
1091.910638	0.090590
1092.072463	0.089317
1092.234271	0.088498
1092.396060	0.092549
1092.557831	0.094599
1092.719584	0.096201
1092.881319	0.098865
1093.043035	0.097654
1093.204733	0.099195
1093.366413	0.095109
1093.528075	0.098080
1093.689718	0.097171
1093.851343	0.094605
1094.012950	0.090327
1094.174539	0.088027
1094.336110	0.084891
1094.497662	0.087220
1094.659196	0.088001
1094.820712	0.086817
1094.982210	0.081558
1095.143689	0.084567
1095.305151	0.083984
1095.466594	0.089772
1095.628018	0.093591
1095.789425	0.092772
1095.950813	0.089658
1096.112183	0.087731
1096.273535	0.091774
1096.434869	0.092920
1096.596184	0.090092
1096.757482	0.088064
1096.918761	0.083741
1097.080021	0.082360
1097.241264	0.083474
1097.402488	0.085554
1097.563694	0.086336
1097.724882	0.084524
1097.886052	0.092908
1098.047203	0.093816
1098.208336	0.094457
1098.369451	0.095101
1098.530548	0.096482
1098.691627	0.100007
1098.852687	0.097680
1099.013729	0.102183
1099.174753	0.101574
1099.335758	0.094771
1099.496746	0.094106
1099.657715	0.092345
1099.818666	0.089455
1099.979599	0.089434
1100.140513	0.088134
1100.301409	0.091215
1100.462287	0.087140
1100.623147	0.086760
1100.783989	0.088916
1100.944812	0.092320
1101.105617	0.092461
1101.266404	0.097211
1101.427173	0.097522
1101.587923	0.093302
1101.748656	0.094617
1101.909370	0.096271
1102.070066	0.100605
1102.230743	0.101127
1102.391403	0.096282
1102.552044	0.098233
1102.712667	0.098814
1102.873271	0.094916
1103.033858	0.100877
1103.194426	0.098935
1103.354976	0.097361
1103.515508	0.096449
1103.676021	0.094290
1103.836517	0.098017
1103.996994	0.097911
1104.157453	0.097067
1104.317893	0.099417
1104.478316	0.093780
1104.638720	0.095926
1104.799106	0.096589
1104.959474	0.094719
1105.119823	0.093563
1105.280155	0.092503
1105.440468	0.095152
1105.600763	0.095258
1105.761039	0.094289
1105.921298	0.099103
1106.081538	0.100309
1106.241760	0.098903
1106.401964	0.098024
1106.562149	0.101923
1106.722316	0.102121
1106.882465	0.099674
1107.042596	0.099774
1107.202709	0.101715
1107.362803	0.102736
1107.522879	0.098645
1107.682937	0.101156
1107.842977	0.101597
1108.002999	0.096838
1108.163002	0.101929
1108.322987	0.105489
1108.482954	0.099631
1108.642902	0.098770
1108.802833	0.100120
1108.962745	0.097147
1109.122639	0.099740
1109.282515	0.096489
1109.442372	0.096656
1109.602211	0.093697
1109.762032	0.088718
1109.921835	0.098459
1110.081620	0.099769
1110.241386	0.097283
1110.401134	0.100456
1110.560864	0.101303
1110.720576	0.104307
1110.880269	0.109267
1111.039945	0.109836
1111.199602	0.112035
1111.359240	0.109375
1111.518861	0.108340
1111.678463	0.104892
1111.838047	0.105077
1111.997613	0.103720
1112.157161	0.104036
1112.316690	0.106605
1112.476202	0.109346
1112.635695	0.112718
1112.795169	0.110545
1112.954626	0.115406
1113.114064	0.117821
1113.273484	0.113807
1113.432886	0.115972
1113.592270	0.111673
1113.751635	0.113387
1113.910983	0.109923
1114.070312	0.105095
1114.229622	0.108411
1114.388915	0.106987
1114.548189	0.107960
1114.707445	0.113409
1114.866683	0.108797
1115.025903	0.114103
1115.185104	0.108407
1115.344287	0.107129
1115.503452	0.108629
1115.662599	0.106137
1115.821727	0.106922
1115.980838	0.102354
1116.139930	0.104113
1116.299004	0.107583
1116.458059	0.102460
1116.617097	0.103951
1116.776116	0.102658
1116.935117	0.106085
1117.094099	0.109072
1117.253064	0.107823
1117.412010	0.106273
1117.570938	0.105847
1117.729848	0.100040
1117.888740	0.109667
1118.047613	0.111232
1118.206468	0.111355
1118.365305	0.103069
1118.524124	0.104238
1118.682924	0.107148
1118.841707	0.112737
1119.000471	0.113646
1119.159216	0.114709
1119.317944	0.111699
1119.476653	0.109344
1119.635344	0.110039
1119.794017	0.116564
1119.952672	0.114850
1120.111308	0.111740
1120.269927	0.118344
1120.428527	0.119299
1120.587108	0.117562
1120.745672	0.117983
1120.904217	0.122300
1121.062744	0.124874
1121.221253	0.120920
1121.379744	0.115090
1121.538216	0.114814
1121.696671	0.109269
1121.855107	0.109978
1122.013524	0.117353
1122.171924	0.116221
1122.330305	0.106302
1122.488668	0.105504
1122.647013	0.108012
1122.805340	0.112052
1122.963648	0.115109
1123.121938	0.112473
1123.280210	0.108769
1123.438464	0.107548
1123.596700	0.111548
1123.754917	0.112110
1123.913116	0.116073
1124.071297	0.123084
1124.229459	0.122006
1124.387604	0.117365
1124.545730	0.123182
1124.703838	0.125132
1124.861928	0.124637
1125.019999	0.118747
1125.178052	0.130407
1125.336088	0.123705
1125.494104	0.120602
1125.652103	0.126650
1125.810083	0.127415
1125.968045	0.127024
1126.125989	0.123020
1126.283915	0.122629
1126.441823	0.126881
1126.599712	0.120934
1126.757583	0.121574
1126.915436	0.116778
1127.073270	0.114986
1127.231087	0.113238
1127.388885	0.115863
1127.546665	0.116964
1127.704426	0.115909
1127.862170	0.114239
1128.019895	0.111661
1128.177602	0.112826
1128.335291	0.115145
1128.492961	0.111793
1128.650614	0.116985
1128.808248	0.107758
1128.965864	0.107309
1129.123461	0.106673
1129.281041	0.103886
1129.438602	0.101889
1129.596145	0.099903
1129.753670	0.108009
1129.911176	0.108313
1130.068665	0.111012
1130.226135	0.108010
1130.383587	0.113124
1130.541020	0.114182
1130.698436	0.122597
1130.855833	0.131616
1131.013212	0.134772
1131.170573	0.125084
1131.327915	0.129339
1131.485239	0.124766
1131.642545	0.137258
1131.799833	0.131242
1131.957103	0.136860
1132.114354	0.131082
1132.271588	0.128767
1132.428803	0.125943
1132.585999	0.127401
1132.743178	0.127148
1132.900338	0.122904
1133.057480	0.111388
1133.214604	0.121736
1133.371710	0.115223
1133.528797	0.113331
1133.685866	0.116923
1133.842917	0.121457
1133.999950	0.120201
1134.156964	0.116681
1134.313960	0.119050
1134.470938	0.122124
1134.627898	0.115894
1134.784840	0.121173
1134.941763	0.131794
1135.098668	0.121264
1135.255555	0.113943
1135.412424	0.110727
1135.569274	0.107275
1135.726107	0.115861
1135.882921	0.121887
1136.039716	0.123858
1136.196494	0.113397
1136.353253	0.101388
1136.509995	0.105990
1136.666717	0.107780
1136.823422	0.115729
1136.980109	0.114893
1137.136777	0.120659
1137.293427	0.111339
1137.450059	0.107271
1137.606672	0.120533
1137.763267	0.128237
1137.919844	0.128020
1138.076403	0.130182
1138.232944	0.138287
1138.389466	0.134232
1138.545971	0.118714
1138.702457	0.127719
1138.858924	0.128738
1139.015374	0.114989
1139.171805	0.121577
1139.328218	0.119538
1139.484613	0.119356
1139.640990	0.113294
1139.797348	0.121848
1139.953688	0.121825
1140.110010	0.127316
1140.266314	0.134720
1140.422600	0.140465
1140.578867	0.124107
1140.735116	0.130270
1140.891347	0.133917
1141.047559	0.132214
1141.203754	0.132467
1141.359930	0.133323
1141.516088	0.117608
1141.672228	0.100622
1141.828349	0.106523
1141.984452	0.110345
1142.140537	0.105864
1142.296604	0.107428
1142.452653	0.101764
1142.608683	0.093438
1142.764695	0.091096
1142.920689	0.102064
1143.076665	0.103037
1143.232622	0.095451
1143.388562	0.104935
1143.544483	0.109081
1143.700385	0.107704
1143.856270	0.103867
1144.012136	0.111097
1144.167985	0.115232
1144.323814	0.114741
1144.479626	0.117108
1144.635420	0.121828
1144.791195	0.116050
1144.946952	0.118841
1145.102691	0.119785
1145.258411	0.124660
1145.414113	0.131551
1145.569798	0.134398
1145.725463	0.148176
1145.881111	0.154502
1146.036741	0.162806
1146.192352	0.169708
1146.347945	0.165945
1146.503519	0.156863
1146.659076	0.168292
1146.814614	0.168379
1146.970134	0.175559
1147.125636	0.160069
1147.281120	0.169316
1147.436585	0.161551
1147.592032	0.159361
1147.747461	0.154756
1147.902872	0.156751
1148.058265	0.143000
1148.213639	0.130343
1148.368995	0.128825
1148.524333	0.121405
1148.679653	0.119729
1148.834954	0.119570
1148.990237	0.125591
1149.145502	0.130666
1149.300749	0.143047
1149.455977	0.149324
1149.611188	0.157091
1149.766380	0.151751
1149.921553	0.167649
1150.076709	0.159866
1150.231846	0.172475
1150.386966	0.153460
1150.542066	0.145259
1150.697149	0.134287
1150.852214	0.123201
1151.007260	0.119785
1151.162288	0.109030
1151.317298	0.101115
1151.472289	0.097111
1151.627263	0.082905
1151.782218	0.081740
1151.937155	0.093046
1152.092073	0.095584
1152.246974	0.099451
1152.401856	0.105785
1152.556720	0.119411
1152.711566	0.116599
1152.866393	0.127949
1153.021203	0.126749
1153.175994	0.124630
1153.330767	0.121498
1153.485521	0.117794
1153.640258	0.127391
1153.794976	0.120396
1153.949676	0.116917
1154.104358	0.119423
1154.259021	0.114825
1154.413667	0.109676
1154.568294	0.114858
1154.722903	0.112506
1154.877493	0.119399
1155.032066	0.113570
1155.186620	0.119741
1155.341156	0.131916
1155.495674	0.136233
1155.650173	0.139301
1155.804654	0.157662
1155.959118	0.167825
1156.113562	0.173776
1156.267989	0.174594
1156.422397	0.168551
1156.576788	0.158009
1156.731160	0.155076
1156.885513	0.151553
1157.039849	0.134187
1157.194166	0.122562
1157.348465	0.136196
1157.502746	0.134258
1157.657009	0.138337
1157.811253	0.144047
1157.965479	0.152697
1158.119687	0.130312
1158.273877	0.122840
1158.428048	0.147474
1158.582201	0.139444
1158.736337	0.121427
1158.890453	0.128884
1159.044552	0.121216
1159.198632	0.118135
1159.352694	0.114130
1159.506738	0.139154
1159.660764	0.160143
1159.814771	0.152520
1159.968761	0.162289
1160.122732	0.155197
1160.276685	0.143266
1160.430619	0.146288
1160.584535	0.153032
1160.738434	0.144019
1160.892313	0.127809
1161.046175	0.119516
1161.200019	0.116405
1161.353844	0.123161
1161.507651	0.130820
1161.661440	0.126041
1161.815210	0.130087
1161.968962	0.114964
1162.122697	0.127595
1162.276412	0.127761
1162.430110	0.116734
1162.583789	0.116747
1162.737451	0.107235
1162.891094	0.113878
1163.044718	0.108304
1163.198325	0.103569
1163.351913	0.113170
1163.505483	0.117597
1163.659035	0.106652
1163.812569	0.125765
1163.966084	0.121101
1164.119581	0.119018
1164.273060	0.116300
1164.426521	0.149352
1164.579964	0.143505
1164.733388	0.135712
1164.886794	0.121919
1165.040182	0.131650
1165.193551	0.117435
1165.346903	0.130672
1165.500236	0.145367
1165.653551	0.136537
1165.806848	0.104553
1165.960126	0.114273
1166.113386	0.138902
1166.266628	0.142527
1166.419852	0.136645
1166.573058	0.127548
1166.726245	0.113449
1166.879414	0.106728
1167.032565	0.112794
1167.185698	0.129135
1167.338812	0.095763
1167.491909	0.067843
1167.644987	0.064990
1167.798046	0.066084
1167.951088	0.089513
1168.104111	0.093341
1168.257117	0.078000
1168.410103	0.074557
1168.563072	0.083178
1168.716023	0.120800
1168.868955	0.129634
1169.021869	0.140573
1169.174765	0.156529
1169.327642	0.140317
1169.480501	0.132605
1169.633343	0.146178
1169.786165	0.164554
1169.938970	0.147482
1170.091757	0.139575
1170.244525	0.130350
1170.397275	0.121801
1170.550007	0.096913
1170.702720	0.104982
1170.855415	0.099352
1171.008092	0.095314
1171.160751	0.073309
1171.313392	0.068504
1171.466014	0.005589
1171.618619	0.074457
1171.771205	0.074457
1171.923772	0.074457
