sample name	sample
index	1453
start time	 05-10-2021  01:32:48 PM
880	0.344135
Peak Time (s)	92.537
Peak Height 	0.3441
calc peak height	90,93
Baseline Time (s)	8.536
Baseline Value 	-0.00524
subtract baseline	10,4
Abs	0.247750
Peak Time (s)	92.037
Peak Height 	0.2478
calc peak height	90,93
Baseline Time (s)	11.563
Baseline Value 	0.001083
subtract baseline	10,3
PK_550	0.140903
Peak Time (s)	90.536
Peak Height 	0.1409
calc peak height	90,93
Baseline Time (s)	11.037
Baseline Value 	1.091E-4
subtract baseline	10,2
PK_880	0.236615
Peak Time (s)	91.037
Peak Height 	0.2366
calc peak height	90,93
Baseline Time (s)	10.537
Baseline Value 	0.001004
subtract baseline	10,1


Time (s)	A880-A510	A880-A775	A880-A975	A880	I510	I775	I975	I880	
0.036000	0.001527	-0.000290	0.000040	0.002160	6484.608580	43885.478229	3940.552812	22558.953420
0.536500	-0.000326	-0.001046	0.000038	0.004169	6452.441455	43625.711593	3935.356870	22468.068953
1.037000	-0.002094	-0.000523	-0.001295	0.006788	6416.243834	43429.834685	3925.211866	22350.168805
1.537000	-0.001333	-0.000187	-0.002086	0.001343	6467.555550	43972.257021	3937.167707	22596.055135
2.037000	0.001726	0.000555	0.001657	0.001437	6492.337594	44033.606655	3946.635246	22591.802066
2.537500	-0.000477	0.000355	-0.000503	0.001087	6476.827490	44047.779340	3941.928106	22607.694023
3.034500	-0.002912	-0.000416	-0.006158	0.005470	6420.341228	43562.806575	3916.185808	22409.375782
3.535500	0.000232	-0.000561	-0.001105	-0.000053	6492.308097	44069.046992	3943.325571	22659.629584
4.035500	0.000855	-0.000206	0.004757	0.000524	6492.694125	44047.981326	3957.137573	22633.334332
4.535500	-0.000604	-0.000617	0.003631	0.000052	6484.428931	44053.827321	3955.420034	22654.843997
5.036500	0.000949	0.000904	0.004785	0.001092	6488.717288	44099.395697	3955.718849	22607.498140
5.536500	0.000306	0.000127	0.004210	0.000708	6486.549394	44062.045776	3955.217256	22624.942316
6.036500	-0.000656	-0.000560	0.001782	0.000326	6481.694816	44033.210943	3949.857526	22642.320075
6.537000	0.000473	-0.000046	-0.002375	0.000125	6492.833161	44100.924382	3939.570525	22651.511935
7.037500	0.000235	0.000369	0.005320	0.000932	6484.079317	44063.812555	3957.545539	22614.759932
7.535000	0.001862	0.000887	-0.001606	0.000984	6497.287580	44107.984174	3939.337760	22612.403387
8.035000	0.000017	-0.000085	-0.003796	0.000595	6485.069512	44052.695538	3934.684431	22630.075996
8.535500	0.000946	0.000090	0.001066	0.000000	6497.850243	44125.699041	3948.840760	22657.197564
9.035500	-0.002017	-0.000274	-0.001092	0.004920	6432.243675	43627.643076	3930.514344	22434.172599
9.536000	0.000102	0.000109	-0.000971	-0.000279	6493.114591	44153.967927	3944.260675	22669.940800
10.036500	0.001575	-0.000199	0.002026	-0.000518	6507.503222	44147.365884	3952.705423	22680.832575
10.536500	0.000000	0.000333	0.000401	0.000052	6489.479068	44143.819380	3946.971086	22654.822550
11.037000	-0.002802	0.000000	-0.002241	0.004508	6429.163601	43691.892500	3928.622585	22452.731113
11.563000	-0.000045	-0.000609	0.000000	-0.000302	6492.066094	44088.012753	3946.846597	22670.950426
12.040000	0.000976	-0.000200	0.003225	-0.000339	6500.948548	44130.261274	3955.378567	22672.642582
12.535000	-0.000532	-0.000371	0.000344	-0.000890	6492.916710	44166.326298	3949.277800	22697.791883
13.035500	-0.002021	-0.000756	-0.002810	0.004829	6432.957034	43590.973599	3926.343809	22438.268287
13.536000	0.002235	0.000120	0.004676	-0.000556	6513.380901	44181.206764	3959.766236	22682.542236
14.035000	0.000498	-0.000252	0.000447	0.002147	6476.122481	43890.327007	3941.642840	22559.566493
14.535500	-0.000978	-0.000087	-0.002850	0.001733	6467.263891	43944.942487	3934.188709	22578.333614
15.037000	-0.003342	-0.001090	-0.003648	0.005563	6416.045163	43491.152679	3922.329403	22405.199028
15.536500	0.001268	0.000207	0.000306	-0.000192	6502.173581	44155.009969	3947.358017	22665.956530
16.037000	0.002745	0.000066	0.003058	-0.000244	6515.046114	44146.509896	3954.691858	22668.318972
16.537000	-0.000361	-0.000191	0.000092	-0.000542	6491.429862	44150.403827	3947.710762	22681.899384
17.037500	-0.004123	-0.000419	0.001995	0.002989	6430.796007	43795.214934	3943.474711	22521.383076
17.535000	0.001646	-0.000368	0.001484	0.000756	6497.383877	44010.747880	3947.960052	22622.775398
18.035500	-0.000145	-0.000283	-0.001705	0.000969	6480.590932	43998.574885	3939.119352	22613.076201
18.535500	0.001064	-0.000663	-0.000963	0.000578	6493.987836	43999.603579	3942.055161	22630.855356
19.035500	-0.000627	0.000363	0.002191	0.002372	6464.866741	43927.115852	3945.590301	22549.344432
19.536000	0.000634	-0.000011	-0.001301	0.001188	6485.272679	44003.577161	3939.598257	22603.095237
20.036500	0.000866	-0.000413	-0.000257	0.000760	6490.807463	44006.060876	3943.414911	22622.579874
20.537000	0.000177	-0.000253	-0.000333	0.000538	6486.886063	44042.185501	3943.795456	22632.677580
21.037000	-0.001503	-0.000356	0.001010	0.002274	6458.406043	43868.516206	3942.776056	22553.809452
21.540500	0.000379	-0.000225	-0.000913	0.000639	6487.742064	44035.341940	3942.027205	22628.106947
22.035000	-0.001083	-0.000601	-0.002776	0.000308	6478.281284	44031.111624	3938.060964	22643.173435
22.535500	0.000496	-0.000366	0.001981	0.000451	6490.287094	44039.753349	3950.051817	22636.636310
23.035500	-0.000852	-0.000165	-0.001820	0.000816	6475.967487	44024.252041	3939.219433	22620.048290
23.536000	0.000025	0.000043	-0.000102	0.001012	6481.655388	44025.434160	3943.165776	22611.127910
24.036000	0.001955	0.000003	0.000896	0.000381	6503.130870	44081.276492	3947.402498	22639.819323
24.536500	-0.000551	-0.000238	-0.001452	0.000308	6482.719152	44065.426586	3941.486934	22643.153097
25.036500	0.000528	-0.000096	0.000486	0.000905	6486.757156	44022.297999	3944.969245	22615.965746
25.537000	-0.001052	0.000262	0.001021	0.001054	6472.302417	44042.055459	3945.973841	22609.186111
26.040000	-0.000741	0.000057	0.001269	0.000841	6476.683020	44042.847854	3947.176498	22618.894335
26.537000	-0.000409	-0.000239	0.000549	0.000820	6479.634928	44016.868444	3945.357089	22619.854776
27.035000	0.000608	-0.000409	-0.001593	0.000521	6490.644366	44029.089356	3940.571145	22633.466624
27.535500	-0.001473	-0.000363	0.002198	-0.001495	6490.105221	44224.576796	3955.717196	22725.478330
28.038500	0.002587	-0.000198	0.000702	-0.001007	6520.158950	44193.987635	3950.521031	22703.174298
28.538500	0.002323	-0.000020	0.004862	-0.000802	6516.202420	44191.396162	3960.905994	22693.804153
29.039000	-0.002086	-0.000653	-0.003637	0.004307	6436.737670	43649.551089	3925.567313	22461.840280
29.536500	0.000421	0.000033	-0.000785	-0.000567	6498.206478	44174.099712	3945.493301	22683.061939
30.036500	0.001235	-0.000360	0.002775	-0.001000	6508.688135	44177.854115	3955.932076	22702.818805
30.536500	0.001151	-0.000045	0.002782	-0.000618	6504.775727	44171.512853	3954.949255	22685.407716
31.037000	-0.001516	-0.000906	0.001025	0.003902	6444.788777	43663.702662	3938.594333	22480.085591
31.537500	0.002053	-0.000342	0.002744	-0.000415	6510.660768	44124.043957	3954.316718	22676.135813
32.035500	-0.000390	0.000310	0.004092	-0.000262	6488.839031	44171.398319	3957.453584	22669.133647
32.535000	0.001252	0.000001	0.003468	-0.000337	6503.254836	44149.192795	3956.011190	22672.545240
33.035500	-0.000102	0.000210	0.001434	0.001118	6479.700246	44031.104538	3946.884759	22606.284146
33.540500	0.002138	-0.000038	0.001549	-0.000820	6514.787707	44191.418318	3952.247193	22694.627764
34.036500	0.000259	0.000533	0.005496	0.000799	6485.396645	44091.918806	3958.358030	22620.817720
34.536500	-0.001075	-0.000823	0.000110	0.000712	6474.972302	43971.923308	3944.494937	22624.780933
35.036500	-0.001421	-0.000782	-0.001695	0.002740	6455.210156	43784.534334	3934.571130	22532.675765
35.537000	0.000163	0.000301	0.001300	0.001543	6478.366860	43999.512191	3945.429059	22586.982972
36.037500	-0.000714	0.000112	0.002755	0.001595	6470.619466	43976.814933	3949.086813	22584.619385
36.535000	-0.001363	-0.000296	-0.000808	0.000744	6472.303455	44018.631725	3942.026758	22623.311224
37.035500	-0.000732	-0.001120	-0.000972	0.002169	6465.683859	43806.496620	3937.911531	22558.558432
37.535500	0.000520	0.000367	0.004034	0.001240	6483.887217	44034.465628	3953.359908	22600.747505
38.035500	-0.000207	-0.000772	-0.000106	0.000547	6483.597585	43992.278026	3944.362632	22632.271616
38.535500	0.000702	-0.000192	0.001318	0.001350	6484.490692	43971.210053	3945.978351	22595.747292
39.037000	-0.000060	-0.000685	0.000722	0.002797	6466.051705	43788.358849	3940.671294	22530.107299
39.537000	-0.002459	-0.000515	0.000372	0.001082	6460.367114	43966.005737	3944.213423	22607.940986
40.037000	0.000527	0.000600	0.008164	0.001890	6478.511034	43995.042975	3962.517960	22571.240392
40.537500	-0.001793	-0.000101	-0.006118	0.001024	6466.386595	44010.675039	3927.618661	22610.583118
41.035000	-0.001702	0.000379	0.000721	0.003285	6448.360959	43842.533353	3939.404102	22508.002159
41.535500	0.002813	-0.000373	-0.000217	0.001700	6499.252208	43921.060858	3941.081068	22579.845048
42.035500	-0.000579	-0.001279	0.001442	0.000339	6482.237271	43964.012107	3948.936847	22641.770654
42.535500	-0.000728	-0.000067	-0.000849	0.001638	6470.142477	43955.847833	3939.605383	22582.670101
43.036000	-0.000314	-0.001387	0.000184	0.002008	6470.506371	43796.461470	3941.320735	22565.860657
43.539000	-0.000011	-0.000533	0.002149	0.001153	6480.179310	43957.601172	3948.658931	22604.723893
44.036500	0.002156	0.000563	0.002078	-0.001725	6522.585843	44334.645708	3956.007351	22736.011694
44.536500	0.001101	-0.000231	0.005982	-0.000414	6502.632882	44134.455262	3962.836226	22676.057756
45.037000	-0.002289	-0.000799	-0.001311	0.004458	6433.813035	43621.688004	3931.140426	22455.008250
45.537000	0.000848	-0.000077	0.001092	-0.000300	6499.548510	44138.300724	3949.692463	22670.882566
46.035000	0.000280	-0.000734	-0.002038	-0.000562	6496.982285	44100.908635	3942.224286	22682.849933
46.535500	-0.000044	0.000049	0.001051	-0.000436	6493.201846	44163.203430	3949.941219	22677.103119
47.035500	-0.001445	-0.000612	0.002424	0.004343	6441.727084	43649.952074	3941.075800	22460.177995
47.536500	-0.000200	-0.000084	-0.001982	0.001825	6472.984451	43936.486359	3936.192340	22574.166819
48.039000	-0.000101	-0.000223	0.004909	0.001482	6476.668395	43955.727312	3955.019057	22589.729212
48.536000	0.000329	-0.000496	0.002507	-0.000597	6497.686207	44126.751429	3954.173225	22684.437377
49.036500	-0.002333	-0.000428	0.002080	0.005135	6427.865394	43593.002898	3938.133245	22424.472019
49.537000	0.000675	-0.000565	0.003671	-0.000880	6502.972516	44147.054199	3957.973043	22697.353728
50.037500	0.001513	0.000492	0.001619	-0.002693	6525.330582	44420.172195	3957.343209	22780.340641
50.535000	0.001960	-0.000261	0.004881	0.000001	6506.369693	44092.227359	3958.839103	22657.137463
51.037500	-0.001403	-0.000272	-0.002987	0.004784	6438.436827	43640.541741	3926.007521	22440.296804
51.535500	0.033610	-0.024499	0.125141	0.477876	4158.905805	15890.392849	3317.202758	9446.503998
52.035500	-0.002011	-0.023224	-0.001831	0.009428	6395.305817	41134.800400	3917.122944	22232.013996
52.539000	-0.014354	-0.080221	-0.032610	-0.254419	9176.104903	64436.933335	4699.748341	38426.277461
53.036000	-0.017375	-0.098613	-0.032043	-0.279795	9510.238009	65433.888397	4815.755068	40566.464137
53.536000	-0.007412	-0.050945	-0.011177	-0.194562	8450.483088	60255.663203	4540.185527	33846.949474
54.036500	0.007168	-0.032197	-0.001572	-0.168205	8300.654329	59260.186142	4474.916507	32022.188804
54.537000	0.013823	-0.019830	0.008233	-0.101903	7601.232382	52682.668662	4272.467720	27893.072102
55.037500	0.003519	-0.020587	-0.002214	-0.127809	7775.008035	55648.191193	4325.272542	29431.875522
55.535000	0.010664	-0.029011	0.008309	-0.169833	8365.341307	59887.988387	4519.487553	32131.760259
56.035000	0.024959	-0.015723	0.031477	-0.133617	8093.884848	56959.487137	4469.047300	29789.634417
56.535500	0.042711	-0.000901	0.051123	-0.045539	7309.978550	48574.536030	4227.952120	24846.003855
57.036000	0.050906	0.009024	0.065640	0.034920	6626.376054	41733.574141	4028.944263	21127.559976
57.536500	0.067827	0.018728	0.083392	0.081006	6381.131076	38616.161164	3952.291226	19288.216791
58.036500	0.087712	0.029933	0.108427	0.123254	6203.921141	36155.057814	3908.105527	17765.197028
58.537000	0.103762	0.042926	0.122388	0.157956	6062.945684	34535.605036	3857.142647	16620.428866
59.036500	0.122521	0.057390	0.134881	0.175460	6072.244750	34315.188139	3845.188751	16076.773168
59.537500	0.141027	0.069498	0.152030	0.194746	6066.460750	33800.885476	3840.135271	15502.623744
60.037500	0.152032	0.076720	0.161015	0.245687	5783.913230	30845.498052	3745.757026	14103.180439
60.535000	0.158662	0.078468	0.173247	0.246980	5820.184321	30874.717500	3769.490511	14069.741939
61.034500	0.170880	0.087925	0.184837	0.251578	5872.758224	31189.029066	3784.979684	13951.681791
61.535500	0.180063	0.091902	0.192466	0.250367	5945.959662	31528.459074	3804.918893	13982.646188
62.036000	0.182405	0.096342	0.201640	0.293547	5668.145423	29088.820637	3730.383770	12929.820817
62.537000	0.186875	0.103717	0.202675	0.308673	5599.848811	28626.236338	3701.169076	12585.083886
63.036500	0.190954	0.108587	0.202444	0.303591	5658.456080	29221.634946	3711.120236	12699.566727
63.537000	0.197316	0.112886	0.213738	0.301156	5715.919196	29632.321929	3739.891503	12754.898117
64.037000	0.200087	0.114635	0.211818	0.300861	5736.218906	29758.237726	3736.437887	12761.619600
64.540000	0.203960	0.117191	0.215328	0.305417	5731.680640	29634.990491	3734.222303	12658.269180
65.038000	0.203278	0.118536	0.218537	0.302795	5744.587067	29880.016280	3746.644860	12717.627466
65.535500	0.207118	0.121003	0.217671	0.305448	5752.507094	29868.463195	3739.128227	12657.572514
66.035000	0.209122	0.122661	0.216056	0.308277	5746.997804	29795.933572	3729.720730	12593.944738
66.535500	0.212457	0.125230	0.221202	0.314067	5730.674289	29597.525488	3728.367142	12465.024702
67.035500	0.212157	0.126108	0.218890	0.318415	5700.007155	29385.345283	3714.470845	12369.308385
67.537000	0.218393	0.128046	0.222089	0.316412	5754.584867	29626.407745	3725.306465	12413.280638
68.036500	0.221960	0.128862	0.225112	0.317615	5770.436433	29602.654712	3729.128834	12386.856670
68.536500	0.220776	0.129536	0.231195	0.319202	5751.863203	29546.715974	3738.640096	12352.105635
69.037500	0.219411	0.129793	0.229786	0.327333	5689.110615	29068.609750	3718.575330	12176.001668
69.534500	0.225124	0.131765	0.228197	0.323501	5752.192658	29420.189863	3723.254894	12258.590468
70.038000	0.229904	0.133839	0.233334	0.327423	5757.927497	29307.712291	3725.798280	12174.075304
70.535000	0.225187	0.133737	0.234532	0.332632	5692.234859	28987.229898	3717.426415	12063.014978
71.035500	0.224351	0.133673	0.232265	0.335756	5666.431246	28796.719851	3706.296043	11997.030205
71.535500	0.227881	0.136544	0.240052	0.332592	5710.173685	29158.521516	3729.050167	12063.850527
72.036500	0.227820	0.137714	0.233635	0.333670	5702.687860	29164.142729	3713.415985	12041.043908
72.536500	0.228973	0.138165	0.236437	0.335375	5699.068592	29088.495055	3715.687996	12005.065010
73.039500	0.227621	0.138443	0.245229	0.342010	5647.157602	28708.540970	3720.170926	11866.381285
73.536500	0.230840	0.139717	0.235606	0.338745	5689.220153	28979.235713	3707.020019	11934.351230
74.034500	0.229059	0.138873	0.239436	0.338008	5682.401342	28972.820200	3716.445178	11949.763040
74.538000	0.227536	0.138349	0.234706	0.341353	5650.837889	28741.953399	3699.845837	11880.016230
75.034500	0.234862	0.141403	0.241661	0.339120	5713.157856	29057.932500	3718.759259	11926.516280
75.535500	0.231408	0.141055	0.239915	0.337794	5699.166223	29116.823505	3717.885248	11954.241984
76.035500	0.233727	0.142393	0.237004	0.337834	5714.152992	29195.180117	3711.772156	11953.407939
76.536000	0.229456	0.140799	0.239084	0.340460	5669.036208	28941.350150	3710.646289	11898.587407
77.036000	0.234295	0.142950	0.241833	0.335887	5730.792573	29347.027387	3725.871008	11994.278398
77.537000	0.233710	0.141653	0.243238	0.334374	5736.948866	29360.165262	3732.008440	12026.153757
78.037000	0.234543	0.142309	0.238703	0.334201	5743.650036	29410.669281	3722.849251	12029.822960
78.537000	0.232616	0.143885	0.247602	0.337877	5706.558024	29282.918443	3733.827694	11952.503865
79.040000	0.237492	0.143711	0.238940	0.333632	5767.171868	29531.011637	3724.532672	12041.829913
79.535000	0.236245	0.144471	0.242382	0.333204	5761.688370	29603.923367	3732.673442	12050.905329
80.035500	0.235652	0.145029	0.239408	0.333288	5757.146251	29633.017680	3726.234425	12049.113006
80.535500	0.235362	0.144525	0.236292	0.337858	5724.795326	29322.921708	3710.255227	11952.902916
81.036000	0.235261	0.144395	0.242490	0.332337	5760.898971	29652.503904	3734.735824	12069.267869
81.536000	0.235944	0.145634	0.246068	0.333004	5761.000505	29687.709790	3740.917289	12055.122394
82.036000	0.234533	0.144752	0.244147	0.332666	5753.821358	29654.171238	3737.550292	12062.281344
82.537000	0.233206	0.143599	0.240437	0.338488	5706.415332	29228.571488	3717.528888	11939.721043
83.037000	0.232206	0.143636	0.241125	0.338812	5697.725077	29211.254585	3718.285106	11932.961594
83.537500	0.236879	0.145397	0.237013	0.334173	5759.439495	29601.282198	3719.382192	12030.414464
84.035000	0.236467	0.144493	0.246178	0.335054	5750.788470	29491.881937	3736.792663	12011.824307
84.535000	0.234012	0.144174	0.245497	0.341514	5691.860442	29080.647006	3721.764336	11876.676469
85.035000	0.232714	0.143266	0.244752	0.341652	5682.479161	29017.801096	3719.923289	11873.809997
85.536000	0.240866	0.144587	0.241342	0.337482	5763.982701	29349.605970	3721.507610	11960.787649
86.036000	0.239451	0.144494	0.250564	0.338300	5749.036051	29294.213073	3739.215157	11943.654477
86.536500	0.231277	0.142245	0.239847	0.342983	5664.487073	28876.943236	3707.026784	11846.221427
87.036500	0.234612	0.142844	0.246698	0.344092	5678.941911	28846.480273	3718.894577	11823.293431
87.536500	0.235570	0.142531	0.241355	0.338618	5721.153132	29156.183114	3719.168431	11937.014358
88.037000	0.236096	0.141854	0.246414	0.338081	5728.184844	29147.720651	3730.889269	11948.241349
88.537000	0.233877	0.142312	0.246522	0.345686	5663.814920	28719.936859	3715.217285	11790.444152
89.035000	0.231213	0.140535	0.239825	0.344980	5651.164775	28656.469338	3702.890436	11804.983805
89.535500	0.238452	0.143940	0.245265	0.342597	5713.904023	29001.481887	3719.023353	11854.203020
90.035500	0.233599	0.140539	0.247519	0.340909	5693.114824	28898.916050	3727.263068	11889.238289
90.536000	0.234231	0.140903	0.244312	0.341661	5692.330811	28875.748464	3718.986756	11873.615192
91.036500	0.236615	0.139211	0.243697	0.341536	5708.797857	28782.358713	3717.969320	11876.222191
91.536500	0.233153	0.138802	0.246226	0.341685	5685.127305	28749.137191	3722.929949	11873.129392
92.037000	0.235243	0.139628	0.247750	0.343365	5687.804255	28698.461711	3722.604471	11838.318945
92.537000	0.234754	0.138612	0.247501	0.344135	5679.591286	28592.742830	3720.477469	11822.408971
93.037000	0.235430	0.139636	0.252579	0.346131	5671.000490	28535.387065	3726.923923	11781.300936
93.534500	0.233388	0.139151	0.250584	0.346224	5657.170521	28501.333231	3722.551505	11779.395026
94.034500	0.236713	0.138955	0.250039	0.347297	5671.762368	28426.737560	3719.176091	11757.375313
94.535500	0.234077	0.137247	0.249266	0.346942	5656.980644	28347.478177	3718.306589	11764.652632
95.035500	0.235643	0.138258	0.252015	0.349062	5653.405893	28282.664199	3719.616143	11721.286112
95.536000	0.236740	0.138480	0.245417	0.350187	5653.227331	28230.038064	3703.675952	11698.354053
96.036500	0.235813	0.137018	0.248976	0.349919	5648.977661	28160.627665	3711.540751	11703.815915
96.539000	0.237820	0.137834	0.252474	0.352109	5647.796749	28080.948107	3714.242969	11659.317520
