sample name	sample
index	1014
start time	 04-19-2021  11:42:55 AM


Wavelength (nm)	Absorbance
494.344910	0.138717
494.563924	0.138717
494.782919	0.138717
495.001897	-0.039750
495.220856	0.014560
495.439797	-0.003021
495.658719	-0.017995
495.877624	-0.041810
496.096510	-0.040224
496.315378	-0.043181
496.534227	-0.034033
496.753059	-0.026778
496.971872	-0.029246
497.190667	0.055565
497.409444	0.077548
497.628203	0.083808
497.846943	0.087181
498.065665	0.087727
498.284369	0.089833
498.503055	0.092421
498.721723	0.092518
498.940372	0.092871
499.159003	0.091930
499.377616	0.091958
499.596210	0.092324
499.814787	0.093486
500.033345	0.094476
500.251885	0.094550
500.470406	0.093287
500.688910	0.094225
500.907395	0.094786
501.125862	0.095244
501.344311	0.096187
501.562742	0.096290
501.781154	0.096569
501.999548	0.096633
502.217924	0.097238
502.436282	0.097591
502.654621	0.096824
502.872942	0.095862
503.091245	0.096465
503.309530	0.095188
503.527797	0.094612
503.746045	0.095118
503.964275	0.095151
504.182487	0.094824
504.400681	0.094810
504.618856	0.094362
504.837013	0.094798
505.055152	0.094342
505.273273	0.095258
505.491376	0.095726
505.709460	0.094810
505.927526	0.095463
506.145574	0.095355
506.363604	0.095733
506.581615	0.096908
506.799608	0.097192
507.017583	0.097851
507.235540	0.097404
507.453478	0.097899
507.671399	0.098089
507.889301	0.098138
508.107185	0.099347
508.325050	0.099827
508.542898	0.099686
508.760727	0.099418
508.978538	0.099581
509.196330	0.099565
509.414105	0.099600
509.631861	0.100221
509.849599	0.100345
510.067319	0.099452
510.285021	0.099284
510.502704	0.099429
510.720369	0.099158
510.938016	0.098584
511.155645	0.099873
511.373255	0.100045
511.590848	0.099525
511.808422	0.098700
512.025977	0.099643
512.243515	0.099682
512.461034	0.099608
512.678536	0.100499
512.896018	0.099956
513.113483	0.099097
513.330930	0.099006
513.548358	0.099401
513.765768	0.099847
513.983160	0.100117
514.200533	0.099386
514.417889	0.099495
514.635226	0.100053
514.852545	0.100352
515.069845	0.100121
515.287128	0.100223
515.504392	0.099498
515.721638	0.099669
515.938866	0.098983
516.156075	0.099512
516.373267	0.098929
516.590440	0.098578
516.807594	0.099482
517.024731	0.100131
517.241850	0.100088
517.458950	0.100301
517.676032	0.100990
517.893095	0.101209
518.110141	0.101710
518.327168	0.102528
518.544177	0.102127
518.761168	0.101984
518.978141	0.101675
519.195095	0.101857
519.412031	0.101793
519.628949	0.100649
519.845849	0.100485
520.062731	0.100236
520.279594	0.100080
520.496439	0.100276
520.713266	0.100113
520.930074	0.100205
521.146865	0.100437
521.363637	0.100771
521.580391	0.101071
521.797127	0.100670
522.013844	0.101091
522.230543	0.101155
522.447224	0.101450
522.663887	0.102004
522.880532	0.102861
523.097158	0.103372
523.313766	0.103855
523.530356	0.104303
523.746928	0.105077
523.963481	0.105103
524.180017	0.105059
524.396534	0.104930
524.613032	0.105174
524.829513	0.105056
525.045975	0.104470
525.262420	0.104238
525.478845	0.104711
525.695253	0.104710
525.911643	0.104593
526.128014	0.105330
526.344367	0.105942
526.560702	0.105991
526.777018	0.106191
526.993316	0.106903
527.209597	0.106810
527.425858	0.106365
527.642102	0.106375
527.858328	0.106834
528.074535	0.106846
528.290724	0.106601
528.506894	0.106533
528.723047	0.106836
528.939181	0.106270
529.155297	0.106372
529.371395	0.106743
529.587475	0.107523
529.803536	0.107276
530.019579	0.107913
530.235604	0.107849
530.451611	0.108228
530.667600	0.107961
530.883570	0.108822
531.099522	0.110013
531.315456	0.110148
531.531372	0.110744
531.747269	0.111291
531.963148	0.110917
532.179009	0.111824
532.394852	0.112106
532.610676	0.112144
532.826482	0.111936
533.042271	0.111225
533.258040	0.111655
533.473792	0.110557
533.689525	0.110825
533.905240	0.110895
534.120937	0.110709
534.336616	0.110591
534.552277	0.111462
534.767919	0.112041
534.983543	0.112842
535.199149	0.112927
535.414736	0.113766
535.630306	0.113367
535.845857	0.113133
536.061390	0.113444
536.276904	0.113473
536.492401	0.113179
536.707879	0.112830
536.923339	0.112455
537.138781	0.112505
537.354204	0.112206
537.569610	0.112386
537.784997	0.112351
538.000366	0.112488
538.215716	0.112963
538.431049	0.112994
538.646363	0.113413
538.861659	0.113236
539.076937	0.112834
539.292196	0.112792
539.507438	0.113102
539.722661	0.113957
539.937866	0.114030
540.153052	0.114148
540.368221	0.114767
540.583371	0.114071
540.798503	0.114955
541.013617	0.115620
541.228712	0.116028
541.443789	0.115898
541.658848	0.115930
541.873889	0.115848
542.088912	0.115813
542.303916	0.115548
542.518902	0.116516
542.733870	0.116376
542.948820	0.116954
543.163752	0.117419
543.378665	0.118224
543.593560	0.118493
543.808437	0.118628
544.023295	0.118882
544.238136	0.119141
544.452958	0.118939
544.667762	0.119357
544.882548	0.119308
545.097315	0.119502
545.312064	0.119644
545.526795	0.119673
545.741508	0.119739
545.956203	0.120441
546.170879	0.120346
546.385537	0.120835
546.600177	0.120824
546.814799	0.120395
547.029402	0.120133
547.243988	0.119572
547.458555	0.119816
547.673103	0.120445
547.887634	0.120222
548.102146	0.120353
548.316640	0.120248
548.531116	0.120436
548.745574	0.120825
548.960013	0.121055
549.174435	0.121755
549.388838	0.121924
549.603222	0.122064
549.817589	0.121764
550.031937	0.121770
550.246267	0.122170
550.460579	0.122408
550.674873	0.122927
550.889148	0.123122
551.103405	0.122992
551.317644	0.123228
551.531865	0.122752
551.746068	0.122974
551.960252	0.123439
552.174418	0.123666
552.388566	0.123300
552.602696	0.123056
552.816807	0.123279
553.030900	0.123547
553.244975	0.123318
553.459032	0.123716
553.673070	0.123946
553.887091	0.123987
554.101093	0.123948
554.315077	0.124401
554.529042	0.124745
554.742990	0.124866
554.956919	0.124772
555.170830	0.124647
555.384722	0.124639
555.598597	0.124318
555.812453	0.124560
556.026291	0.124571
556.240111	0.125075
556.453913	0.124985
556.667696	0.124965
556.881461	0.125150
557.095208	0.125217
557.308937	0.125575
557.522647	0.126286
557.736339	0.126336
557.950013	0.126558
558.163669	0.126419
558.377307	0.126651
558.590926	0.126805
558.804527	0.127071
559.018110	0.127376
559.231675	0.127616
559.445221	0.127285
559.658749	0.127601
559.872259	0.127553
560.085751	0.127620
560.299225	0.127593
560.512680	0.127611
560.726117	0.127682
560.939536	0.127653
561.152937	0.127467
561.366319	0.127683
561.579683	0.127603
561.793029	0.127930
562.006357	0.128104
562.219667	0.128137
562.432958	0.128646
562.646231	0.128325
562.859486	0.128769
563.072723	0.129263
563.285941	0.129544
563.499141	0.129537
563.712323	0.129490
563.925487	0.129377
564.138632	0.129576
564.351760	0.129291
564.564869	0.129693
564.777960	0.129601
564.991032	0.129862
565.204087	0.129888
565.417123	0.130322
565.630141	0.130499
565.843140	0.130310
566.056122	0.130371
566.269085	0.130745
566.482030	0.131057
566.694957	0.131265
566.907866	0.130877
567.120756	0.130797
567.333628	0.130764
567.546482	0.130339
567.759318	0.130514
567.972135	0.130567
568.184935	0.130578
568.397716	0.130657
568.610478	0.130809
568.823223	0.130849
569.035949	0.131260
569.248657	0.131429
569.461347	0.132441
569.674019	0.132609
569.886672	0.133020
570.099308	0.132854
570.311925	0.132540
570.524523	0.132548
570.737104	0.132950
570.949666	0.132819
571.162210	0.132706
571.374736	0.132320
571.587244	0.132541
571.799733	0.132314
572.012205	0.132417
572.224658	0.133131
572.437092	0.133215
572.649509	0.133405
572.861907	0.133896
573.074287	0.133722
573.286649	0.133395
573.498993	0.133386
573.711318	0.133249
573.923625	0.133365
574.135914	0.132977
574.348185	0.133309
574.560438	0.133189
574.772672	0.132805
574.984888	0.132850
575.197086	0.133176
575.409266	0.133540
575.621427	0.133828
575.833570	0.133827
576.045695	0.133800
576.257802	0.133672
576.469890	0.133600
576.681961	0.133770
576.894013	0.133630
577.106046	0.133919
577.318062	0.133804
577.530059	0.133852
577.742039	0.134043
577.954000	0.134516
578.165942	0.134571
578.377867	0.134897
578.589773	0.134725
578.801661	0.134985
579.013531	0.135142
579.225382	0.135307
579.437216	0.135368
579.649031	0.135293
579.860828	0.135375
580.072606	0.135156
580.284367	0.134895
580.496109	0.135307
580.707833	0.136109
580.919539	0.135917
581.131227	0.136038
581.342896	0.136384
581.554547	0.136901
581.766180	0.136624
581.977795	0.136950
582.189391	0.137223
582.400969	0.137245
582.612529	0.136851
582.824071	0.136736
583.035595	0.136740
583.247100	0.136675
583.458587	0.136580
583.670056	0.136962
583.881506	0.136990
584.092939	0.137538
584.304353	0.137722
584.515749	0.137992
584.727127	0.138451
584.938486	0.138636
585.149828	0.138573
585.361151	0.138425
585.572456	0.138558
585.783742	0.138694
585.995011	0.138316
586.206261	0.138558
586.417493	0.138486
586.628706	0.138538
586.839902	0.138746
587.051079	0.139237
587.262238	0.139590
587.473379	0.139465
587.684502	0.139634
587.895606	0.139556
588.106692	0.139897
588.317760	0.139785
588.528810	0.140191
588.739841	0.140159
588.950855	0.140124
589.161850	0.140295
589.372827	0.140458
589.583785	0.140899
589.794726	0.141125
590.005648	0.140729
590.216552	0.141423
590.427437	0.141002
590.638305	0.141052
590.849154	0.141256
591.059985	0.140851
591.270798	0.140886
591.481592	0.140805
591.692369	0.140617
591.903127	0.140770
592.113867	0.140528
592.324588	0.140943
592.535292	0.140569
592.745977	0.140491
592.956644	0.140882
593.167293	0.140752
593.377923	0.140610
593.588536	0.140946
593.799130	0.141202
594.009706	0.141213
594.220263	0.140914
594.430803	0.141476
594.641324	0.141579
594.851827	0.141549
595.062312	0.141841
595.272778	0.141742
595.483227	0.141964
595.693657	0.141896
595.904069	0.141819
596.114462	0.141838
596.324838	0.141724
596.535195	0.141657
596.745534	0.141936
596.955855	0.141935
597.166157	0.142291
597.376441	0.142084
597.586707	0.142268
597.796955	0.142518
598.007185	0.142837
598.217396	0.143135
598.427589	0.143254
598.637764	0.143212
598.847921	0.142969
599.058060	0.143006
599.268180	0.143083
599.478282	0.142941
599.688366	0.142944
599.898431	0.143413
600.108479	0.143498
600.318508	0.143854
600.528519	0.143710
600.738511	0.144460
600.948486	0.144546
601.158442	0.144617
601.368380	0.144549
601.578300	0.144639
601.788202	0.144260
601.998085	0.144356
602.207950	0.144413
602.417797	0.144773
602.627626	0.144637
602.837436	0.144491
603.047228	0.144727
603.257002	0.145053
603.466758	0.145060
603.676496	0.145146
603.886215	0.144939
604.095916	0.144942
604.305599	0.145040
604.515264	0.145018
604.724910	0.145153
604.934538	0.145332
605.144148	0.145232
605.353740	0.145186
605.563314	0.145321
605.772869	0.145428
605.982406	0.145351
606.191925	0.145266
606.401425	0.145237
606.610908	0.145472
606.820372	0.145269
607.029818	0.145408
607.239246	0.145779
607.448655	0.145786
607.658047	0.146174
607.867420	0.146378
608.076775	0.146689
608.286111	0.147016
608.495430	0.147146
608.704730	0.147313
608.914012	0.147233
609.123275	0.147141
609.332521	0.147298
609.541748	0.147100
609.750957	0.146961
609.960148	0.146863
610.169321	0.146870
610.378475	0.146699
610.587611	0.146791
610.796729	0.147172
611.005829	0.147377
611.214910	0.147408
611.423974	0.147681
611.633019	0.147642
611.842045	0.147706
612.051054	0.147901
612.260044	0.148444
612.469017	0.148655
612.677970	0.148553
612.886906	0.148608
613.095824	0.148583
613.304723	0.148506
613.513604	0.148902
613.722467	0.148965
613.931311	0.148965
614.140138	0.148659
614.348946	0.148502
614.557736	0.148537
614.766507	0.148903
614.975261	0.149279
615.183996	0.149360
615.392713	0.149580
615.601412	0.149522
615.810092	0.149449
616.018754	0.149731
616.227399	0.150145
616.436024	0.150338
616.644632	0.150147
616.853222	0.149985
617.061793	0.150073
617.270346	0.150029
617.478880	0.150193
617.687397	0.150260
617.895895	0.150088
618.104375	0.149976
618.312837	0.150009
618.521281	0.150145
618.729706	0.150220
618.938113	0.150210
619.146502	0.150245
619.354873	0.150490
619.563226	0.150437
619.771560	0.150636
619.979876	0.150459
620.188174	0.150477
620.396453	0.150555
620.604715	0.150851
620.812958	0.150905
621.021183	0.151102
621.229390	0.151010
621.437578	0.151104
621.645748	0.151325
621.853900	0.151703
622.062034	0.151834
622.270150	0.151696
622.478247	0.151527
622.686326	0.151812
622.894387	0.151890
623.102430	0.152103
623.310454	0.152428
623.518461	0.152290
623.726449	0.152558
623.934418	0.152724
624.142370	0.152874
624.350303	0.153021
624.558218	0.153126
624.766115	0.152874
624.973994	0.152983
625.181855	0.153031
625.389697	0.152869
625.597521	0.152746
625.805327	0.152608
626.013114	0.152886
626.220883	0.152676
626.428634	0.152572
626.636367	0.152677
626.844082	0.152554
627.051778	0.152570
627.259457	0.152848
627.467117	0.152806
627.674758	0.152886
627.882382	0.152655
628.089987	0.152703
628.297574	0.152749
628.505143	0.153015
628.712694	0.153118
628.920226	0.153274
629.127740	0.153641
629.335236	0.153740
629.542714	0.154024
629.750174	0.154295
629.957615	0.154912
630.165038	0.155132
630.372443	0.155152
630.579829	0.155584
630.787198	0.155603
630.994548	0.155464
631.201880	0.155429
631.409194	0.155590
631.616489	0.155479
631.823766	0.155253
632.031025	0.155223
632.238266	0.155030
632.445489	0.154735
632.652693	0.154664
632.859879	0.154771
633.067047	0.154910
633.274197	0.154822
633.481329	0.154947
633.688442	0.154952
633.895537	0.155039
634.102614	0.155175
634.309672	0.155371
634.516713	0.155569
634.723735	0.155478
634.930739	0.155578
635.137724	0.155597
635.344692	0.155817
635.551641	0.156095
635.758572	0.156139
635.965485	0.156641
636.172379	0.156747
636.379256	0.156817
636.586114	0.157206
636.792954	0.157106
636.999775	0.157162
637.206579	0.157088
637.413364	0.157263
637.620131	0.157175
637.826880	0.156818
638.033610	0.156633
638.240323	0.156596
638.447017	0.156310
638.653692	0.156596
638.860350	0.156906
639.066990	0.157087
639.273611	0.156912
639.480214	0.157321
639.686798	0.157614
639.893365	0.157961
640.099913	0.158080
640.306443	0.158376
640.512955	0.158400
640.719449	0.158197
640.925924	0.158238
641.132381	0.158359
641.338820	0.158182
641.545241	0.158230
641.751644	0.158217
641.958028	0.158335
642.164394	0.158390
642.370742	0.158303
642.577071	0.158544
642.783383	0.158713
642.989676	0.158868
643.195951	0.159059
643.402207	0.159264
643.608446	0.159438
643.814666	0.159428
644.020868	0.159462
644.227052	0.159903
644.433218	0.160007
644.639365	0.159898
644.845494	0.160006
645.051605	0.160020
645.257698	0.159860
645.463772	0.160052
645.669828	0.160499
645.875866	0.160462
646.081886	0.160220
646.287888	0.160283
646.493871	0.160400
646.699836	0.160436
646.905783	0.160601
647.111712	0.160770
647.317622	0.160627
647.523514	0.160341
647.729388	0.160687
647.935244	0.161020
648.141082	0.161067
648.346901	0.161239
648.552702	0.161317
648.758485	0.161342
648.964250	0.161500
649.169996	0.161558
649.375724	0.161837
649.581434	0.161809
649.787126	0.161726
649.992800	0.161770
650.198455	0.161823
650.404092	0.161796
650.609711	0.161879
650.815311	0.161926
651.020894	0.162137
651.226458	0.162091
651.432004	0.162294
651.637532	0.162488
651.843041	0.162485
652.048532	0.162499
652.254006	0.162693
652.459460	0.162609
652.664897	0.162603
652.870315	0.162624
653.075716	0.162872
653.281097	0.162856
653.486461	0.162755
653.691807	0.162847
653.897134	0.162929
654.102443	0.163028
654.307734	0.163399
654.513006	0.163568
654.718261	0.163606
654.923497	0.163598
655.128715	0.163623
655.333915	0.163990
655.539096	0.164160
655.744259	0.164320
655.949404	0.164326
656.154531	0.164457
656.359640	0.164593
656.564730	0.164687
656.769802	0.164888
656.974856	0.164888
657.179892	0.165010
657.384909	0.165151
657.589908	0.165273
657.794889	0.165473
657.999852	0.165599
658.204797	0.165679
658.409723	0.166004
658.614631	0.165976
658.819521	0.166340
659.024393	0.166297
659.229246	0.166444
659.434081	0.166471
659.638898	0.166836
659.843697	0.166510
660.048478	0.166673
660.253240	0.166455
660.457984	0.166571
660.662710	0.166723
660.867417	0.166741
661.072107	0.166929
661.276778	0.167056
661.481431	0.166957
661.686066	0.167475
661.890682	0.167552
662.095281	0.167727
662.299861	0.167986
662.504422	0.168000
662.708966	0.168203
662.913491	0.168118
663.117999	0.168180
663.322488	0.168245
663.526958	0.168188
663.731411	0.168174
663.935845	0.168289
664.140261	0.168284
664.344659	0.168182
664.549038	0.168084
664.753400	0.168349
664.957743	0.168335
665.162068	0.168387
665.366375	0.168537
665.570663	0.168655
665.774933	0.168794
665.979185	0.168787
666.183419	0.169081
666.387635	0.169317
666.591832	0.169461
666.796011	0.169616
667.000172	0.169851
667.204315	0.169901
667.408439	0.170123
667.612545	0.170075
667.816634	0.170359
668.020703	0.170426
668.224755	0.170554
668.428788	0.170566
668.632803	0.170766
668.836800	0.170909
669.040779	0.171109
669.244739	0.171108
669.448681	0.171415
669.652605	0.171493
669.856511	0.171490
670.060399	0.171636
670.264268	0.171620
670.468119	0.171691
670.671952	0.171505
670.875767	0.171607
671.079563	0.171816
671.283341	0.171990
671.487101	0.171878
671.690843	0.172015
671.894567	0.172020
672.098272	0.172342
672.301959	0.172621
672.505628	0.172755
672.709278	0.172761
672.912911	0.172764
673.116525	0.172678
673.320121	0.172753
673.523699	0.172909
673.727258	0.172991
673.930799	0.173002
674.134322	0.172924
674.337827	0.173076
674.541314	0.173197
674.744782	0.173379
674.948232	0.173586
675.151664	0.173744
675.355078	0.173690
675.558474	0.174023
675.761851	0.174093
675.965210	0.174283
676.168551	0.174439
676.371873	0.174500
676.575178	0.174447
676.778464	0.174500
676.981732	0.174718
677.184981	0.174829
677.388213	0.174939
677.591426	0.175069
677.794621	0.175170
677.997798	0.175215
678.200956	0.175069
678.404097	0.175327
678.607219	0.175658
678.810323	0.175895
679.013408	0.176221
679.216476	0.176411
679.419525	0.176646
679.622556	0.176790
679.825569	0.177060
680.028563	0.177479
680.231540	0.177572
680.434498	0.177460
680.637438	0.177587
680.840359	0.177646
681.043263	0.177538
681.246148	0.177589
681.449015	0.177610
681.651864	0.177565
681.854694	0.177762
682.057506	0.177929
682.260301	0.178073
682.463076	0.178032
682.665834	0.178040
682.868573	0.178176
683.071295	0.178198
683.273998	0.178373
683.476682	0.178492
683.679349	0.178324
683.881997	0.178416
684.084627	0.178559
684.287239	0.178790
684.489833	0.178929
684.692408	0.179050
684.894965	0.179032
685.097504	0.179091
685.300025	0.179150
685.502527	0.179477
685.705012	0.179429
685.907478	0.179444
686.109925	0.179379
686.312355	0.179531
686.514766	0.179691
686.717159	0.179851
686.919534	0.179982
687.121891	0.179998
687.324230	0.179962
687.526550	0.180027
687.728852	0.179998
687.931136	0.180042
688.133401	0.180002
688.335649	0.179929
688.537878	0.179996
688.740089	0.179888
688.942281	0.180151
689.144456	0.180371
689.346612	0.180356
689.548750	0.180505
689.750870	0.180634
689.952971	0.180723
690.155055	0.180701
690.357120	0.180663
690.559167	0.180851
690.761195	0.180798
690.963206	0.180751
691.165198	0.180939
691.367172	0.181071
691.569128	0.181088
691.771065	0.181321
691.972984	0.181399
692.174885	0.181536
692.376768	0.181660
692.578633	0.181771
692.780479	0.181834
692.982308	0.181971
693.184118	0.182006
693.385909	0.182049
693.587683	0.181980
693.789438	0.182123
693.991175	0.182009
694.192894	0.182071
694.394595	0.182061
694.596277	0.182032
694.797941	0.181915
694.999587	0.182060
695.201215	0.182323
695.402824	0.182442
695.604416	0.182635
695.805989	0.183180
696.007543	0.183366
696.209080	0.183499
696.410598	0.183553
696.612099	0.183755
696.813580	0.183720
697.015044	0.183605
697.216490	0.183644
697.417917	0.183635
697.619326	0.183471
697.820717	0.183399
698.022089	0.183394
698.223444	0.183581
698.424780	0.183682
698.626098	0.183686
698.827397	0.183935
699.028679	0.184026
699.229942	0.183789
699.431187	0.183717
699.632414	0.183862
699.833622	0.183913
700.034813	0.184129
700.235985	0.184018
700.437139	0.184158
700.638274	0.184273
700.839392	0.184412
701.040491	0.184890
701.241572	0.185013
701.442635	0.185004
701.643679	0.185360
701.844706	0.185302
702.045714	0.185380
702.246704	0.185428
702.447675	0.185252
702.648629	0.185251
702.849564	0.185095
703.050481	0.185212
703.251380	0.185064
703.452260	0.184886
703.653122	0.184678
703.853966	0.184847
704.054792	0.184909
704.255600	0.184808
704.456389	0.184713
704.657160	0.184828
704.857913	0.184718
705.058648	0.184821
705.259365	0.184706
705.460063	0.184771
705.660743	0.184570
705.861405	0.184506
706.062048	0.184580
706.262674	0.184511
706.463281	0.184363
706.663870	0.184525
706.864441	0.184616
707.064993	0.184664
707.265527	0.184763
707.466043	0.185050
707.666541	0.185082
707.867021	0.185194
708.067482	0.185246
708.267925	0.185452
708.468350	0.185581
708.668757	0.185553
708.869145	0.185542
709.069516	0.185509
709.269868	0.185273
709.470201	0.185371
709.670517	0.185374
709.870814	0.185419
710.071093	0.185299
710.271354	0.185027
710.471597	0.184955
710.671821	0.185099
710.872028	0.185179
711.072216	0.185267
711.272385	0.185014
711.472537	0.185190
711.672670	0.185134
711.872785	0.184969
712.072882	0.185092
712.272961	0.185095
712.473021	0.185050
712.673063	0.184925
712.873087	0.184814
713.073093	0.185114
713.273081	0.184950
713.473050	0.185060
713.673001	0.185285
713.872934	0.185245
714.072849	0.185496
714.272745	0.185500
714.472623	0.185771
714.672483	0.185890
714.872325	0.185772
715.072148	0.185783
715.271954	0.185663
715.471741	0.185799
715.671509	0.185790
715.871260	0.185418
716.070992	0.185471
716.270707	0.185291
716.470403	0.185333
716.670080	0.185217
716.869740	0.185109
717.069381	0.185206
717.269004	0.185182
717.468609	0.185167
717.668195	0.185319
717.867764	0.185204
718.067314	0.185036
718.266846	0.185054
718.466360	0.185026
718.665855	0.185068
718.865332	0.184921
719.064791	0.184485
719.264232	0.184355
719.463655	0.184382
719.663059	0.184232
719.862445	0.184497
720.061813	0.184365
720.261163	0.184488
720.460494	0.184325
720.659807	0.184349
720.859102	0.184598
721.058379	0.184583
721.257638	0.184363
721.456878	0.184466
721.656100	0.184380
721.855304	0.184455
722.054490	0.184411
722.253657	0.184516
722.452806	0.184731
722.651937	0.184579
722.851050	0.184609
723.050145	0.184945
723.249221	0.184866
723.448279	0.184625
723.647319	0.184305
723.846340	0.184017
724.045344	0.183762
724.244329	0.183373
724.443296	0.183379
724.642245	0.183478
724.841175	0.183056
725.040088	0.183052
725.238982	0.182958
725.437857	0.182939
725.636715	0.182979
725.835554	0.182795
726.034376	0.182731
726.233179	0.182619
726.431963	0.182373
726.630730	0.182242
726.829478	0.182213
727.028208	0.182374
727.226920	0.182316
727.425614	0.182328
727.624289	0.182457
727.822946	0.182564
728.021585	0.182373
728.220206	0.182282
728.418808	0.182313
728.617392	0.182183
728.815958	0.182110
729.014506	0.182101
729.213036	0.182040
729.411547	0.181980
729.610040	0.181903
729.808515	0.181982
730.006972	0.181750
730.205410	0.181652
730.403831	0.181397
730.602233	0.181212
730.800616	0.181165
730.998982	0.180846
731.197329	0.180748
731.395658	0.180387
731.593969	0.180272
731.792262	0.180344
731.990536	0.180450
732.188793	0.180455
732.387031	0.180524
732.585250	0.180469
732.783452	0.180545
732.981635	0.180557
733.179800	0.180499
733.377947	0.180434
733.576076	0.180230
733.774186	0.180005
733.972278	0.180101
734.170352	0.179821
734.368408	0.179961
734.566446	0.179921
734.764465	0.179767
734.962466	0.179861
735.160449	0.179525
735.358413	0.179462
735.556360	0.179429
735.754288	0.179193
735.952198	0.178955
736.150090	0.178774
736.347963	0.178511
736.545818	0.178349
736.743655	0.178049
736.941474	0.178136
737.139275	0.178082
737.337057	0.177953
737.534821	0.177937
737.732567	0.178165
737.930295	0.177905
738.128005	0.177902
738.325696	0.177623
738.523369	0.177738
738.721024	0.177373
738.918660	0.177256
739.116279	0.177182
739.313879	0.177155
739.511461	0.176938
739.709024	0.176884
739.906570	0.176868
740.104097	0.176998
740.301606	0.176715
740.499097	0.176684
740.696569	0.176506
740.894024	0.176463
741.091460	0.175952
741.288878	0.175716
741.486277	0.175419
741.683659	0.175148
741.881022	0.174871
742.078367	0.174762
742.275694	0.174899
742.473002	0.174912
742.670293	0.174706
742.867565	0.174547
743.064819	0.174430
743.262054	0.174463
743.459272	0.174591
743.656471	0.174623
743.853652	0.174676
744.050815	0.174670
744.247959	0.174729
744.445085	0.174562
744.642194	0.174727
744.839283	0.174542
745.036355	0.174326
745.233408	0.174088
745.430444	0.174007
745.627461	0.173937
745.824459	0.173790
746.021440	0.173383
746.218402	0.173173
746.415346	0.173220
746.612272	0.173263
746.809180	0.173311
747.006069	0.173295
747.202940	0.173145
747.399793	0.172943
747.596628	0.172919
747.793444	0.172877
747.990243	0.172808
748.187023	0.172410
748.383784	0.172476
748.580528	0.172274
748.777253	0.171902
748.973960	0.171856
749.170649	0.171809
749.367320	0.171528
749.563973	0.171673
749.760607	0.171491
749.957223	0.171530
750.153821	0.171194
750.350400	0.171188
750.546962	0.171173
750.743505	0.171062
750.940030	0.170904
751.136536	0.170829
751.333025	0.170436
751.529495	0.170487
751.725947	0.170518
751.922381	0.170397
752.118796	0.170285
752.315194	0.170419
752.511573	0.170433
752.707934	0.170483
752.904276	0.170462
753.100601	0.170427
753.296907	0.170378
753.493195	0.170253
753.689465	0.170357
753.885716	0.170309
754.081949	0.170197
754.278164	0.170051
754.474361	0.170058
754.670540	0.169999
754.866700	0.170076
755.062843	0.170061
755.258967	0.170199
755.455072	0.170077
755.651160	0.170160
755.847229	0.170292
756.043280	0.170231
756.239313	0.170080
756.435328	0.170132
756.631324	0.170056
756.827302	0.170109
757.023262	0.169810
757.219204	0.169718
757.415127	0.169475
757.611033	0.169187
757.806920	0.169049
758.002788	0.168991
758.198639	0.168817
758.394471	0.168876
758.590286	0.168937
758.786081	0.169060
758.981859	0.169113
759.177619	0.168912
759.373360	0.168509
759.569083	0.168248
759.764788	0.168129
759.960474	0.167841
760.156143	0.167640
760.351793	0.167249
760.547425	0.167122
760.743038	0.166852
760.938634	0.166844
761.134211	0.167206
761.329770	0.167521
761.525311	0.167509
761.720833	0.167561
761.916338	0.167682
762.111824	0.167663
762.307292	0.167376
762.502741	0.167521
762.698173	0.167530
762.893586	0.167375
763.088981	0.167140
763.284358	0.166816
763.479716	0.166796
763.675057	0.166478
763.870379	0.166381
764.065683	0.166411
764.260968	0.166093
764.456236	0.166018
764.651485	0.165877
764.846716	0.165684
765.041929	0.165793
765.237123	0.165778
765.432299	0.165754
765.627457	0.165973
765.822597	0.165860
766.017719	0.166054
766.212822	0.165861
766.407907	0.165658
766.602974	0.165824
766.798023	0.165822
766.993054	0.165701
767.188066	0.165673
767.383060	0.165324
767.578036	0.165272
767.772993	0.165165
767.967933	0.165051
768.162854	0.165028
768.357757	0.164994
768.552642	0.164870
768.747508	0.164728
768.942356	0.164611
769.137186	0.164560
769.331998	0.164664
769.526792	0.164582
769.721567	0.164701
769.916324	0.164793
770.111063	0.164885
770.305784	0.165113
770.500486	0.165262
770.695171	0.165294
770.889837	0.165279
771.084484	0.165289
771.279114	0.165169
771.473725	0.165087
771.668318	0.165091
771.862893	0.164827
772.057450	0.164635
772.251988	0.164728
772.446509	0.164570
772.641011	0.164699
772.835494	0.164589
773.029960	0.164769
773.224407	0.164854
773.418836	0.164819
773.613247	0.164840
773.807640	0.165032
774.002014	0.164893
774.196370	0.165001
774.390708	0.165048
774.585028	0.164972
774.779330	0.164996
774.973613	0.164840
775.167878	0.164763
775.362125	0.164721
775.556354	0.164446
775.750564	0.164190
775.944756	0.163999
776.138930	0.163830
776.333086	0.163963
776.527223	0.163611
776.721343	0.163651
776.915444	0.163651
777.109526	0.163711
777.303591	0.163568
777.497637	0.163966
777.691666	0.163933
777.885676	0.163933
778.079667	0.163729
778.273641	0.163859
778.467596	0.163839
778.661533	0.163829
778.855452	0.163888
779.049352	0.164062
779.243235	0.163870
779.437099	0.164200
779.630945	0.164107
779.824773	0.164144
780.018582	0.164168
780.212373	0.164410
780.406146	0.164593
780.599901	0.164489
780.793638	0.164342
780.987356	0.164348
781.181056	0.164114
781.374738	0.164271
781.568402	0.164379
781.762047	0.164412
781.955674	0.164416
782.149283	0.164422
782.342874	0.164485
782.536447	0.164699
782.730001	0.164745
782.923537	0.164816
783.117055	0.164935
783.310555	0.164908
783.504036	0.165026
783.697499	0.164930
783.890944	0.164700
784.084371	0.164843
784.277780	0.164812
784.471170	0.164841
784.664542	0.165063
784.857896	0.164776
785.051231	0.165015
785.244549	0.164922
785.437848	0.165007
785.631129	0.165383
785.824392	0.165183
786.017636	0.165229
786.210863	0.165255
786.404071	0.165204
786.597260	0.165472
786.790432	0.165290
786.983585	0.165473
787.176721	0.165695
787.369838	0.165511
787.562936	0.165726
787.756017	0.165896
787.949079	0.165838
788.142123	0.166253
788.335149	0.166364
788.528156	0.166510
788.721146	0.166524
788.914117	0.166532
789.107070	0.166560
789.300005	0.166547
789.492921	0.166501
789.685819	0.166798
789.878699	0.166399
790.071561	0.166401
790.264405	0.166563
790.457230	0.166553
790.650037	0.166502
790.842826	0.166597
791.035597	0.166555
791.228349	0.166630
791.421084	0.166651
791.613800	0.166854
791.806497	0.167057
791.999177	0.167054
792.191838	0.167367
792.384481	0.167353
792.577106	0.167620
792.769713	0.167867
792.962301	0.168003
793.154871	0.168133
793.347423	0.168186
793.539957	0.168194
793.732473	0.168099
793.924970	0.168191
794.117449	0.168461
794.309910	0.168616
794.502353	0.168968
794.694777	0.169015
794.887183	0.169109
795.079571	0.169345
795.271941	0.169520
795.464293	0.169823
795.656626	0.169830
795.848941	0.169830
796.041238	0.169718
796.233516	0.169550
796.425777	0.169693
796.618019	0.169762
796.810243	0.169706
797.002449	0.169857
797.194636	0.169785
797.386805	0.169708
797.578956	0.169643
797.771089	0.169879
797.963204	0.170100
798.155300	0.170238
798.347378	0.169994
798.539438	0.170138
798.731480	0.169907
798.923503	0.170265
799.115509	0.170590
799.307496	0.170946
799.499465	0.171096
799.691415	0.171266
799.883348	0.171681
800.075262	0.172338
800.267158	0.172447
800.459035	0.172910
800.650895	0.172728
800.842736	0.172783
801.034559	0.172979
801.226364	0.173158
801.418150	0.173271
801.609919	0.173111
801.801669	0.172851
801.993401	0.173108
802.185114	0.173199
802.376810	0.173542
802.568487	0.173634
802.760146	0.173708
802.951787	0.173858
803.143409	0.173964
803.335014	0.174118
803.526600	0.174387
803.718168	0.174424
803.909717	0.174381
804.101249	0.174534
804.292762	0.175051
804.484257	0.175159
804.675734	0.175250
804.867192	0.175463
805.058632	0.175624
805.250054	0.175972
805.441458	0.176195
805.632844	0.176448
805.824211	0.176499
806.015561	0.176270
806.206891	0.176483
806.398204	0.176563
806.589499	0.176779
806.780775	0.176740
806.972033	0.176683
807.163273	0.176778
807.354495	0.176953
807.545698	0.177120
807.736883	0.177238
807.928050	0.177281
808.119199	0.177577
808.310329	0.177675
808.501441	0.178004
808.692535	0.178247
808.883611	0.178320
809.074669	0.178333
809.265708	0.178793
809.456729	0.179113
809.647732	0.179604
809.838717	0.179777
810.029683	0.179792
810.220632	0.180005
810.411562	0.180078
810.602474	0.180426
810.793367	0.180688
810.984242	0.180642
811.175100	0.181086
811.365938	0.180938
811.556759	0.180971
811.747562	0.181227
811.938346	0.181551
812.129112	0.181721
812.319860	0.182015
812.510589	0.182396
812.701300	0.182598
812.891994	0.182606
813.082668	0.182813
813.273325	0.183208
813.463964	0.183198
813.654584	0.183419
813.845186	0.183797
814.035769	0.183961
814.226335	0.184103
814.416882	0.184401
814.607411	0.184374
814.797922	0.184473
814.988415	0.184467
815.178889	0.185015
815.369345	0.184924
815.559783	0.185006
815.750203	0.185060
815.940605	0.185138
816.130988	0.185314
816.321353	0.185709
816.511700	0.186136
816.702028	0.186412
816.892339	0.186485
817.082631	0.186663
817.272905	0.187277
817.463161	0.187531
817.653398	0.187850
817.843617	0.188418
818.033819	0.188586
818.224001	0.188862
818.414166	0.189003
818.604312	0.189099
818.794440	0.189626
818.984550	0.189524
819.174642	0.190000
819.364716	0.190175
819.554771	0.190113
819.744808	0.190381
819.934827	0.190491
820.124827	0.190876
820.314810	0.191282
820.504774	0.191432
820.694720	0.191673
820.884647	0.191379
821.074557	0.191724
821.264448	0.191903
821.454321	0.192226
821.644176	0.192459
821.834012	0.192670
822.023831	0.192691
822.213631	0.192839
822.403413	0.192868
822.593176	0.193438
822.782922	0.193785
822.972649	0.194204
823.162358	0.194308
823.352049	0.194696
823.541721	0.194848
823.731376	0.195107
823.921012	0.195024
824.110629	0.195506
824.300229	0.195875
824.489811	0.195791
824.679374	0.195784
824.868919	0.196175
825.058445	0.196189
825.247954	0.196341
825.437444	0.196907
825.626916	0.197527
825.816370	0.197660
826.005806	0.197585
826.195223	0.198030
826.384622	0.198478
826.574003	0.198706
826.763366	0.199364
826.952711	0.199652
827.142037	0.199681
827.331345	0.200021
827.520635	0.200202
827.709906	0.200360
827.899160	0.200512
828.088395	0.200578
828.277612	0.200822
828.466810	0.200744
828.655991	0.201126
828.845153	0.201488
829.034297	0.201520
829.223423	0.201669
829.412531	0.202121
829.601620	0.202229
829.790691	0.202426
829.979744	0.202599
830.168779	0.202720
830.357795	0.202764
830.546793	0.202786
830.735773	0.202957
830.924735	0.203101
831.113679	0.203156
831.302604	0.203431
831.491511	0.203805
831.680400	0.204028
831.869271	0.204403
832.058123	0.204620
832.246957	0.205063
832.435773	0.205471
832.624571	0.205997
832.813351	0.206279
833.002112	0.206751
833.190855	0.206731
833.379580	0.207035
833.568287	0.207391
833.756975	0.207863
833.945645	0.208281
834.134297	0.208531
834.322931	0.208740
834.511547	0.209185
834.700144	0.209234
834.888723	0.209528
835.077284	0.209633
835.265826	0.209845
835.454351	0.210132
835.642857	0.210536
835.831345	0.210819
836.019815	0.211430
836.208266	0.211548
836.396699	0.211997
836.585114	0.212430
836.773511	0.212608
836.961890	0.212960
837.150250	0.213157
837.338592	0.213274
837.526916	0.213827
837.715222	0.213757
837.903510	0.214446
838.091779	0.214692
838.280030	0.214816
838.468263	0.215214
838.656477	0.215572
838.844674	0.215882
839.032852	0.216136
839.221012	0.216011
839.409153	0.216147
839.597277	0.216173
839.785382	0.216452
839.973469	0.216905
840.161538	0.217327
840.349589	0.217425
840.537621	0.217531
840.725635	0.217533
840.913631	0.217840
841.101609	0.218309
841.289568	0.218849
841.477509	0.219052
841.665432	0.219210
841.853337	0.219366
842.041224	0.219460
842.229092	0.219936
842.416942	0.220161
842.604774	0.220775
842.792588	0.221411
842.980383	0.221567
843.168160	0.222079
843.355919	0.222487
843.543660	0.222944
843.731382	0.223364
843.919087	0.223824
844.106773	0.224337
844.294441	0.224321
844.482090	0.224504
844.669722	0.224864
844.857335	0.225014
845.044930	0.225388
845.232507	0.225428
845.420065	0.225626
845.607605	0.225917
845.795127	0.226236
845.982631	0.226646
846.170117	0.226866
846.357584	0.227119
846.545033	0.227566
846.732464	0.227737
846.919877	0.228065
847.107272	0.228431
847.294648	0.228747
847.482006	0.229000
847.669346	0.229564
847.856667	0.229727
848.043971	0.229631
848.231256	0.229868
848.418523	0.230254
848.605771	0.230897
848.793002	0.231259
848.980214	0.231320
849.167408	0.231743
849.354584	0.231830
849.541742	0.232501
849.728881	0.232982
849.916002	0.233280
850.103105	0.233516
850.290190	0.233758
850.477256	0.234243
850.664304	0.234683
850.851334	0.234711
851.038346	0.234928
851.225340	0.234768
851.412315	0.234915
851.599272	0.234941
851.786211	0.235308
851.973132	0.235423
852.160034	0.235722
852.346918	0.236116
852.533784	0.236360
852.720632	0.236609
852.907462	0.237188
853.094273	0.237761
853.281066	0.238211
853.467841	0.238308
853.654598	0.238789
853.841336	0.239021
854.028056	0.239186
854.214758	0.239581
854.401442	0.239653
854.588107	0.239769
854.774755	0.239862
854.961384	0.240145
855.147995	0.240359
855.334587	0.240329
855.521162	0.240399
855.707718	0.240530
855.894256	0.240775
856.080775	0.241065
856.267277	0.241201
856.453760	0.241639
856.640225	0.241863
856.826672	0.242267
857.013101	0.242461
857.199511	0.242892
857.385903	0.243236
857.572277	0.243504
857.758633	0.244104
857.944970	0.244512
858.131290	0.244709
858.317591	0.244876
858.503873	0.245038
858.690138	0.245552
858.876384	0.245748
859.062612	0.245861
859.248822	0.246085
859.435014	0.246197
859.621188	0.246253
859.807343	0.246587
859.993480	0.246894
860.179599	0.247156
860.365699	0.247284
860.551781	0.247287
860.737846	0.247630
860.923891	0.247892
861.109919	0.248284
861.295929	0.248496
861.481920	0.248669
861.667893	0.249030
861.853848	0.249436
862.039784	0.249364
862.225702	0.249673
862.411603	0.250104
862.597484	0.250253
862.783348	0.250664
862.969193	0.250964
863.155021	0.250983
863.340830	0.251208
863.526620	0.251630
863.712393	0.252130
863.898147	0.252476
864.083883	0.252127
864.269601	0.252466
864.455301	0.252213
864.640982	0.252430
864.826645	0.252910
865.012290	0.252861
865.197917	0.253157
865.383526	0.253506
865.569116	0.253647
865.754688	0.253972
865.940242	0.254308
866.125777	0.254865
866.311295	0.255290
866.496794	0.255513
866.682275	0.256062
866.867737	0.255941
867.053182	0.256096
867.238608	0.256387
867.424016	0.256764
867.609406	0.256907
867.794778	0.256603
867.980131	0.256549
868.165466	0.256453
868.350783	0.256929
868.536082	0.256856
868.721362	0.257038
868.906625	0.257186
869.091869	0.257723
869.277094	0.257951
869.462302	0.258393
869.647491	0.258958
869.832662	0.259377
870.017815	0.258886
870.202950	0.259359
870.388066	0.259580
870.573165	0.259229
870.758245	0.258981
870.943306	0.259203
871.128350	0.259544
871.313375	0.259314
871.498382	0.259729
871.683371	0.260027
871.868342	0.260409
872.053294	0.260759
872.238229	0.261345
872.423144	0.261493
872.608042	0.261847
872.792922	0.262034
872.977783	0.262418
873.162626	0.262374
873.347451	0.262882
873.532258	0.262540
873.717046	0.262518
873.901816	0.263021
874.086568	0.263776
874.271302	0.263689
874.456017	0.263751
874.640715	0.263980
874.825394	0.264110
875.010055	0.263806
875.194697	0.264351
875.379322	0.264532
875.563928	0.264938
875.748516	0.265013
875.933085	0.265009
876.117637	0.265120
876.302170	0.265144
876.486685	0.265295
876.671182	0.265831
876.855661	0.266253
877.040121	0.266290
877.224563	0.266087
877.408987	0.266032
877.593393	0.266013
877.777780	0.266309
877.962150	0.266482
878.146501	0.266288
878.330833	0.266799
878.515148	0.266808
878.699444	0.267233
878.883722	0.267510
879.067982	0.267548
879.252224	0.268366
879.436447	0.268816
879.620653	0.269290
879.804840	0.269982
879.989008	0.269328
880.173159	0.269220
880.357291	0.269310
880.541405	0.269269
880.725501	0.269538
880.909579	0.269011
881.093638	0.268613
881.277680	0.268869
881.461703	0.269117
881.645707	0.269847
881.829694	0.270031
882.013662	0.270215
882.197612	0.270548
882.381544	0.270523
882.565458	0.271008
882.749353	0.271113
882.933230	0.270982
883.117089	0.270592
883.300930	0.270388
883.484753	0.270558
883.668557	0.270600
883.852343	0.270607
884.036111	0.270917
884.219861	0.270748
884.403592	0.270730
884.587305	0.270387
884.771000	0.270589
884.954677	0.270394
885.138335	0.270210
885.321976	0.269731
885.505598	0.269775
885.689201	0.269699
885.872787	0.269850
886.056354	0.270160
886.239904	0.270450
886.423434	0.270566
886.606947	0.270594
886.790442	0.270531
886.973918	0.270623
887.157376	0.270827
887.340816	0.270619
887.524237	0.270750
887.707641	0.270892
887.891026	0.270936
888.074393	0.270565
888.257741	0.270956
888.441072	0.271434
888.624384	0.271680
888.807678	0.271313
888.990954	0.271097
889.174211	0.270603
889.357451	0.270738
889.540672	0.270664
889.723875	0.270831
889.907059	0.270695
890.090226	0.269976
890.273374	0.269713
890.456504	0.269634
890.639616	0.269928
890.822709	0.270192
891.005785	0.269898
891.188842	0.269975
891.371881	0.269963
891.554901	0.269692
891.737904	0.269819
891.920888	0.269978
892.103854	0.270050
892.286802	0.269896
892.469731	0.270081
892.652643	0.269571
892.835536	0.269650
893.018410	0.269751
893.201267	0.270006
893.384106	0.270334
893.566926	0.270504
893.749728	0.270491
893.932511	0.270699
894.115277	0.270414
894.298024	0.270708
894.480753	0.270553
894.663464	0.270564
894.846157	0.270284
895.028831	0.270215
895.211487	0.270295
895.394125	0.269744
895.576745	0.269580
895.759346	0.269432
895.941930	0.269162
896.124495	0.269030
896.307041	0.268939
896.489570	0.268764
896.672080	0.268527
896.854573	0.267633
897.037046	0.267879
897.219502	0.267751
897.401940	0.267619
897.584359	0.267436
897.766760	0.267136
897.949143	0.266752
898.131507	0.266771
898.313854	0.266393
898.496182	0.266575
898.678492	0.266114
898.860783	0.265870
899.043057	0.265879
899.225312	0.265908
899.407549	0.265850
899.589768	0.265626
899.771968	0.265366
899.954151	0.265452
900.136315	0.265053
900.318461	0.265149
900.500588	0.264995
900.682698	0.264913
900.864789	0.264808
901.046862	0.264456
901.228917	0.264799
901.410953	0.264666
901.592971	0.264447
901.774972	0.264962
901.956953	0.264585
902.138917	0.264450
902.320862	0.263688
902.502790	0.263547
902.684699	0.263099
902.866589	0.262319
903.048462	0.261891
903.230316	0.261889
903.412152	0.261574
903.593970	0.261525
903.775770	0.261621
903.957551	0.261856
904.139314	0.261666
904.321059	0.261933
904.502786	0.261909
904.684494	0.261590
904.866185	0.261205
905.047857	0.260670
905.229510	0.260608
905.411146	0.260106
905.592763	0.260112
905.774363	0.259459
905.955943	0.258942
906.137506	0.258482
906.319051	0.258591
906.500577	0.258381
906.682085	0.258036
906.863575	0.257531
907.045046	0.257414
907.226500	0.256757
907.407935	0.256590
907.589352	0.256558
907.770750	0.256651
907.952131	0.256296
908.133493	0.255942
908.314837	0.255787
908.496163	0.256164
908.677470	0.255976
908.858760	0.256058
909.040031	0.255519
909.221284	0.255515
909.402518	0.255125
909.583735	0.254954
909.764933	0.254760
909.946113	0.254339
910.127275	0.253346
910.308418	0.252872
910.489544	0.252217
910.670651	0.252195
910.851740	0.251429
911.032810	0.250844
911.213863	0.250510
911.394897	0.249650
911.575913	0.249541
911.756911	0.249504
911.937890	0.248430
912.118851	0.248314
912.299794	0.247927
912.480719	0.247402
912.661626	0.247408
912.842514	0.246995
913.023384	0.247102
913.204236	0.246879
913.385070	0.246190
913.565886	0.246395
913.746683	0.246114
913.927462	0.245897
914.108223	0.245789
914.288965	0.245744
914.469690	0.245953
914.650396	0.245974
914.831084	0.246042
915.011754	0.245906
915.192405	0.245837
915.373038	0.245050
915.553653	0.244377
915.734250	0.244127
915.914829	0.243739
916.095389	0.242723
916.275931	0.242403
916.456455	0.240859
916.636961	0.240338
916.817448	0.239471
916.997917	0.239029
917.178368	0.238988
917.358801	0.238465
917.539216	0.237577
917.719612	0.237524
917.899990	0.236580
918.080350	0.236650
918.260692	0.236128
918.441015	0.235841
918.621320	0.235600
918.801607	0.235300
918.981876	0.235248
919.162127	0.235124
919.342359	0.234317
919.522573	0.234051
919.702769	0.233817
919.882947	0.233482
920.063106	0.233083
920.243247	0.233041
920.423370	0.232195
920.603475	0.231123
920.783562	0.230177
920.963630	0.230186
921.143680	0.229653
921.323712	0.228818
921.503725	0.228114
921.683721	0.227882
921.863698	0.226906
922.043657	0.227159
922.223598	0.226837
922.403520	0.225955
922.583424	0.225163
922.763311	0.224546
922.943178	0.224586
923.123028	0.224300
923.302859	0.223352
923.482673	0.223105
923.662467	0.222093
923.842244	0.221788
924.022003	0.221503
924.201743	0.220652
924.381465	0.219850
924.561169	0.218879
924.740854	0.218652
924.920522	0.218278
925.100171	0.217286
925.279802	0.216697
925.459414	0.215743
925.639009	0.214916
925.818585	0.214478
925.998143	0.214023
926.177683	0.213252
926.357205	0.212119
926.536708	0.212053
926.716193	0.211307
926.895660	0.210442
927.075109	0.209738
927.254539	0.209611
927.433951	0.208795
927.613345	0.208359
927.792721	0.208179
927.972079	0.208062
928.151418	0.206813
928.330739	0.206593
928.510042	0.206448
928.689327	0.206505
928.868593	0.206125
929.047841	0.205374
929.227071	0.204767
929.406283	0.204109
929.585476	0.203611
929.764652	0.203133
929.943809	0.203290
930.122948	0.202474
930.302068	0.202009
930.481171	0.201173
930.660255	0.200626
930.839321	0.200300
931.018369	0.199507
931.197398	0.198880
931.376409	0.198610
931.555402	0.197373
931.734377	0.197294
931.913334	0.195880
932.092272	0.195808
932.271192	0.195998
932.450094	0.195055
932.628978	0.194631
932.807844	0.194227
932.986691	0.192994
933.165520	0.192408
933.344331	0.191463
933.523123	0.191433
933.701898	0.190289
933.880654	0.189368
934.059392	0.189101
934.238111	0.188867
934.416813	0.188321
934.595496	0.187942
934.774161	0.187528
934.952808	0.186788
935.131437	0.185975
935.310047	0.185599
935.488639	0.185733
935.667213	0.184385
935.845769	0.182907
936.024306	0.181146
936.202825	0.180701
936.381326	0.179813
936.559809	0.179019
936.738274	0.178315
936.916720	0.177456
937.095148	0.175854
937.273558	0.175665
937.451950	0.174804
937.630323	0.175633
937.808678	0.174840
937.987015	0.174610
938.165334	0.174596
938.343635	0.174181
938.521917	0.172734
938.700181	0.171962
938.878427	0.171204
939.056655	0.171474
939.234864	0.169514
939.413055	0.169077
939.591228	0.168383
939.769383	0.166875
939.947519	0.165866
940.125638	0.166055
940.303738	0.165921
940.481820	0.165993
940.659883	0.164666
940.837929	0.164399
941.015956	0.163102
941.193965	0.161840
941.371955	0.161262
941.549928	0.160643
941.727882	0.159775
941.905818	0.159107
942.083736	0.157262
942.261636	0.157259
942.439517	0.156756
942.617380	0.155650
942.795225	0.155101
942.973052	0.154148
943.150860	0.153148
943.328651	0.151635
943.506423	0.149766
943.684176	0.148783
943.861912	0.147127
944.039629	0.145617
944.217328	0.146533
944.395009	0.146507
944.572672	0.145873
944.750317	0.145307
944.927943	0.145191
945.105551	0.144693
945.283141	0.144358
945.460712	0.143452
945.638265	0.143428
945.815801	0.142294
945.993317	0.141446
946.170816	0.141160
946.348297	0.140220
946.525759	0.139127
946.703203	0.139772
946.880629	0.139277
947.058036	0.139938
947.235425	0.139417
947.412797	0.137539
947.590149	0.135763
947.767484	0.134907
947.944800	0.135606
948.122099	0.136013
948.299379	0.134567
948.476640	0.135115
948.653884	0.132593
948.831109	0.132385
949.008316	0.131904
949.185505	0.131346
949.362676	0.130904
949.539828	0.128947
949.716962	0.127864
949.894078	0.127808
950.071176	0.125720
950.248256	0.126505
950.425317	0.125034
950.602360	0.124585
950.779385	0.124166
950.956391	0.124164
951.133380	0.124893
951.310350	0.125220
951.487302	0.123590
951.664235	0.122959
951.841151	0.122274
952.018048	0.119783
952.194927	0.119066
952.371788	0.118341
952.548631	0.116399
952.725455	0.113924
952.902261	0.114386
953.079049	0.114057
953.255819	0.113993
953.432570	0.112914
953.609303	0.114012
953.786018	0.113604
953.962715	0.112820
954.139394	0.110851
954.316054	0.110057
954.492696	0.107733
954.669320	0.107063
954.845926	0.106377
955.022513	0.106051
955.199083	0.105684
955.375634	0.104679
955.552166	0.105849
955.728681	0.107008
955.905177	0.107675
956.081655	0.107861
956.258115	0.107799
956.434557	0.106626
956.610980	0.108255
956.787385	0.107408
956.963772	0.106654
957.140141	0.105408
957.316492	0.105987
957.492824	0.104393
957.669138	0.103273
957.845434	0.103933
958.021712	0.103892
958.197971	0.101281
958.374212	0.100981
958.550435	0.101628
958.726640	0.101054
958.902826	0.100065
959.078995	0.101305
959.255145	0.101069
959.431277	0.098655
959.607390	0.096893
959.783486	0.098004
959.959563	0.096398
960.135622	0.095140
960.311662	0.094496
960.487685	0.094150
960.663689	0.092754
960.839675	0.093165
961.015643	0.093792
961.191593	0.094941
961.367524	0.093899
961.543437	0.095304
961.719332	0.095981
961.895209	0.097053
962.071067	0.098571
962.246907	0.097703
962.422730	0.097118
962.598533	0.097665
962.774319	0.098308
962.950086	0.094887
963.125835	0.094698
963.301566	0.095095
963.477279	0.095310
963.652973	0.091617
963.828650	0.092695
964.004308	0.091612
964.179947	0.090842
964.355569	0.089313
964.531172	0.090203
964.706757	0.089011
964.882324	0.090624
965.057873	0.087655
965.233403	0.086720
965.408916	0.089331
965.584410	0.089165
965.759885	0.088387
965.935343	0.089389
966.110782	0.091048
966.286203	0.092229
966.461606	0.090682
966.636991	0.089294
966.812357	0.091895
966.987705	0.088568
967.163035	0.088766
967.338347	0.089901
967.513641	0.090936
967.688916	0.089982
967.864173	0.089777
968.039412	0.088491
968.214632	0.092008
968.389835	0.092972
968.565019	0.092493
968.740185	0.091870
968.915333	0.091160
969.090462	0.091859
969.265573	0.092898
969.440667	0.091301
969.615741	0.090965
969.790798	0.090718
969.965836	0.087520
970.140856	0.087970
970.315858	0.088324
970.490842	0.088242
970.665808	0.085035
970.840755	0.085222
971.015684	0.084904
971.190595	0.087350
971.365487	0.086580
971.540362	0.088208
971.715218	0.088900
971.890056	0.089774
972.064875	0.088883
972.239677	0.092055
972.414460	0.091916
972.589225	0.092653
972.763972	0.092556
972.938700	0.090109
973.113411	0.093131
973.288103	0.091945
973.462777	0.090888
973.637432	0.091256
973.812070	0.089289
973.986689	0.088799
974.161290	0.090862
974.335873	0.089754
974.510437	0.091720
974.684984	0.089862
974.859512	0.090729
975.034022	0.090539
975.208513	0.091486
975.382987	0.090287
975.557442	0.090565
975.731879	0.089006
975.906298	0.087805
976.080698	0.088796
976.255080	0.088205
976.429445	0.086832
976.603790	0.087116
976.778118	0.086222
976.952427	0.087853
977.126719	0.089964
977.300992	0.092429
977.475246	0.093265
977.649483	0.092274
977.823701	0.091066
977.997901	0.092079
978.172083	0.093669
978.346247	0.094484
978.520392	0.093803
978.694519	0.091831
978.868628	0.089534
979.042719	0.090536
979.216791	0.090019
979.390845	0.090150
979.564882	0.090197
979.738899	0.087635
979.912899	0.087376
980.086880	0.086408
980.260843	0.086812
980.434788	0.086276
980.608715	0.084528
980.782623	0.084284
980.956514	0.084926
981.130386	0.086010
981.304240	0.088491
981.478075	0.089674
981.651892	0.090981
981.825692	0.088894
981.999472	0.089261
982.173235	0.090785
982.346980	0.092281
982.520706	0.092664
982.694414	0.092112
982.868104	0.092019
983.041775	0.091011
983.215428	0.092165
983.389064	0.092427
983.562680	0.091899
983.736279	0.088830
983.909860	0.087300
984.083422	0.085346
984.256966	0.084125
984.430491	0.082441
984.603999	0.083347
984.777488	0.083745
984.950959	0.084053
985.124412	0.085010
985.297847	0.087421
985.471263	0.089198
985.644661	0.092279
985.818041	0.093515
985.991403	0.096673
986.164747	0.096653
986.338072	0.093788
986.511379	0.094862
986.684668	0.095609
986.857938	0.095601
987.031191	0.094598
987.204425	0.093264
987.377641	0.093396
987.550839	0.092038
987.724018	0.090574
987.897179	0.092844
988.070322	0.092378
988.243447	0.092021
988.416554	0.092674
988.589642	0.092518
988.762712	0.091740
988.935764	0.091120
989.108798	0.090899
989.281813	0.090238
989.454811	0.089920
989.627790	0.090990
989.800751	0.090342
989.973693	0.090744
990.146617	0.091597
990.319524	0.093657
990.492412	0.094374
990.665281	0.094535
990.838133	0.097223
991.010966	0.096425
991.183781	0.095886
991.356578	0.097394
991.529356	0.096103
991.702117	0.095690
991.874859	0.094349
992.047583	0.093872
992.220288	0.095568
992.392976	0.094785
992.565645	0.095878
992.738296	0.094872
992.910929	0.093562
993.083543	0.091031
993.256139	0.090417
993.428718	0.090074
993.601277	0.089541
993.773819	0.088566
993.946342	0.088056
994.118848	0.087522
994.291335	0.088318
994.463803	0.089130
994.636254	0.091278
994.808686	0.093535
994.981100	0.093820
995.153496	0.094815
995.325874	0.093972
995.498233	0.091426
995.670574	0.091271
995.842897	0.090490
996.015202	0.091211
996.187488	0.092497
996.359757	0.090911
996.532007	0.089157
996.704239	0.088783
996.876452	0.088825
997.048648	0.091780
997.220825	0.090080
997.392984	0.090131
997.565124	0.088433
997.737247	0.087876
997.909351	0.089147
998.081437	0.090251
998.253505	0.090906
998.425554	0.089961
998.597586	0.086981
998.769599	0.089153
998.941594	0.089678
999.113571	0.090820
999.285529	0.089763
999.457469	0.089004
999.629391	0.089570
999.801295	0.088341
999.973181	0.089197
1000.145048	0.091437
1000.316897	0.089703
1000.488728	0.088386
1000.660541	0.087242
1000.832335	0.088894
1001.004111	0.088489
1001.175869	0.087858
1001.347609	0.087924
1001.519331	0.086630
1001.691034	0.085997
1001.862719	0.086615
1002.034386	0.087909
1002.206035	0.088283
1002.377665	0.087562
1002.549277	0.085920
1002.720871	0.087033
1002.892447	0.088467
1003.064004	0.089903
1003.235544	0.090460
1003.407065	0.090996
1003.578568	0.091688
1003.750052	0.093103
1003.921519	0.092355
1004.092967	0.094316
1004.264397	0.094273
1004.435809	0.092956
1004.607202	0.090753
1004.778577	0.091547
1004.949934	0.090481
1005.121273	0.090145
1005.292594	0.089153
1005.463896	0.089465
1005.635180	0.088510
1005.806446	0.088451
1005.977694	0.088059
1006.148923	0.091393
1006.320135	0.088543
1006.491328	0.088758
1006.662503	0.088013
1006.833659	0.087404
1007.004798	0.087290
1007.175918	0.087213
1007.347020	0.085584
1007.518103	0.083552
1007.689169	0.082384
1007.860216	0.084016
1008.031245	0.083888
1008.202256	0.084486
1008.373248	0.083844
1008.544223	0.083702
1008.715179	0.084879
1008.886117	0.084824
1009.057036	0.087568
1009.227938	0.086556
1009.398821	0.087294
1009.569686	0.088893
1009.740533	0.088956
1009.911361	0.089210
1010.082172	0.089288
1010.252964	0.089170
1010.423738	0.090686
1010.594493	0.090629
1010.765231	0.091786
1010.935950	0.090177
1011.106651	0.089039
1011.277334	0.089334
1011.447998	0.089216
1011.618645	0.089680
1011.789273	0.089217
1011.959882	0.090164
1012.130474	0.089287
1012.301048	0.088241
1012.471603	0.088324
1012.642140	0.087205
1012.812658	0.086419
1012.983159	0.086811
1013.153641	0.087032
1013.324105	0.088115
1013.494551	0.087439
1013.664979	0.088018
1013.835388	0.087851
1014.005779	0.089584
1014.176152	0.090875
1014.346507	0.091310
1014.516843	0.091121
1014.687162	0.090548
1014.857462	0.090231
1015.027744	0.089136
1015.198007	0.089195
1015.368252	0.090510
1015.538480	0.089774
1015.708689	0.089195
1015.878879	0.088256
1016.049052	0.089672
1016.219206	0.091295
1016.389342	0.088923
1016.559460	0.089602
1016.729559	0.089160
1016.899641	0.089862
1017.069704	0.090493
1017.239749	0.091164
1017.409775	0.092599
1017.579784	0.091233
1017.749774	0.089215
1017.919746	0.090816
1018.089700	0.089125
1018.259635	0.089237
1018.429553	0.088175
1018.599452	0.087682
1018.769333	0.088784
1018.939195	0.088148
1019.109040	0.087934
1019.278866	0.089761
1019.448674	0.090074
1019.618464	0.090621
1019.788235	0.091810
1019.957989	0.091043
1020.127724	0.093232
1020.297441	0.092044
1020.467139	0.091358
1020.636820	0.091013
1020.806482	0.090471
1020.976126	0.089887
1021.145752	0.088971
1021.315359	0.087516
1021.484948	0.089061
1021.654519	0.086597
1021.824072	0.085029
1021.993607	0.085796
1022.163123	0.087460
1022.332621	0.085165
1022.502101	0.085735
1022.671563	0.085914
1022.841007	0.085931
1023.010432	0.084464
1023.179839	0.085912
1023.349228	0.087130
1023.518598	0.087362
1023.687951	0.086505
1023.857285	0.087865
1024.026601	0.087486
1024.195899	0.089278
1024.365178	0.089736
1024.534439	0.090259
1024.703682	0.086817
1024.872907	0.087517
1025.042114	0.085410
1025.211302	0.085238
1025.380472	0.085008
1025.549624	0.085310
1025.718758	0.085678
1025.887873	0.085849
1026.056970	0.086283
1026.226049	0.088233
1026.395110	0.088672
1026.564153	0.090296
1026.733177	0.090364
1026.902183	0.091065
1027.071171	0.090919
1027.240141	0.090500
1027.409092	0.089488
1027.578026	0.089185
1027.746940	0.089541
1027.915837	0.087946
1028.084716	0.089383
1028.253576	0.088707
1028.422418	0.087621
1028.591242	0.086819
1028.760048	0.086120
1028.928835	0.086659
1029.097604	0.086309
1029.266355	0.085532
1029.435088	0.087208
1029.603803	0.086123
1029.772499	0.086852
1029.941177	0.087879
1030.109837	0.088216
1030.278478	0.089363
1030.447102	0.088420
1030.615707	0.088647
1030.784294	0.089372
1030.952863	0.087505
1031.121413	0.086978
1031.289945	0.087108
1031.458460	0.088123
1031.626955	0.087491
1031.795433	0.087316
1031.963892	0.088704
1032.132334	0.088610
1032.300756	0.088484
1032.469161	0.089837
1032.637548	0.089874
1032.805916	0.089113
1032.974266	0.087555
1033.142598	0.088169
1033.310911	0.087529
1033.479207	0.086905
1033.647484	0.086120
1033.815743	0.085528
1033.983983	0.084025
1034.152206	0.085081
1034.320410	0.086801
1034.488596	0.086799
1034.656764	0.087567
1034.824914	0.087539
1034.993045	0.088589
1035.161158	0.088679
1035.329253	0.089622
1035.497330	0.089317
1035.665388	0.086786
1035.833428	0.084501
1036.001450	0.085909
1036.169454	0.083634
1036.337440	0.083332
1036.505407	0.084339
1036.673356	0.085280
1036.841287	0.084440
1037.009200	0.085985
1037.177094	0.087779
1037.344970	0.088363
1037.512828	0.086815
1037.680668	0.088087
1037.848489	0.088387
1038.016293	0.088104
1038.184078	0.087451
1038.351845	0.086770
1038.519593	0.086450
1038.687324	0.087098
1038.855036	0.087042
1039.022730	0.087339
1039.190406	0.087960
1039.358063	0.088257
1039.525702	0.087736
1039.693323	0.088153
1039.860926	0.089403
1040.028511	0.088462
1040.196077	0.088504
1040.363625	0.088777
1040.531155	0.089093
1040.698667	0.088801
1040.866161	0.088464
1041.033636	0.086282
1041.201093	0.084436
1041.368532	0.084299
1041.535952	0.085029
1041.703355	0.084551
1041.870739	0.084685
1042.038105	0.083057
1042.205452	0.083103
1042.372782	0.082631
1042.540093	0.084367
1042.707386	0.085413
1042.874661	0.085618
1043.041918	0.084949
1043.209156	0.086277
1043.376376	0.084820
1043.543578	0.086995
1043.710762	0.086760
1043.877927	0.086864
1044.045074	0.086641
1044.212203	0.086741
1044.379314	0.083522
1044.546407	0.084978
1044.713481	0.081336
1044.880537	0.082219
1045.047575	0.081371
1045.214595	0.082618
1045.381596	0.083773
1045.548579	0.084226
1045.715544	0.084701
1045.882491	0.086929
1046.049420	0.085653
1046.216330	0.088797
1046.383222	0.090299
1046.550096	0.089224
1046.716951	0.087146
1046.883789	0.086107
1047.050608	0.086348
1047.217409	0.087008
1047.384192	0.088766
1047.550956	0.090198
1047.717703	0.088544
1047.884431	0.086232
1048.051140	0.087869
1048.217832	0.089859
1048.384505	0.090543
1048.551161	0.090193
1048.717798	0.090491
1048.884416	0.088826
1049.051017	0.088567
1049.217599	0.089892
1049.384163	0.090904
1049.550709	0.088959
1049.717237	0.089881
1049.883746	0.090873
1050.050237	0.089919
1050.216710	0.087235
1050.383165	0.086611
1050.549601	0.085322
1050.716019	0.083812
1050.882420	0.084990
1051.048801	0.085696
1051.215165	0.083145
1051.381510	0.081077
1051.547837	0.081071
1051.714146	0.082609
1051.880437	0.084102
1052.046709	0.083662
1052.212964	0.084347
1052.379200	0.084022
1052.545417	0.085523
1052.711617	0.085773
1052.877798	0.087337
1053.043961	0.087200
1053.210106	0.086915
1053.376233	0.086168
1053.542341	0.085980
1053.708432	0.086958
1053.874504	0.086657
1054.040557	0.085120
1054.206593	0.085292
1054.372610	0.083716
1054.538609	0.085011
1054.704590	0.086001
1054.870553	0.086247
1055.036497	0.088049
1055.202424	0.087658
1055.368331	0.087829
1055.534221	0.088430
1055.700093	0.087688
1055.865946	0.090003
1056.031781	0.088552
1056.197598	0.087687
1056.363397	0.088164
1056.529177	0.088155
1056.694939	0.087838
1056.860683	0.089119
1057.026409	0.090047
1057.192116	0.091178
1057.357806	0.090303
1057.523477	0.089867
1057.689130	0.088903
1057.854764	0.088892
1058.020381	0.088627
1058.185979	0.088210
1058.351559	0.087270
1058.517120	0.087653
1058.682664	0.088207
1058.848189	0.088454
1059.013696	0.089058
1059.179185	0.090246
1059.344656	0.089594
1059.510108	0.089552
1059.675542	0.088890
1059.840958	0.086299
1060.006356	0.085420
1060.171735	0.084802
1060.337096	0.084504
1060.502439	0.086250
1060.667764	0.086283
1060.833071	0.086113
1060.998359	0.087855
1061.163629	0.089519
1061.328881	0.092255
1061.494115	0.093434
1061.659330	0.094150
1061.824527	0.092653
1061.989706	0.091987
1062.154867	0.092104
1062.320010	0.093059
1062.485134	0.091741
1062.650240	0.090649
1062.815328	0.088282
1062.980398	0.087386
1063.145449	0.087836
1063.310482	0.091164
1063.475497	0.091313
1063.640494	0.092628
1063.805473	0.091862
1063.970433	0.090685
1064.135375	0.091494
1064.300299	0.094134
1064.465204	0.093188
1064.630092	0.092031
1064.794961	0.088065
1064.959812	0.087892
1065.124645	0.087278
1065.289459	0.087528
1065.454256	0.088244
1065.619034	0.086894
1065.783793	0.084335
1065.948535	0.085302
1066.113258	0.084296
1066.277964	0.085668
1066.442651	0.085736
1066.607319	0.084941
1066.771970	0.086116
1066.936602	0.085757
1067.101216	0.087039
1067.265812	0.089471
1067.430389	0.088178
1067.594949	0.089852
1067.759490	0.091981
1067.924013	0.091070
1068.088518	0.092065
1068.253004	0.091818
1068.417472	0.092676
1068.581922	0.091847
1068.746354	0.092512
1068.910768	0.093707
1069.075163	0.094403
1069.239540	0.094020
1069.403899	0.095592
1069.568240	0.094604
1069.732562	0.094542
1069.896866	0.095564
1070.061152	0.098302
1070.225420	0.097775
1070.389670	0.095783
1070.553901	0.093281
1070.718114	0.092409
1070.882309	0.090818
1071.046486	0.091586
1071.210644	0.088551
1071.374784	0.087287
1071.538906	0.083815
1071.703010	0.084242
1071.867096	0.085491
1072.031163	0.085359
1072.195212	0.087354
1072.359243	0.088168
1072.523256	0.088227
1072.687250	0.088451
1072.851226	0.088579
1073.015184	0.088846
1073.179124	0.088018
1073.343045	0.088688
1073.506949	0.090307
1073.670834	0.087774
1073.834701	0.087500
1073.998549	0.085377
1074.162380	0.088641
1074.326192	0.087665
1074.489986	0.090071
1074.653761	0.088168
1074.817519	0.087388
1074.981258	0.088698
1075.144979	0.089275
1075.308682	0.088372
1075.472367	0.090967
1075.636033	0.090710
1075.799681	0.091230
1075.963311	0.090804
1076.126923	0.094172
1076.290516	0.095385
1076.454092	0.094184
1076.617649	0.093765
1076.781187	0.094699
1076.944708	0.093085
1077.108210	0.092938
1077.271695	0.093456
1077.435160	0.092259
1077.598608	0.090337
1077.762038	0.090048
1077.925449	0.092366
1078.088842	0.091830
1078.252217	0.093631
1078.415573	0.093622
1078.578912	0.095252
1078.742232	0.096219
1078.905534	0.095148
1079.068817	0.095621
1079.232083	0.095421
1079.395330	0.092569
1079.558559	0.092557
1079.721770	0.089221
1079.884962	0.089778
1080.048136	0.086378
1080.211293	0.086685
1080.374430	0.086790
1080.537550	0.086952
1080.700651	0.087540
1080.863735	0.089920
1081.026800	0.092967
1081.189846	0.095093
1081.352875	0.097064
1081.515885	0.098260
1081.678877	0.096674
1081.841851	0.099267
1082.004807	0.100038
1082.167744	0.097700
1082.330663	0.095416
1082.493564	0.093874
1082.656447	0.093313
1082.819312	0.094562
1082.982158	0.096257
1083.144986	0.096388
1083.307796	0.094604
1083.470587	0.093435
1083.633361	0.094336
1083.796116	0.095135
1083.958853	0.095078
1084.121571	0.093862
1084.284272	0.091331
1084.446954	0.090629
1084.609618	0.091966
1084.772264	0.092713
1084.934892	0.093292
1085.097501	0.095355
1085.260092	0.097082
1085.422665	0.097632
1085.585220	0.096963
1085.747756	0.097387
1085.910274	0.095184
1086.072774	0.091674
1086.235256	0.090745
1086.397720	0.089489
1086.560165	0.088011
1086.722592	0.087436
1086.885001	0.085551
1087.047392	0.088368
1087.209764	0.087670
1087.372119	0.089036
1087.534455	0.091956
1087.696772	0.093918
1087.859072	0.094877
1088.021353	0.095711
1088.183616	0.096049
1088.345861	0.095576
1088.508088	0.094325
1088.670296	0.094525
1088.832486	0.093959
1088.994658	0.094226
1089.156812	0.092057
1089.318948	0.095285
1089.481065	0.092877
1089.643164	0.092604
1089.805245	0.095454
1089.967308	0.097191
1090.129352	0.094996
1090.291378	0.096440
1090.453386	0.096518
1090.615376	0.097386
1090.777347	0.092107
1090.939301	0.093528
1091.101236	0.093419
1091.263153	0.090283
1091.425051	0.089552
1091.586932	0.093561
1091.748794	0.093373
1091.910638	0.093640
1092.072463	0.093079
1092.234271	0.096589
1092.396060	0.096554
1092.557831	0.096549
1092.719584	0.099229
1092.881319	0.098065
1093.043035	0.096079
1093.204733	0.094472
1093.366413	0.091943
1093.528075	0.093129
1093.689718	0.093233
1093.851343	0.094286
1094.012950	0.093257
1094.174539	0.089261
1094.336110	0.089592
1094.497662	0.089298
1094.659196	0.091916
1094.820712	0.094543
1094.982210	0.095180
1095.143689	0.091939
1095.305151	0.094458
1095.466594	0.094762
1095.628018	0.098581
1095.789425	0.097372
1095.950813	0.095847
1096.112183	0.095289
1096.273535	0.096089
1096.434869	0.095674
1096.596184	0.097224
1096.757482	0.095637
1096.918761	0.096098
1097.080021	0.097751
1097.241264	0.099277
1097.402488	0.103206
1097.563694	0.102371
1097.724882	0.101369
1097.886052	0.099992
1098.047203	0.099712
1098.208336	0.097732
1098.369451	0.093986
1098.530548	0.094633
1098.691627	0.093134
1098.852687	0.090580
1099.013729	0.088455
1099.174753	0.088571
1099.335758	0.088666
1099.496746	0.090115
1099.657715	0.091052
1099.818666	0.093944
1099.979599	0.091102
1100.140513	0.093111
1100.301409	0.094881
1100.462287	0.099925
1100.623147	0.100180
1100.783989	0.099941
1100.944812	0.102027
1101.105617	0.102306
1101.266404	0.102392
1101.427173	0.101437
1101.587923	0.101410
1101.748656	0.101840
1101.909370	0.101039
1102.070066	0.099425
1102.230743	0.099423
1102.391403	0.096081
1102.552044	0.098215
1102.712667	0.097860
1102.873271	0.095907
1103.033858	0.093220
1103.194426	0.092808
1103.354976	0.092164
1103.515508	0.094041
1103.676021	0.091065
1103.836517	0.088740
1103.996994	0.085477
1104.157453	0.085680
1104.317893	0.088519
1104.478316	0.092733
1104.638720	0.091704
1104.799106	0.091501
1104.959474	0.091070
1105.119823	0.094557
1105.280155	0.101105
1105.440468	0.102165
1105.600763	0.102344
1105.761039	0.101195
1105.921298	0.102785
1106.081538	0.104347
1106.241760	0.102090
1106.401964	0.099155
1106.562149	0.101266
1106.722316	0.096910
1106.882465	0.099080
1107.042596	0.095587
1107.202709	0.096661
1107.362803	0.093318
1107.522879	0.093564
1107.682937	0.093739
1107.842977	0.091879
1108.002999	0.089136
1108.163002	0.090492
1108.322987	0.085903
1108.482954	0.088912
1108.642902	0.088509
1108.802833	0.088250
1108.962745	0.089714
1109.122639	0.090266
1109.282515	0.094853
1109.442372	0.095865
1109.602211	0.097546
1109.762032	0.100421
1109.921835	0.099139
1110.081620	0.097455
1110.241386	0.094877
1110.401134	0.088456
1110.560864	0.087494
1110.720576	0.086054
1110.880269	0.084624
1111.039945	0.081111
1111.199602	0.081380
1111.359240	0.084829
1111.518861	0.086626
1111.678463	0.090373
1111.838047	0.094139
1111.997613	0.097616
1112.157161	0.100609
1112.316690	0.099872
1112.476202	0.103338
1112.635695	0.100793
1112.795169	0.096581
1112.954626	0.096031
1113.114064	0.096427
1113.273484	0.095900
1113.432886	0.090878
1113.592270	0.086595
1113.751635	0.091578
1113.910983	0.088511
1114.070312	0.090287
1114.229622	0.094893
1114.388915	0.093298
1114.548189	0.090599
1114.707445	0.091191
1114.866683	0.094262
1115.025903	0.093622
1115.185104	0.088431
1115.344287	0.087455
1115.503452	0.086915
1115.662599	0.085271
1115.821727	0.087323
1115.980838	0.090291
1116.139930	0.088264
1116.299004	0.084495
1116.458059	0.089156
1116.617097	0.094643
1116.776116	0.097451
1116.935117	0.101329
1117.094099	0.100633
1117.253064	0.101228
1117.412010	0.100921
1117.570938	0.103460
1117.729848	0.109133
1117.888740	0.105397
1118.047613	0.103769
1118.206468	0.102096
1118.365305	0.097485
1118.524124	0.095903
1118.682924	0.094043
1118.841707	0.090453
1119.000471	0.088034
1119.159216	0.089648
1119.317944	0.092444
1119.476653	0.092706
1119.635344	0.092188
1119.794017	0.094973
1119.952672	0.097881
1120.111308	0.099653
1120.269927	0.102567
1120.428527	0.108668
1120.587108	0.105708
1120.745672	0.102797
1120.904217	0.098592
1121.062744	0.101253
1121.221253	0.097734
1121.379744	0.098781
1121.538216	0.093424
1121.696671	0.088988
1121.855107	0.086299
1122.013524	0.086969
1122.171924	0.086855
1122.330305	0.090061
1122.488668	0.092945
1122.647013	0.093151
1122.805340	0.089846
1122.963648	0.096454
1123.121938	0.101514
1123.280210	0.104196
1123.438464	0.102752
1123.596700	0.099522
1123.754917	0.102209
1123.913116	0.097546
1124.071297	0.100403
1124.229459	0.103409
1124.387604	0.097285
1124.545730	0.093544
1124.703838	0.085063
1124.861928	0.088216
1125.019999	0.095666
1125.178052	0.090985
1125.336088	0.090580
1125.494104	0.090775
1125.652103	0.094288
1125.810083	0.097069
1125.968045	0.097630
1126.125989	0.100968
1126.283915	0.100251
1126.441823	0.100683
1126.599712	0.107613
1126.757583	0.111682
1126.915436	0.109842
1127.073270	0.101987
1127.231087	0.104868
1127.388885	0.105392
1127.546665	0.110286
1127.704426	0.108009
1127.862170	0.104814
1128.019895	0.097683
1128.177602	0.089738
1128.335291	0.093064
1128.492961	0.093582
1128.650614	0.096594
1128.808248	0.095701
1128.965864	0.092356
1129.123461	0.092685
1129.281041	0.093502
1129.438602	0.094119
1129.596145	0.100692
1129.753670	0.101908
1129.911176	0.101292
1130.068665	0.095026
1130.226135	0.095491
1130.383587	0.092825
1130.541020	0.094099
1130.698436	0.093400
1130.855833	0.092317
1131.013212	0.086868
1131.170573	0.082546
1131.327915	0.087980
1131.485239	0.087415
1131.642545	0.089456
1131.799833	0.087799
1131.957103	0.083335
1132.114354	0.087105
1132.271588	0.088309
1132.428803	0.092028
1132.585999	0.095940
1132.743178	0.089526
1132.900338	0.087061
1133.057480	0.086702
1133.214604	0.091794
1133.371710	0.094758
1133.528797	0.088167
1133.685866	0.087169
1133.842917	0.083569
1133.999950	0.078446
1134.156964	0.078921
1134.313960	0.079990
1134.470938	0.079462
1134.627898	0.076881
1134.784840	0.075408
1134.941763	0.078071
1135.098668	0.076460
1135.255555	0.078839
1135.412424	0.078835
1135.569274	0.082599
1135.726107	0.083573
1135.882921	0.084655
1136.039716	0.084966
1136.196494	0.084629
1136.353253	0.081619
1136.509995	0.086336
1136.666717	0.087427
1136.823422	0.087068
1136.980109	0.081950
1137.136777	0.082580
1137.293427	0.084836
1137.450059	0.085596
1137.606672	0.088949
1137.763267	0.093153
1137.919844	0.088679
1138.076403	0.089193
1138.232944	0.090742
1138.389466	0.092835
1138.545971	0.094263
1138.702457	0.095188
1138.858924	0.085893
1139.015374	0.089135
1139.171805	0.089120
1139.328218	0.087941
1139.484613	0.089747
1139.640990	0.093136
1139.797348	0.094638
1139.953688	0.094664
1140.110010	0.092323
1140.266314	0.102213
1140.422600	0.100426
1140.578867	0.094964
1140.735116	0.100486
1140.891347	0.097815
1141.047559	0.097789
1141.203754	0.093387
1141.359930	0.088709
1141.516088	0.083736
1141.672228	0.077920
1141.828349	0.070216
1141.984452	0.073957
1142.140537	0.067141
1142.296604	0.063859
1142.452653	0.058531
1142.608683	0.055919
1142.764695	0.055766
1142.920689	0.058841
1143.076665	0.062361
1143.232622	0.066480
1143.388562	0.064230
1143.544483	0.066292
1143.700385	0.068939
1143.856270	0.073131
1144.012136	0.083702
1144.167985	0.087196
1144.323814	0.089177
1144.479626	0.090324
1144.635420	0.089411
1144.791195	0.092417
1144.946952	0.094291
1145.102691	0.096204
1145.258411	0.090241
1145.414113	0.087972
1145.569798	0.092464
1145.725463	0.086696
1145.881111	0.091701
1146.036741	0.092806
1146.192352	0.090755
1146.347945	0.093387
1146.503519	0.090309
1146.659076	0.097335
1146.814614	0.093115
1146.970134	0.092756
1147.125636	0.097338
1147.281120	0.095312
1147.436585	0.090780
1147.592032	0.090718
1147.747461	0.087988
1147.902872	0.085275
1148.058265	0.077995
1148.213639	0.074532
1148.368995	0.071640
1148.524333	0.067577
1148.679653	0.066703
1148.834954	0.070725
1148.990237	0.073421
1149.145502	0.079197
1149.300749	0.082672
1149.455977	0.092376
1149.611188	0.094500
1149.766380	0.095736
1149.921553	0.098588
1150.076709	0.098570
1150.231846	0.095769
1150.386966	0.086472
1150.542066	0.078021
1150.697149	0.078288
1150.852214	0.071885
1151.007260	0.071962
1151.162288	0.071013
1151.317298	0.076392
1151.472289	0.068388
1151.627263	0.067867
1151.782218	0.073711
1151.937155	0.077609
1152.092073	0.079593
1152.246974	0.077681
1152.401856	0.076031
1152.556720	0.081555
1152.711566	0.074697
1152.866393	0.079334
1153.021203	0.085289
1153.175994	0.084084
1153.330767	0.080232
1153.485521	0.078376
1153.640258	0.079968
1153.794976	0.083253
1153.949676	0.074730
1154.104358	0.075498
1154.259021	0.070754
1154.413667	0.066716
1154.568294	0.064910
1154.722903	0.073440
1154.877493	0.074939
1155.032066	0.070630
1155.186620	0.067825
1155.341156	0.070033
1155.495674	0.062017
1155.650173	0.076602
1155.804654	0.074971
1155.959118	0.082776
1156.113562	0.077021
1156.267989	0.073747
1156.422397	0.071843
1156.576788	0.070201
1156.731160	0.068809
1156.885513	0.078678
1157.039849	0.070864
1157.194166	0.077734
1157.348465	0.069759
1157.502746	0.063598
1157.657009	0.058535
1157.811253	0.063745
1157.965479	0.069335
1158.119687	0.067286
1158.273877	0.069068
1158.428048	0.063817
1158.582201	0.064893
1158.736337	0.068542
1158.890453	0.074212
1159.044552	0.072705
1159.198632	0.079298
1159.352694	0.081493
1159.506738	0.081843
1159.660764	0.077813
1159.814771	0.078317
1159.968761	0.072464
1160.122732	0.076701
1160.276685	0.078758
1160.430619	0.087138
1160.584535	0.080682
1160.738434	0.070647
1160.892313	0.073326
1161.046175	0.069967
1161.200019	0.071682
1161.353844	0.073598
1161.507651	0.069482
1161.661440	0.066561
1161.815210	0.059794
1161.968962	0.062045
1162.122697	0.068024
1162.276412	0.071487
1162.430110	0.071176
1162.583789	0.070302
1162.737451	0.062413
1162.891094	0.052292
1163.044718	0.055078
1163.198325	0.059203
1163.351913	0.060841
1163.505483	0.056372
1163.659035	0.054174
1163.812569	0.058496
1163.966084	0.052635
1164.119581	0.052856
1164.273060	0.055777
1164.426521	0.048144
1164.579964	0.047832
1164.733388	0.038690
1164.886794	0.056186
1165.040182	0.052309
1165.193551	0.048367
1165.346903	0.056790
1165.500236	0.058950
1165.653551	0.059277
1165.806848	0.062489
1165.960126	0.062365
1166.113386	0.072219
1166.266628	0.060009
1166.419852	0.064578
1166.573058	0.067658
1166.726245	0.065539
1166.879414	0.074239
1167.032565	0.076455
1167.185698	0.073191
1167.338812	0.072123
1167.491909	0.064732
1167.644987	0.063020
1167.798046	0.063456
1167.951088	0.059919
1168.104111	0.063217
1168.257117	0.056418
1168.410103	0.053976
1168.563072	0.058231
1168.716023	0.069231
1168.868955	0.063927
1169.021869	0.066118
1169.174765	0.058194
1169.327642	0.055934
1169.480501	0.056298
1169.633343	0.059303
1169.786165	0.058990
1169.938970	0.059617
1170.091757	0.053520
1170.244525	0.061335
1170.397275	0.063812
1170.550007	0.067798
1170.702720	0.078444
1170.855415	0.068534
1171.008092	0.059314
1171.160751	0.060490
1171.313392	0.055225
1171.466014	0.025441
1171.618619	0.014736
1171.771205	0.014736
1171.923772	0.014736
