sample name	sample
index	750
start time	 03-25-2021  04:12:43 PM


Wavelength (nm)	Absorbance
494.344910	0.138924
494.563924	0.138924
494.782919	0.138924
495.001897	0.852785
495.220856	0.057238
495.439797	0.043243
495.658719	0.045168
495.877624	0.026809
496.096510	0.005253
496.315378	0.004857
496.534227	-0.057672
496.753059	-0.016778
496.971872	-0.022606
497.190667	0.123307
497.409444	0.139751
497.628203	0.145752
497.846943	0.147736
498.065665	0.148662
498.284369	0.151362
498.503055	0.153679
498.721723	0.154299
498.940372	0.155266
499.159003	0.155049
499.377616	0.154868
499.596210	0.153597
499.814787	0.154183
500.033345	0.154582
500.251885	0.153948
500.470406	0.153755
500.688910	0.153293
500.907395	0.152473
501.125862	0.152990
501.344311	0.153815
501.562742	0.154917
501.781154	0.155092
501.999548	0.155006
502.217924	0.155033
502.436282	0.154437
502.654621	0.153844
502.872942	0.154768
503.091245	0.154201
503.309530	0.153997
503.527797	0.154269
503.746045	0.153703
503.964275	0.153282
504.182487	0.153547
504.400681	0.154128
504.618856	0.154579
504.837013	0.154224
505.055152	0.154551
505.273273	0.154851
505.491376	0.154336
505.709460	0.154615
505.927526	0.154977
506.145574	0.154903
506.363604	0.155172
506.581615	0.155729
506.799608	0.155840
507.017583	0.157090
507.235540	0.157019
507.453478	0.157547
507.671399	0.157276
507.889301	0.156940
508.107185	0.157111
508.325050	0.157358
508.542898	0.157390
508.760727	0.157220
508.978538	0.155977
509.196330	0.155749
509.414105	0.155495
509.631861	0.156104
509.849599	0.156208
510.067319	0.155207
510.285021	0.155636
510.502704	0.155191
510.720369	0.155967
510.938016	0.156067
511.155645	0.156683
511.373255	0.156209
511.590848	0.155940
511.808422	0.156784
512.025977	0.157956
512.243515	0.157996
512.461034	0.158120
512.678536	0.158614
512.896018	0.159014
513.113483	0.158424
513.330930	0.158995
513.548358	0.160162
513.765768	0.159751
513.983160	0.160860
514.200533	0.160685
514.417889	0.161203
514.635226	0.160935
514.852545	0.161701
515.069845	0.163607
515.287128	0.163849
515.504392	0.163243
515.721638	0.164060
515.938866	0.164000
516.156075	0.164632
516.373267	0.164861
516.590440	0.165309
516.807594	0.165444
517.024731	0.164759
517.241850	0.165428
517.458950	0.166650
517.676032	0.166933
517.893095	0.166761
518.110141	0.166688
518.327168	0.166945
518.544177	0.166807
518.761168	0.166782
518.978141	0.167258
519.195095	0.167769
519.412031	0.168008
519.628949	0.167800
519.845849	0.168477
520.062731	0.168930
520.279594	0.169767
520.496439	0.170493
520.713266	0.170633
520.930074	0.171221
521.146865	0.171547
521.363637	0.170921
521.580391	0.171541
521.797127	0.171315
522.013844	0.171506
522.230543	0.171326
522.447224	0.171400
522.663887	0.172029
522.880532	0.171191
523.097158	0.171428
523.313766	0.171637
523.530356	0.171602
523.746928	0.171974
523.963481	0.172367
524.180017	0.172472
524.396534	0.172909
524.613032	0.173211
524.829513	0.174188
525.045975	0.173912
525.262420	0.173561
525.478845	0.173593
525.695253	0.174329
525.911643	0.174150
526.128014	0.174909
526.344367	0.175510
526.560702	0.175579
526.777018	0.175847
526.993316	0.176172
527.209597	0.176966
527.425858	0.177867
527.642102	0.177720
527.858328	0.179053
528.074535	0.179540
528.290724	0.179284
528.506894	0.179471
528.723047	0.179909
528.939181	0.180963
529.155297	0.181788
529.371395	0.182054
529.587475	0.182652
529.803536	0.182340
530.019579	0.182595
530.235604	0.182672
530.451611	0.183544
530.667600	0.183164
530.883570	0.182913
531.099522	0.183114
531.315456	0.183783
531.531372	0.183997
531.747269	0.184293
531.963148	0.184433
532.179009	0.185209
532.394852	0.185797
532.610676	0.186992
532.826482	0.187384
533.042271	0.187869
533.258040	0.187634
533.473792	0.187987
533.689525	0.188585
533.905240	0.189622
534.120937	0.190287
534.336616	0.190458
534.552277	0.190565
534.767919	0.190843
534.983543	0.191072
535.199149	0.191153
535.414736	0.191338
535.630306	0.191353
535.845857	0.191187
536.061390	0.191356
536.276904	0.191636
536.492401	0.192596
536.707879	0.193487
536.923339	0.194137
537.138781	0.194993
537.354204	0.195598
537.569610	0.196185
537.784997	0.196371
538.000366	0.195827
538.215716	0.196092
538.431049	0.196010
538.646363	0.196166
538.861659	0.195707
539.076937	0.196051
539.292196	0.196434
539.507438	0.196646
539.722661	0.196750
539.937866	0.197256
540.153052	0.197239
540.368221	0.197184
540.583371	0.197223
540.798503	0.197790
541.013617	0.198258
541.228712	0.198198
541.443789	0.198731
541.658848	0.199530
541.873889	0.200619
542.088912	0.200915
542.303916	0.201179
542.518902	0.201716
542.733870	0.202344
542.948820	0.202348
543.163752	0.202802
543.378665	0.202694
543.593560	0.202687
543.808437	0.202596
544.023295	0.202925
544.238136	0.203428
544.452958	0.203615
544.667762	0.203999
544.882548	0.204215
545.097315	0.203925
545.312064	0.203873
545.526795	0.204188
545.741508	0.204746
545.956203	0.205175
546.170879	0.205475
546.385537	0.205315
546.600177	0.205433
546.814799	0.206043
547.029402	0.206917
547.243988	0.207043
547.458555	0.207499
547.673103	0.207227
547.887634	0.207477
548.102146	0.207596
548.316640	0.208072
548.531116	0.207663
548.745574	0.207759
548.960013	0.208001
549.174435	0.208674
549.388838	0.208720
549.603222	0.209349
549.817589	0.209987
550.031937	0.210484
550.246267	0.211186
550.460579	0.212004
550.674873	0.212606
550.889148	0.212843
551.103405	0.213153
551.317644	0.213301
551.531865	0.213665
551.746068	0.213559
551.960252	0.213397
552.174418	0.213442
552.388566	0.213674
552.602696	0.213778
552.816807	0.213784
553.030900	0.214084
553.244975	0.214663
553.459032	0.214577
553.673070	0.214922
553.887091	0.215493
554.101093	0.215764
554.315077	0.215933
554.529042	0.215418
554.742990	0.215641
554.956919	0.215911
555.170830	0.215948
555.384722	0.216371
555.598597	0.216707
555.812453	0.216913
556.026291	0.217448
556.240111	0.217629
556.453913	0.218080
556.667696	0.218555
556.881461	0.218868
557.095208	0.218631
557.308937	0.218711
557.522647	0.218484
557.736339	0.218815
557.950013	0.218894
558.163669	0.219434
558.377307	0.220011
558.590926	0.220017
558.804527	0.220082
559.018110	0.220874
559.231675	0.221325
559.445221	0.221495
559.658749	0.221688
559.872259	0.221464
560.085751	0.221477
560.299225	0.221419
560.512680	0.221958
560.726117	0.222301
560.939536	0.222745
561.152937	0.222757
561.366319	0.223373
561.579683	0.223541
561.793029	0.224172
562.006357	0.224303
562.219667	0.224999
562.432958	0.225478
562.646231	0.225430
562.859486	0.225558
563.072723	0.225877
563.285941	0.225533
563.499141	0.225884
563.712323	0.225738
563.925487	0.226180
564.138632	0.225752
564.351760	0.225780
564.564869	0.226315
564.777960	0.226125
564.991032	0.226206
565.204087	0.226925
565.417123	0.227064
565.630141	0.227352
565.843140	0.227526
566.056122	0.228107
566.269085	0.228333
566.482030	0.228732
566.694957	0.229318
566.907866	0.229668
567.120756	0.229627
567.333628	0.229777
567.546482	0.230310
567.759318	0.230332
567.972135	0.230342
568.184935	0.230210
568.397716	0.230148
568.610478	0.230016
568.823223	0.229986
569.035949	0.230377
569.248657	0.230602
569.461347	0.230642
569.674019	0.230803
569.886672	0.231315
570.099308	0.231897
570.311925	0.231992
570.524523	0.232301
570.737104	0.232140
570.949666	0.232624
571.162210	0.232679
571.374736	0.232751
571.587244	0.232665
571.799733	0.232888
572.012205	0.232666
572.224658	0.232772
572.437092	0.232734
572.649509	0.233392
572.861907	0.233435
573.074287	0.233835
573.286649	0.234005
573.498993	0.234408
573.711318	0.234749
573.923625	0.235184
574.135914	0.235698
574.348185	0.235893
574.560438	0.236407
574.772672	0.236527
574.984888	0.236524
575.197086	0.237068
575.409266	0.237408
575.621427	0.237052
575.833570	0.237327
576.045695	0.237602
576.257802	0.238054
576.469890	0.238141
576.681961	0.238179
576.894013	0.238292
577.106046	0.238422
577.318062	0.238633
577.530059	0.239061
577.742039	0.239458
577.954000	0.239175
578.165942	0.239479
578.377867	0.239604
578.589773	0.239674
578.801661	0.239897
579.013531	0.239973
579.225382	0.240350
579.437216	0.240812
579.649031	0.241042
579.860828	0.241849
580.072606	0.241897
580.284367	0.242179
580.496109	0.242823
580.707833	0.243318
580.919539	0.243599
581.131227	0.243466
581.342896	0.243366
581.554547	0.243304
581.766180	0.243244
581.977795	0.243785
582.189391	0.244032
582.400969	0.244407
582.612529	0.244405
582.824071	0.244611
583.035595	0.245124
583.247100	0.245390
583.458587	0.245904
583.670056	0.246123
583.881506	0.246027
584.092939	0.245990
584.304353	0.245868
584.515749	0.245956
584.727127	0.246093
584.938486	0.246282
585.149828	0.247043
585.361151	0.246815
585.572456	0.246912
585.783742	0.247052
585.995011	0.247630
586.206261	0.247540
586.417493	0.247892
586.628706	0.248117
586.839902	0.248479
587.051079	0.248491
587.262238	0.248810
587.473379	0.249403
587.684502	0.249814
587.895606	0.249898
588.106692	0.250405
588.317760	0.250709
588.528810	0.251082
588.739841	0.251055
588.950855	0.250808
589.161850	0.250932
589.372827	0.250970
589.583785	0.250981
589.794726	0.250910
590.005648	0.251036
590.216552	0.251123
590.427437	0.251333
590.638305	0.251774
590.849154	0.252229
591.059985	0.252466
591.270798	0.252535
591.481592	0.252999
591.692369	0.253367
591.903127	0.253583
592.113867	0.254441
592.324588	0.254483
592.535292	0.254773
592.745977	0.254895
592.956644	0.255416
593.167293	0.255807
593.377923	0.255950
593.588536	0.256598
593.799130	0.256969
594.009706	0.257260
594.220263	0.257329
594.430803	0.257758
594.641324	0.258036
594.851827	0.258162
595.062312	0.258470
595.272778	0.259285
595.483227	0.259140
595.693657	0.259627
595.904069	0.259308
596.114462	0.259468
596.324838	0.259260
596.535195	0.259108
596.745534	0.259050
596.955855	0.259179
597.166157	0.258881
597.376441	0.259056
597.586707	0.258675
597.796955	0.258806
598.007185	0.259098
598.217396	0.259427
598.427589	0.259861
598.637764	0.260125
598.847921	0.260262
599.058060	0.260403
599.268180	0.260731
599.478282	0.261182
599.688366	0.261308
599.898431	0.261597
600.108479	0.261563
600.318508	0.261928
600.528519	0.262273
600.738511	0.262627
600.948486	0.262633
601.158442	0.262550
601.368380	0.262788
601.578300	0.263355
601.788202	0.263510
601.998085	0.263851
602.207950	0.264184
602.417797	0.264538
602.627626	0.264239
602.837436	0.264606
603.047228	0.265331
603.257002	0.265494
603.466758	0.265233
603.676496	0.265734
603.886215	0.266202
604.095916	0.266444
604.305599	0.266445
604.515264	0.266938
604.724910	0.267333
604.934538	0.267299
605.144148	0.267383
605.353740	0.267838
605.563314	0.267915
605.772869	0.267745
605.982406	0.267722
606.191925	0.267936
606.401425	0.268011
606.610908	0.268211
606.820372	0.268251
607.029818	0.268484
607.239246	0.268417
607.448655	0.268626
607.658047	0.269064
607.867420	0.269236
608.076775	0.269379
608.286111	0.270042
608.495430	0.269945
608.704730	0.269955
608.914012	0.270426
609.123275	0.270536
609.332521	0.270450
609.541748	0.270836
609.750957	0.271353
609.960148	0.271793
610.169321	0.271524
610.378475	0.271615
610.587611	0.272133
610.796729	0.272366
611.005829	0.272774
611.214910	0.273268
611.423974	0.273226
611.633019	0.273393
611.842045	0.273263
612.051054	0.273405
612.260044	0.273890
612.469017	0.273854
612.677970	0.273831
612.886906	0.274022
613.095824	0.274154
613.304723	0.274492
613.513604	0.274464
613.722467	0.275114
613.931311	0.275447
614.140138	0.275656
614.348946	0.275753
614.557736	0.276043
614.766507	0.276240
614.975261	0.276170
615.183996	0.276097
615.392713	0.276371
615.601412	0.275911
615.810092	0.276135
616.018754	0.276202
616.227399	0.276808
616.436024	0.276738
616.644632	0.276879
616.853222	0.277240
617.061793	0.277454
617.270346	0.277537
617.478880	0.277946
617.687397	0.278142
617.895895	0.278312
618.104375	0.278277
618.312837	0.278394
618.521281	0.278493
618.729706	0.278681
618.938113	0.279023
619.146502	0.279138
619.354873	0.279120
619.563226	0.279135
619.771560	0.279108
619.979876	0.279223
620.188174	0.279606
620.396453	0.279811
620.604715	0.279810
620.812958	0.279606
621.021183	0.279828
621.229390	0.280204
621.437578	0.280277
621.645748	0.280560
621.853900	0.280899
622.062034	0.281004
622.270150	0.281359
622.478247	0.281853
622.686326	0.282542
622.894387	0.282731
623.102430	0.282763
623.310454	0.283044
623.518461	0.283580
623.726449	0.283628
623.934418	0.283783
624.142370	0.283968
624.350303	0.283920
624.558218	0.283348
624.766115	0.283441
624.973994	0.283609
625.181855	0.283737
625.389697	0.283466
625.597521	0.283665
625.805327	0.283834
626.013114	0.283903
626.220883	0.283671
626.428634	0.284278
626.636367	0.284356
626.844082	0.284467
627.051778	0.284691
627.259457	0.284818
627.467117	0.285009
627.674758	0.285336
627.882382	0.285503
628.089987	0.285908
628.297574	0.286097
628.505143	0.286256
628.712694	0.286487
628.920226	0.286891
629.127740	0.287205
629.335236	0.287478
629.542714	0.287751
629.750174	0.288152
629.957615	0.288483
630.165038	0.288609
630.372443	0.289019
630.579829	0.289463
630.787198	0.289389
630.994548	0.289555
631.201880	0.289656
631.409194	0.289768
631.616489	0.290086
631.823766	0.290158
632.031025	0.290159
632.238266	0.290231
632.445489	0.290332
632.652693	0.290703
632.859879	0.291064
633.067047	0.291251
633.274197	0.291161
633.481329	0.290878
633.688442	0.291358
633.895537	0.291823
634.102614	0.292262
634.309672	0.292292
634.516713	0.292399
634.723735	0.292383
634.930739	0.292679
635.137724	0.292823
635.344692	0.292997
635.551641	0.293004
635.758572	0.293252
635.965485	0.293428
636.172379	0.293684
636.379256	0.293986
636.586114	0.294138
636.792954	0.294229
636.999775	0.294763
637.206579	0.295300
637.413364	0.295566
637.620131	0.295520
637.826880	0.295436
638.033610	0.295600
638.240323	0.295694
638.447017	0.295874
638.653692	0.296148
638.860350	0.296446
639.066990	0.296553
639.273611	0.296738
639.480214	0.297029
639.686798	0.297195
639.893365	0.297707
640.099913	0.298096
640.306443	0.298526
640.512955	0.298604
640.719449	0.298779
640.925924	0.298788
641.132381	0.298848
641.338820	0.299227
641.545241	0.299441
641.751644	0.299597
641.958028	0.299433
642.164394	0.299554
642.370742	0.299919
642.577071	0.300189
642.783383	0.300584
642.989676	0.301120
643.195951	0.301154
643.402207	0.301414
643.608446	0.301686
643.814666	0.302375
644.020868	0.302447
644.227052	0.302628
644.433218	0.302247
644.639365	0.302129
644.845494	0.302346
645.051605	0.302572
645.257698	0.302783
645.463772	0.302939
645.669828	0.303084
645.875866	0.303556
646.081886	0.303506
646.287888	0.304096
646.493871	0.304527
646.699836	0.304700
646.905783	0.304913
647.111712	0.305233
647.317622	0.305331
647.523514	0.305442
647.729388	0.305519
647.935244	0.305779
648.141082	0.306004
648.346901	0.306350
648.552702	0.306478
648.758485	0.306741
648.964250	0.306751
649.169996	0.306852
649.375724	0.307033
649.581434	0.307116
649.787126	0.307099
649.992800	0.307285
650.198455	0.307332
650.404092	0.307534
650.609711	0.307723
650.815311	0.308278
651.020894	0.308406
651.226458	0.308478
651.432004	0.308979
651.637532	0.309504
651.843041	0.309558
652.048532	0.309832
652.254006	0.309953
652.459460	0.310325
652.664897	0.310466
652.870315	0.310818
653.075716	0.310969
653.281097	0.310938
653.486461	0.311218
653.691807	0.311500
653.897134	0.311644
654.102443	0.312013
654.307734	0.312143
654.513006	0.312274
654.718261	0.312364
654.923497	0.312610
655.128715	0.312905
655.333915	0.312991
655.539096	0.313264
655.744259	0.313384
655.949404	0.313504
656.154531	0.313763
656.359640	0.314068
656.564730	0.314489
656.769802	0.314665
656.974856	0.314829
657.179892	0.315226
657.384909	0.315301
657.589908	0.315779
657.794889	0.316016
657.999852	0.316306
658.204797	0.316672
658.409723	0.316863
658.614631	0.317473
658.819521	0.317766
659.024393	0.318008
659.229246	0.318610
659.434081	0.318952
659.638898	0.319127
659.843697	0.319042
660.048478	0.319381
660.253240	0.319578
660.457984	0.319585
660.662710	0.319820
660.867417	0.319985
661.072107	0.319998
661.276778	0.319992
661.481431	0.320388
661.686066	0.320884
661.890682	0.320502
662.095281	0.320725
662.299861	0.320692
662.504422	0.320917
662.708966	0.321215
662.913491	0.321388
663.117999	0.321472
663.322488	0.321751
663.526958	0.321670
663.731411	0.322382
663.935845	0.322749
664.140261	0.323662
664.344659	0.324188
664.549038	0.324386
664.753400	0.325005
664.957743	0.325562
665.162068	0.325591
665.366375	0.326155
665.570663	0.326406
665.774933	0.326800
665.979185	0.326658
666.183419	0.326748
666.387635	0.326978
666.591832	0.326984
666.796011	0.327014
667.000172	0.327206
667.204315	0.327281
667.408439	0.327360
667.612545	0.327666
667.816634	0.328066
668.020703	0.328510
668.224755	0.328807
668.428788	0.329178
668.632803	0.329718
668.836800	0.329951
669.040779	0.330299
669.244739	0.330478
669.448681	0.330589
669.652605	0.330753
669.856511	0.330813
670.060399	0.330977
670.264268	0.331084
670.468119	0.330886
670.671952	0.331416
670.875767	0.331797
671.079563	0.332114
671.283341	0.332286
671.487101	0.332530
671.690843	0.332572
671.894567	0.332588
672.098272	0.332879
672.301959	0.333213
672.505628	0.333130
672.709278	0.333253
672.912911	0.333349
673.116525	0.333064
673.320121	0.333095
673.523699	0.333397
673.727258	0.334053
673.930799	0.334065
674.134322	0.334616
674.337827	0.334935
674.541314	0.335210
674.744782	0.335599
674.948232	0.336062
675.151664	0.336555
675.355078	0.336899
675.558474	0.336988
675.761851	0.337549
675.965210	0.337813
676.168551	0.338146
676.371873	0.338312
676.575178	0.338660
676.778464	0.339365
676.981732	0.339523
677.184981	0.339693
677.388213	0.339992
677.591426	0.340198
677.794621	0.340370
677.997798	0.340542
678.200956	0.340860
678.404097	0.341123
678.607219	0.341252
678.810323	0.341470
679.013408	0.341506
679.216476	0.341773
679.419525	0.342034
679.622556	0.342218
679.825569	0.342675
680.028563	0.342879
680.231540	0.343066
680.434498	0.343343
680.637438	0.343701
680.840359	0.344155
681.043263	0.344322
681.246148	0.344457
681.449015	0.344675
681.651864	0.344701
681.854694	0.344744
682.057506	0.345138
682.260301	0.345481
682.463076	0.345565
682.665834	0.345831
682.868573	0.346315
683.071295	0.346520
683.273998	0.346924
683.476682	0.347289
683.679349	0.347584
683.881997	0.347571
684.084627	0.347752
684.287239	0.347935
684.489833	0.348078
684.692408	0.347995
684.894965	0.348368
685.097504	0.348447
685.300025	0.348643
685.502527	0.348907
685.705012	0.349294
685.907478	0.349179
686.109925	0.349451
686.312355	0.349598
686.514766	0.349784
686.717159	0.349931
686.919534	0.350330
687.121891	0.350607
687.324230	0.351037
687.526550	0.351378
687.728852	0.351755
687.931136	0.352037
688.133401	0.352543
688.335649	0.352806
688.537878	0.353115
688.740089	0.353073
688.942281	0.353145
689.144456	0.353307
689.346612	0.353306
689.548750	0.353618
689.750870	0.353934
689.952971	0.354190
690.155055	0.354466
690.357120	0.354566
690.559167	0.354940
690.761195	0.355204
690.963206	0.355173
691.165198	0.355400
691.367172	0.355710
691.569128	0.355749
691.771065	0.356103
691.972984	0.356608
692.174885	0.356732
692.376768	0.356876
692.578633	0.357135
692.780479	0.357875
692.982308	0.358102
693.184118	0.357982
693.385909	0.358196
693.587683	0.358251
693.789438	0.358494
693.991175	0.358677
694.192894	0.358656
694.394595	0.358927
694.596277	0.358741
694.797941	0.358925
694.999587	0.359425
695.201215	0.359722
695.402824	0.359598
695.604416	0.359496
695.805989	0.359771
696.007543	0.360294
696.209080	0.360490
696.410598	0.360877
696.612099	0.361100
696.813580	0.361034
697.015044	0.361159
697.216490	0.361232
697.417917	0.361427
697.619326	0.361547
697.820717	0.361478
698.022089	0.361703
698.223444	0.361755
698.424780	0.361645
698.626098	0.361621
698.827397	0.361827
699.028679	0.362265
699.229942	0.362336
699.431187	0.362351
699.632414	0.362486
699.833622	0.362333
700.034813	0.362293
700.235985	0.362527
700.437139	0.363052
700.638274	0.363294
700.839392	0.363355
701.040491	0.363600
701.241572	0.364001
701.442635	0.364341
701.643679	0.364707
701.844706	0.365141
702.045714	0.365344
702.246704	0.365414
702.447675	0.365472
702.648629	0.365687
702.849564	0.365742
703.050481	0.365578
703.251380	0.365584
703.452260	0.365611
703.653122	0.365401
703.853966	0.365467
704.054792	0.365349
704.255600	0.364960
704.456389	0.364903
704.657160	0.364856
704.857913	0.364850
705.058648	0.364894
705.259365	0.365018
705.460063	0.365063
705.660743	0.365060
705.861405	0.365087
706.062048	0.365409
706.262674	0.365482
706.463281	0.365558
706.663870	0.365574
706.864441	0.365629
707.064993	0.365326
707.265527	0.365404
707.466043	0.365410
707.666541	0.365605
707.867021	0.365800
708.067482	0.365817
708.267925	0.366027
708.468350	0.366270
708.668757	0.366192
708.869145	0.366627
709.069516	0.366915
709.269868	0.367186
709.470201	0.367345
709.670517	0.367330
709.870814	0.367782
710.071093	0.367628
710.271354	0.367990
710.471597	0.368248
710.671821	0.367976
710.872028	0.367783
711.072216	0.367770
711.272385	0.367653
711.472537	0.367631
711.672670	0.367334
711.872785	0.367208
712.072882	0.367039
712.272961	0.366849
712.473021	0.367087
712.673063	0.367192
712.873087	0.367091
713.073093	0.367104
713.273081	0.367133
713.473050	0.367020
713.673001	0.367243
713.872934	0.367181
714.072849	0.367269
714.272745	0.367398
714.472623	0.367592
714.672483	0.367431
714.872325	0.367677
715.072148	0.367733
715.271954	0.367825
715.471741	0.367636
715.671509	0.367676
715.871260	0.367692
716.070992	0.367374
716.270707	0.367119
716.470403	0.367595
716.670080	0.367379
716.869740	0.367361
717.069381	0.367381
717.269004	0.367715
717.468609	0.367583
717.668195	0.367446
717.867764	0.367710
718.067314	0.367776
718.266846	0.367412
718.466360	0.367129
718.665855	0.367205
718.865332	0.367182
719.064791	0.366601
719.264232	0.366620
719.463655	0.366582
719.663059	0.366253
719.862445	0.365868
720.061813	0.365591
720.261163	0.365723
720.460494	0.365382
720.659807	0.365351
720.859102	0.365381
721.058379	0.365263
721.257638	0.365236
721.456878	0.365124
721.656100	0.365248
721.855304	0.365327
722.054490	0.365012
722.253657	0.364832
722.452806	0.364407
722.651937	0.364522
722.851050	0.364439
723.050145	0.364270
723.249221	0.364059
723.448279	0.363823
723.647319	0.363894
723.846340	0.364016
724.045344	0.364162
724.244329	0.364248
724.443296	0.364159
724.642245	0.364162
724.841175	0.364287
725.040088	0.364260
725.238982	0.364134
725.437857	0.363939
725.636715	0.363835
725.835554	0.363674
726.034376	0.363554
726.233179	0.363390
726.431963	0.363299
726.630730	0.362886
726.829478	0.362657
727.028208	0.362668
727.226920	0.362314
727.425614	0.362052
727.624289	0.361704
727.822946	0.361593
728.021585	0.361434
728.220206	0.361403
728.418808	0.361287
728.617392	0.361303
728.815958	0.361201
729.014506	0.361393
729.213036	0.361384
729.411547	0.361432
729.610040	0.361185
729.808515	0.360976
730.006972	0.360710
730.205410	0.360788
730.403831	0.361021
730.602233	0.360896
730.800616	0.360629
730.998982	0.360618
731.197329	0.360400
731.395658	0.360591
731.593969	0.360845
731.792262	0.360535
731.990536	0.360305
732.188793	0.360011
732.387031	0.359743
732.585250	0.359707
732.783452	0.359411
732.981635	0.359220
733.179800	0.358746
733.377947	0.358266
733.576076	0.358021
733.774186	0.357843
733.972278	0.357461
734.170352	0.357333
734.368408	0.357148
734.566446	0.356765
734.764465	0.356469
734.962466	0.356292
735.160449	0.356051
735.358413	0.356093
735.556360	0.355986
735.754288	0.356107
735.952198	0.355874
736.150090	0.355609
736.347963	0.355869
736.545818	0.355791
736.743655	0.355858
736.941474	0.355856
737.139275	0.355360
737.337057	0.354816
737.534821	0.354377
737.732567	0.353910
737.930295	0.353277
738.128005	0.352710
738.325696	0.352338
738.523369	0.351751
738.721024	0.351194
738.918660	0.350795
739.116279	0.350641
739.313879	0.350272
739.511461	0.350116
739.709024	0.350263
739.906570	0.350010
740.104097	0.349985
740.301606	0.349782
740.499097	0.349632
740.696569	0.349622
740.894024	0.349519
741.091460	0.349552
741.288878	0.349612
741.486277	0.349267
741.683659	0.349357
741.881022	0.349274
742.078367	0.348905
742.275694	0.348671
742.473002	0.348585
742.670293	0.348342
742.867565	0.348110
743.064819	0.347990
743.262054	0.348074
743.459272	0.347657
743.656471	0.347088
743.853652	0.347256
744.050815	0.347065
744.247959	0.346978
744.445085	0.346840
744.642194	0.346686
744.839283	0.346556
745.036355	0.346020
745.233408	0.345805
745.430444	0.345810
745.627461	0.345303
745.824459	0.344952
746.021440	0.344374
746.218402	0.344123
746.415346	0.343640
746.612272	0.343068
746.809180	0.342821
747.006069	0.342663
747.202940	0.342635
747.399793	0.342689
747.596628	0.342748
747.793444	0.342839
747.990243	0.342753
748.187023	0.342807
748.383784	0.342833
748.580528	0.342854
748.777253	0.342708
748.973960	0.342321
749.170649	0.341970
749.367320	0.341868
749.563973	0.341484
749.760607	0.341215
749.957223	0.340886
750.153821	0.340387
750.350400	0.340126
750.546962	0.339879
750.743505	0.339746
750.940030	0.339528
751.136536	0.339009
751.333025	0.338572
751.529495	0.338271
751.725947	0.338149
751.922381	0.338316
752.118796	0.338102
752.315194	0.337807
752.511573	0.337457
752.707934	0.337354
752.904276	0.337558
753.100601	0.337867
753.296907	0.337520
753.493195	0.337042
753.689465	0.336608
753.885716	0.336380
754.081949	0.336191
754.278164	0.336054
754.474361	0.336116
754.670540	0.335617
754.866700	0.335481
755.062843	0.335494
755.258967	0.335488
755.455072	0.335298
755.651160	0.335087
755.847229	0.334777
756.043280	0.334524
756.239313	0.334111
756.435328	0.334186
756.631324	0.333644
756.827302	0.333519
757.023262	0.333213
757.219204	0.333210
757.415127	0.332991
757.611033	0.332439
757.806920	0.332097
758.002788	0.331633
758.198639	0.331154
758.394471	0.330934
758.590286	0.330666
758.786081	0.330436
758.981859	0.329882
759.177619	0.329479
759.373360	0.329457
759.569083	0.329704
759.764788	0.329686
759.960474	0.329531
760.156143	0.329665
760.351793	0.329352
760.547425	0.329211
760.743038	0.329128
760.938634	0.329061
761.134211	0.329560
761.329770	0.329140
761.525311	0.328949
761.720833	0.328852
761.916338	0.328815
762.111824	0.328781
762.307292	0.328639
762.502741	0.328622
762.698173	0.328916
762.893586	0.328418
763.088981	0.328043
763.284358	0.328018
763.479716	0.327850
763.675057	0.327477
763.870379	0.327245
764.065683	0.326877
764.260968	0.326670
764.456236	0.326344
764.651485	0.326439
764.846716	0.326684
765.041929	0.326477
765.237123	0.326505
765.432299	0.326206
765.627457	0.326072
765.822597	0.326212
766.017719	0.326368
766.212822	0.326088
766.407907	0.325698
766.602974	0.325326
766.798023	0.325213
766.993054	0.324851
767.188066	0.324958
767.383060	0.324888
767.578036	0.324526
767.772993	0.324277
767.967933	0.324077
768.162854	0.323919
768.357757	0.324150
768.552642	0.324066
768.747508	0.324125
768.942356	0.323727
769.137186	0.323611
769.331998	0.323873
769.526792	0.323664
769.721567	0.323879
769.916324	0.323592
770.111063	0.323140
770.305784	0.323024
770.500486	0.322878
770.695171	0.323107
770.889837	0.323257
771.084484	0.323190
771.279114	0.323185
771.473725	0.323026
771.668318	0.323227
771.862893	0.323075
772.057450	0.322947
772.251988	0.322907
772.446509	0.322730
772.641011	0.322092
772.835494	0.321853
773.029960	0.321631
773.224407	0.321205
773.418836	0.321145
773.613247	0.321394
773.807640	0.321256
774.002014	0.321241
774.196370	0.320756
774.390708	0.321013
774.585028	0.320887
774.779330	0.320657
774.973613	0.320644
775.167878	0.320289
775.362125	0.320003
775.556354	0.319738
775.750564	0.319630
775.944756	0.319621
776.138930	0.319567
776.333086	0.319671
776.527223	0.319580
776.721343	0.319824
776.915444	0.319841
777.109526	0.319765
777.303591	0.319837
777.497637	0.319697
777.691666	0.319654
777.885676	0.319343
778.079667	0.318908
778.273641	0.319017
778.467596	0.318755
778.661533	0.318678
778.855452	0.318849
779.049352	0.318851
779.243235	0.318754
779.437099	0.319073
779.630945	0.319337
779.824773	0.319410
780.018582	0.319431
780.212373	0.319436
780.406146	0.319704
780.599901	0.319536
780.793638	0.319651
780.987356	0.319734
781.181056	0.319709
781.374738	0.319789
781.568402	0.319963
781.762047	0.320216
781.955674	0.320165
782.149283	0.320137
782.342874	0.320127
782.536447	0.320100
782.730001	0.320168
782.923537	0.319876
783.117055	0.319957
783.310555	0.319900
783.504036	0.319757
783.697499	0.319923
783.890944	0.319914
784.084371	0.320090
784.277780	0.320123
784.471170	0.320040
784.664542	0.320243
784.857896	0.320192
785.051231	0.320468
785.244549	0.320278
785.437848	0.320372
785.631129	0.320173
785.824392	0.320375
786.017636	0.320470
786.210863	0.320402
786.404071	0.320432
786.597260	0.320393
786.790432	0.320339
786.983585	0.320542
787.176721	0.320368
787.369838	0.320627
787.562936	0.320153
787.756017	0.320280
787.949079	0.320458
788.142123	0.320441
788.335149	0.320434
788.528156	0.320748
788.721146	0.320682
788.914117	0.320736
789.107070	0.320723
789.300005	0.320872
789.492921	0.320576
789.685819	0.320406
789.878699	0.320318
790.071561	0.320381
790.264405	0.320137
790.457230	0.320307
790.650037	0.320717
790.842826	0.320945
791.035597	0.321094
791.228349	0.321417
791.421084	0.321612
791.613800	0.321963
791.806497	0.321997
791.999177	0.322193
792.191838	0.322520
792.384481	0.322550
792.577106	0.322651
792.769713	0.322908
792.962301	0.323115
793.154871	0.323460
793.347423	0.323659
793.539957	0.323741
793.732473	0.324010
793.924970	0.323941
794.117449	0.323761
794.309910	0.323614
794.502353	0.323730
794.694777	0.323733
794.887183	0.323838
795.079571	0.323994
795.271941	0.324473
795.464293	0.324489
795.656626	0.324704
795.848941	0.324969
796.041238	0.325468
796.233516	0.325437
796.425777	0.325643
796.618019	0.325735
796.810243	0.325668
797.002449	0.325676
797.194636	0.325907
797.386805	0.326035
797.578956	0.326288
797.771089	0.326259
797.963204	0.326596
798.155300	0.326810
798.347378	0.327158
798.539438	0.327548
798.731480	0.327356
798.923503	0.327221
799.115509	0.327123
799.307496	0.327186
799.499465	0.327103
799.691415	0.327149
799.883348	0.327077
800.075262	0.327172
800.267158	0.327236
800.459035	0.327585
800.650895	0.327774
800.842736	0.328206
801.034559	0.328555
801.226364	0.329078
801.418150	0.329088
801.609919	0.329290
801.801669	0.329310
801.993401	0.329271
802.185114	0.329538
802.376810	0.329868
802.568487	0.329859
802.760146	0.330086
802.951787	0.330031
803.143409	0.330514
803.335014	0.330980
803.526600	0.331623
803.718168	0.332059
803.909717	0.332229
804.101249	0.332602
804.292762	0.333029
804.484257	0.332776
804.675734	0.333178
804.867192	0.333339
805.058632	0.333578
805.250054	0.333382
805.441458	0.333670
805.632844	0.333906
805.824211	0.334062
806.015561	0.334040
806.206891	0.334778
806.398204	0.335127
806.589499	0.335469
806.780775	0.335624
806.972033	0.335994
807.163273	0.336279
807.354495	0.336633
807.545698	0.336599
807.736883	0.337223
807.928050	0.337357
808.119199	0.337632
808.310329	0.337670
808.501441	0.337875
808.692535	0.338182
808.883611	0.338496
809.074669	0.338700
809.265708	0.339183
809.456729	0.339301
809.647732	0.339666
809.838717	0.339922
810.029683	0.340282
810.220632	0.340779
810.411562	0.340612
810.602474	0.340803
810.793367	0.341223
810.984242	0.341640
811.175100	0.341840
811.365938	0.342284
811.556759	0.342604
811.747562	0.342799
811.938346	0.342755
812.129112	0.343224
812.319860	0.343479
812.510589	0.343631
812.701300	0.343766
812.891994	0.343651
813.082668	0.343694
813.273325	0.344093
813.463964	0.344467
813.654584	0.345016
813.845186	0.345438
814.035769	0.345828
814.226335	0.346315
814.416882	0.346580
814.607411	0.347545
814.797922	0.347927
814.988415	0.348136
815.178889	0.348758
815.369345	0.348843
815.559783	0.349394
815.750203	0.349836
815.940605	0.350323
816.130988	0.350770
816.321353	0.350990
816.511700	0.351141
816.702028	0.351446
816.892339	0.351603
817.082631	0.352017
817.272905	0.352024
817.463161	0.351998
817.653398	0.351932
817.843617	0.352346
818.033819	0.352796
818.224001	0.353329
818.414166	0.353370
818.604312	0.354025
818.794440	0.354477
818.984550	0.354737
819.174642	0.354999
819.364716	0.355487
819.554771	0.355675
819.744808	0.355942
819.934827	0.356111
820.124827	0.356841
820.314810	0.356905
820.504774	0.357304
820.694720	0.357837
820.884647	0.358385
821.074557	0.358855
821.264448	0.359031
821.454321	0.359109
821.644176	0.359449
821.834012	0.359386
822.023831	0.359484
822.213631	0.359965
822.403413	0.360138
822.593176	0.360605
822.782922	0.360781
822.972649	0.361048
823.162358	0.361606
823.352049	0.361890
823.541721	0.362621
823.731376	0.363113
823.921012	0.363203
824.110629	0.363784
824.300229	0.364123
824.489811	0.364243
824.679374	0.364999
824.868919	0.365262
825.058445	0.365737
825.247954	0.366207
825.437444	0.366444
825.626916	0.366826
825.816370	0.367314
826.005806	0.367636
826.195223	0.367958
826.384622	0.368183
826.574003	0.368529
826.763366	0.369138
826.952711	0.369271
827.142037	0.370063
827.331345	0.370379
827.520635	0.370575
827.709906	0.370844
827.899160	0.371482
828.088395	0.372054
828.277612	0.372819
828.466810	0.372812
828.655991	0.373295
828.845153	0.373886
829.034297	0.374689
829.223423	0.375128
829.412531	0.375676
829.601620	0.376224
829.790691	0.376440
829.979744	0.376500
830.168779	0.377021
830.357795	0.377378
830.546793	0.377372
830.735773	0.377358
830.924735	0.377600
831.113679	0.378040
831.302604	0.378517
831.491511	0.378766
831.680400	0.379027
831.869271	0.379663
832.058123	0.380347
832.246957	0.380685
832.435773	0.381361
832.624571	0.381784
832.813351	0.381921
833.002112	0.382364
833.190855	0.382801
833.379580	0.383303
833.568287	0.383457
833.756975	0.383508
833.945645	0.383736
834.134297	0.383770
834.322931	0.384522
834.511547	0.385355
834.700144	0.385650
834.888723	0.386341
835.077284	0.386941
835.265826	0.387518
835.454351	0.387996
835.642857	0.388924
835.831345	0.389688
836.019815	0.389940
836.208266	0.389956
836.396699	0.390599
836.585114	0.391066
836.773511	0.391900
836.961890	0.392051
837.150250	0.392648
837.338592	0.393053
837.526916	0.393580
837.715222	0.394101
837.903510	0.394988
838.091779	0.395167
838.280030	0.395766
838.468263	0.395899
838.656477	0.396823
838.844674	0.397100
839.032852	0.397326
839.221012	0.397681
839.409153	0.398066
839.597277	0.398369
839.785382	0.399001
839.973469	0.399354
840.161538	0.399846
840.349589	0.400323
840.537621	0.400943
840.725635	0.401406
840.913631	0.401840
841.101609	0.402635
841.289568	0.402749
841.477509	0.403194
841.665432	0.403378
841.853337	0.404066
842.041224	0.404552
842.229092	0.405431
842.416942	0.406100
842.604774	0.406776
842.792588	0.407270
842.980383	0.408147
843.168160	0.408757
843.355919	0.409596
843.543660	0.410040
843.731382	0.410980
843.919087	0.410981
844.106773	0.411468
844.294441	0.411535
844.482090	0.411729
844.669722	0.412293
844.857335	0.412849
845.044930	0.413024
845.232507	0.413157
845.420065	0.413022
845.607605	0.413483
845.795127	0.414026
845.982631	0.414588
846.170117	0.415642
846.357584	0.416025
846.545033	0.416276
846.732464	0.416658
846.919877	0.417159
847.107272	0.417579
847.294648	0.418106
847.482006	0.418594
847.669346	0.419277
847.856667	0.419311
848.043971	0.419727
848.231256	0.420244
848.418523	0.421137
848.605771	0.421735
848.793002	0.422224
848.980214	0.422945
849.167408	0.423617
849.354584	0.424348
849.541742	0.424646
849.728881	0.425192
849.916002	0.425729
850.103105	0.425766
850.290190	0.426468
850.477256	0.427237
850.664304	0.426943
850.851334	0.427206
851.038346	0.427040
851.225340	0.427518
851.412315	0.427893
851.599272	0.428350
851.786211	0.428680
851.973132	0.428756
852.160034	0.429065
852.346918	0.430244
852.533784	0.430589
852.720632	0.431179
852.907462	0.431631
853.094273	0.432314
853.281066	0.432992
853.467841	0.433694
853.654598	0.433867
853.841336	0.434178
854.028056	0.434397
854.214758	0.434974
854.401442	0.436051
854.588107	0.436588
854.774755	0.437124
854.961384	0.437392
855.147995	0.437958
855.334587	0.439335
855.521162	0.439576
855.707718	0.440246
855.894256	0.440098
856.080775	0.440675
856.267277	0.441373
856.453760	0.441761
856.640225	0.441823
856.826672	0.442035
857.013101	0.442213
857.199511	0.442899
857.385903	0.443013
857.572277	0.443758
857.758633	0.443774
857.944970	0.443848
858.131290	0.444116
858.317591	0.444558
858.503873	0.445063
858.690138	0.445291
858.876384	0.445783
859.062612	0.446648
859.248822	0.447124
859.435014	0.447016
859.621188	0.447140
859.807343	0.447221
859.993480	0.447950
860.179599	0.448445
860.365699	0.448877
860.551781	0.449358
860.737846	0.449241
860.923891	0.449321
861.109919	0.449859
861.295929	0.450807
861.481920	0.451848
861.667893	0.452046
861.853848	0.452791
862.039784	0.453105
862.225702	0.453280
862.411603	0.454088
862.597484	0.454790
862.783348	0.455561
862.969193	0.455480
863.155021	0.455524
863.340830	0.456164
863.526620	0.456248
863.712393	0.456831
863.898147	0.457315
864.083883	0.457389
864.269601	0.457684
864.455301	0.457897
864.640982	0.458979
864.826645	0.459510
865.012290	0.460171
865.197917	0.460847
865.383526	0.461374
865.569116	0.461944
865.754688	0.462216
865.940242	0.462908
866.125777	0.463447
866.311295	0.463313
866.496794	0.464047
866.682275	0.464357
866.867737	0.464794
867.053182	0.464762
867.238608	0.465086
867.424016	0.465821
867.609406	0.465885
867.794778	0.466263
867.980131	0.466734
868.165466	0.466268
868.350783	0.466139
868.536082	0.466088
868.721362	0.466187
868.906625	0.466150
869.091869	0.465936
869.277094	0.466573
869.462302	0.467316
869.647491	0.467814
869.832662	0.468529
870.017815	0.469153
870.202950	0.469834
870.388066	0.470636
870.573165	0.471185
870.758245	0.472149
870.943306	0.471839
871.128350	0.471758
871.313375	0.471851
871.498382	0.471933
871.683371	0.472069
871.868342	0.471720
872.053294	0.472000
872.238229	0.472411
872.423144	0.472601
872.608042	0.473347
872.792922	0.473695
872.977783	0.473643
873.162626	0.474378
873.347451	0.474711
873.532258	0.475279
873.717046	0.475503
873.901816	0.475737
874.086568	0.476222
874.271302	0.476789
874.456017	0.476867
874.640715	0.478019
874.825394	0.478235
875.010055	0.478257
875.194697	0.478656
875.379322	0.478865
875.563928	0.478949
875.748516	0.479133
875.933085	0.479425
876.117637	0.479821
876.302170	0.479857
876.486685	0.480113
876.671182	0.480994
876.855661	0.481282
877.040121	0.481723
877.224563	0.481994
877.408987	0.482123
877.593393	0.482383
877.777780	0.482396
877.962150	0.482468
878.146501	0.482495
878.330833	0.482038
878.515148	0.482403
878.699444	0.482111
878.883722	0.482406
879.067982	0.482344
879.252224	0.481609
879.436447	0.481718
879.620653	0.481754
879.804840	0.481672
879.989008	0.482343
880.173159	0.482024
880.357291	0.482508
880.541405	0.483004
880.725501	0.483129
880.909579	0.484053
881.093638	0.484591
881.277680	0.484839
881.461703	0.485297
881.645707	0.484779
881.829694	0.485227
882.013662	0.485084
882.197612	0.485038
882.381544	0.484923
882.565458	0.485193
882.749353	0.484736
882.933230	0.484602
883.117089	0.485030
883.300930	0.484919
883.484753	0.484832
883.668557	0.485213
883.852343	0.485194
884.036111	0.485302
884.219861	0.484888
884.403592	0.485250
884.587305	0.485516
884.771000	0.484726
884.954677	0.485014
885.138335	0.484426
885.321976	0.484049
885.505598	0.483990
885.689201	0.484104
885.872787	0.484423
886.056354	0.484664
886.239904	0.484613
886.423434	0.484688
886.606947	0.485174
886.790442	0.485503
886.973918	0.485901
887.157376	0.485497
887.340816	0.485186
887.524237	0.485539
887.707641	0.485131
887.891026	0.485389
888.074393	0.485941
888.257741	0.485946
888.441072	0.485654
888.624384	0.485644
888.807678	0.485760
888.990954	0.486268
889.174211	0.485755
889.357451	0.485838
889.540672	0.485618
889.723875	0.485554
889.907059	0.485253
890.090226	0.485874
890.273374	0.485464
890.456504	0.485457
890.639616	0.485163
890.822709	0.485026
891.005785	0.484927
891.188842	0.484771
891.371881	0.484452
891.554901	0.484258
891.737904	0.484284
891.920888	0.484359
892.103854	0.484363
892.286802	0.484202
892.469731	0.484123
892.652643	0.484123
892.835536	0.484027
893.018410	0.484151
893.201267	0.484139
893.384106	0.483815
893.566926	0.484155
893.749728	0.484366
893.932511	0.484243
894.115277	0.483723
894.298024	0.483355
894.480753	0.482887
894.663464	0.482341
894.846157	0.481754
895.028831	0.481949
895.211487	0.481685
895.394125	0.481418
895.576745	0.481413
895.759346	0.482207
895.941930	0.481968
896.124495	0.482264
896.307041	0.482155
896.489570	0.483108
896.672080	0.482418
896.854573	0.481750
897.037046	0.481247
897.219502	0.480862
897.401940	0.480425
897.584359	0.480791
897.766760	0.480664
897.949143	0.480474
898.131507	0.479863
898.313854	0.480145
898.496182	0.480388
898.678492	0.481004
898.860783	0.481104
899.043057	0.481212
899.225312	0.480612
899.407549	0.480201
899.589768	0.479771
899.771968	0.479791
899.954151	0.479456
900.136315	0.479441
900.318461	0.478552
900.500588	0.478611
900.682698	0.477665
900.864789	0.477937
901.046862	0.477360
901.228917	0.477210
901.410953	0.476330
901.592971	0.475783
901.774972	0.475031
901.956953	0.474430
902.138917	0.473866
902.320862	0.473165
902.502790	0.471865
902.684699	0.472062
902.866589	0.471667
903.048462	0.471469
903.230316	0.471239
903.412152	0.471134
903.593970	0.471192
903.775770	0.470191
903.957551	0.469860
904.139314	0.469870
904.321059	0.468948
904.502786	0.468696
904.684494	0.468725
904.866185	0.468200
905.047857	0.467206
905.229510	0.466884
905.411146	0.467271
905.592763	0.467733
905.774363	0.467580
905.955943	0.467869
906.137506	0.467715
906.319051	0.466601
906.500577	0.466111
906.682085	0.465793
906.863575	0.465260
907.045046	0.464257
907.226500	0.463012
907.407935	0.462729
907.589352	0.462172
907.770750	0.461646
907.952131	0.461561
908.133493	0.461373
908.314837	0.461116
908.496163	0.461232
908.677470	0.460816
908.858760	0.460234
909.040031	0.459063
909.221284	0.458147
909.402518	0.457461
909.583735	0.456630
909.764933	0.456248
909.946113	0.456258
910.127275	0.454577
910.308418	0.454004
910.489544	0.453933
910.670651	0.454281
910.851740	0.453724
911.032810	0.453758
911.213863	0.453076
911.394897	0.451860
911.575913	0.450635
911.756911	0.450689
911.937890	0.450455
912.118851	0.449383
912.299794	0.447863
912.480719	0.447004
912.661626	0.445638
912.842514	0.445456
913.023384	0.445195
913.204236	0.444623
913.385070	0.443947
913.565886	0.442993
913.746683	0.442690
913.927462	0.442046
914.108223	0.441632
914.288965	0.440788
914.469690	0.439613
914.650396	0.438757
914.831084	0.438457
915.011754	0.437355
915.192405	0.436819
915.373038	0.435487
915.553653	0.435022
915.734250	0.433862
915.914829	0.433220
916.095389	0.433219
916.275931	0.432685
916.456455	0.431714
916.636961	0.431741
916.817448	0.430574
916.997917	0.431070
917.178368	0.430109
917.358801	0.430135
917.539216	0.429567
917.719612	0.428253
917.899990	0.427915
918.080350	0.427535
918.260692	0.426908
918.441015	0.427093
918.621320	0.424945
918.801607	0.425182
918.981876	0.424011
919.162127	0.423937
919.342359	0.423260
919.522573	0.421908
919.702769	0.420793
919.882947	0.418393
920.063106	0.417009
920.243247	0.417029
920.423370	0.415945
920.603475	0.415067
920.783562	0.413657
920.963630	0.412643
921.143680	0.411923
921.323712	0.411079
921.503725	0.410879
921.683721	0.410434
921.863698	0.409256
922.043657	0.407882
922.223598	0.407407
922.403520	0.406970
922.583424	0.406532
922.763311	0.405798
922.943178	0.405438
923.123028	0.405242
923.302859	0.403807
923.482673	0.403619
923.662467	0.403487
923.842244	0.402724
924.022003	0.401880
924.201743	0.400723
924.381465	0.400277
924.561169	0.398725
924.740854	0.396909
924.920522	0.396585
925.100171	0.395190
925.279802	0.393360
925.459414	0.392418
925.639009	0.391666
925.818585	0.390636
925.998143	0.389334
926.177683	0.388447
926.357205	0.387931
926.536708	0.387366
926.716193	0.386490
926.895660	0.386310
927.075109	0.386023
927.254539	0.384232
927.433951	0.383838
927.613345	0.383082
927.792721	0.383110
927.972079	0.382700
928.151418	0.381276
928.330739	0.380100
928.510042	0.379074
928.689327	0.376819
928.868593	0.376608
929.047841	0.375052
929.227071	0.373843
929.406283	0.371882
929.585476	0.370144
929.764652	0.368999
929.943809	0.368556
930.122948	0.367480
930.302068	0.367222
930.481171	0.365878
930.660255	0.365143
930.839321	0.364122
931.018369	0.362752
931.197398	0.362270
931.376409	0.360877
931.555402	0.359330
931.734377	0.357725
931.913334	0.356707
932.092272	0.355291
932.271192	0.354496
932.450094	0.354275
932.628978	0.353562
932.807844	0.351854
932.986691	0.351039
933.165520	0.349370
933.344331	0.348520
933.523123	0.346937
933.701898	0.346431
933.880654	0.345187
934.059392	0.342770
934.238111	0.341084
934.416813	0.340023
934.595496	0.338360
934.774161	0.338127
934.952808	0.336847
935.131437	0.336628
935.310047	0.335153
935.488639	0.333761
935.667213	0.333651
935.845769	0.333121
936.024306	0.332299
936.202825	0.331636
936.381326	0.330193
936.559809	0.329366
936.738274	0.327751
936.916720	0.326792
937.095148	0.325909
937.273558	0.323688
937.451950	0.322127
937.630323	0.320737
937.808678	0.319329
937.987015	0.318824
938.165334	0.317270
938.343635	0.315572
938.521917	0.314105
938.700181	0.313201
938.878427	0.312954
939.056655	0.312240
939.234864	0.310758
939.413055	0.309872
939.591228	0.307709
939.769383	0.306506
939.947519	0.306471
940.125638	0.304964
940.303738	0.303993
940.481820	0.302693
940.659883	0.300947
940.837929	0.299891
941.015956	0.298263
941.193965	0.299417
941.371955	0.298602
941.549928	0.294758
941.727882	0.293583
941.905818	0.291622
942.083736	0.289706
942.261636	0.289544
942.439517	0.288372
942.617380	0.287896
942.795225	0.284967
942.973052	0.283713
943.150860	0.283488
943.328651	0.282902
943.506423	0.282519
943.684176	0.282031
943.861912	0.280264
944.039629	0.279647
944.217328	0.278148
944.395009	0.277347
944.572672	0.276189
944.750317	0.275451
944.927943	0.274314
945.105551	0.271288
945.283141	0.268392
945.460712	0.267158
945.638265	0.265162
945.815801	0.263478
945.993317	0.261940
946.170816	0.260231
946.348297	0.259324
946.525759	0.258676
946.703203	0.258019
946.880629	0.257224
947.058036	0.254767
947.235425	0.253575
947.412797	0.252880
947.590149	0.252069
947.767484	0.250223
947.944800	0.247358
948.122099	0.244422
948.299379	0.243203
948.476640	0.241921
948.653884	0.240066
948.831109	0.237912
949.008316	0.236009
949.185505	0.234137
949.362676	0.231978
949.539828	0.231225
949.716962	0.229178
949.894078	0.227613
950.071176	0.226044
950.248256	0.226489
950.425317	0.226086
950.602360	0.224846
950.779385	0.223719
950.956391	0.222615
951.133380	0.222043
951.310350	0.222558
951.487302	0.223467
951.664235	0.222770
951.841151	0.220781
952.018048	0.220963
952.194927	0.220729
952.371788	0.218952
952.548631	0.220355
952.725455	0.218631
952.902261	0.215299
953.079049	0.212701
953.255819	0.212651
953.432570	0.213276
953.609303	0.213297
953.786018	0.213195
953.962715	0.213650
954.139394	0.212003
954.316054	0.209064
954.492696	0.208505
954.669320	0.205495
954.845926	0.202884
955.022513	0.198821
955.199083	0.194526
955.375634	0.190886
955.552166	0.188265
955.728681	0.186655
955.905177	0.187599
956.081655	0.187251
956.258115	0.187746
956.434557	0.186614
956.610980	0.187349
956.787385	0.186617
956.963772	0.186680
957.140141	0.185581
957.316492	0.184439
957.492824	0.182391
957.669138	0.180980
957.845434	0.181102
958.021712	0.180058
958.197971	0.177654
958.374212	0.175888
958.550435	0.176041
958.726640	0.174246
958.902826	0.172505
959.078995	0.173609
959.255145	0.174208
959.431277	0.171348
959.607390	0.170603
959.783486	0.170972
959.959563	0.171547
960.135622	0.170310
960.311662	0.169964
960.487685	0.169831
960.663689	0.168868
960.839675	0.168687
961.015643	0.169421
961.191593	0.168379
961.367524	0.168663
961.543437	0.170125
961.719332	0.167089
961.895209	0.166606
962.071067	0.165482
962.246907	0.162473
962.422730	0.160344
962.598533	0.159343
962.774319	0.157834
962.950086	0.156322
963.125835	0.153412
963.301566	0.154623
963.477279	0.153143
963.652973	0.153531
963.828650	0.155669
964.004308	0.153223
964.179947	0.152710
964.355569	0.153968
964.531172	0.152293
964.706757	0.152413
964.882324	0.152746
965.057873	0.154546
965.233403	0.153022
965.408916	0.152977
965.584410	0.155306
965.759885	0.156298
965.935343	0.158419
966.110782	0.160251
966.286203	0.163464
966.461606	0.160602
966.636991	0.158998
966.812357	0.160545
966.987705	0.160635
967.163035	0.159351
967.338347	0.159062
967.513641	0.156881
967.688916	0.157478
967.864173	0.153871
968.039412	0.156633
968.214632	0.158641
968.389835	0.155840
968.565019	0.154396
968.740185	0.153321
968.915333	0.152919
969.090462	0.151150
969.265573	0.147822
969.440667	0.145640
969.615741	0.142583
969.790798	0.140043
969.965836	0.143624
970.140856	0.143657
970.315858	0.145066
970.490842	0.144065
970.665808	0.145450
970.840755	0.147617
971.015684	0.150000
971.190595	0.150733
971.365487	0.150508
971.540362	0.151243
971.715218	0.151288
971.890056	0.149990
972.064875	0.148839
972.239677	0.148343
972.414460	0.148859
972.589225	0.151088
972.763972	0.152810
972.938700	0.153266
973.113411	0.148564
973.288103	0.147678
973.462777	0.150433
973.637432	0.152837
973.812070	0.151360
973.986689	0.151457
974.161290	0.148924
974.335873	0.149100
974.510437	0.149558
974.684984	0.153139
974.859512	0.153097
975.034022	0.151211
975.208513	0.150716
975.382987	0.152440
975.557442	0.152205
975.731879	0.152003
975.906298	0.151855
976.080698	0.151191
976.255080	0.149373
976.429445	0.151009
976.603790	0.152308
976.778118	0.149199
976.952427	0.148834
977.126719	0.147406
977.300992	0.145547
977.475246	0.144833
977.649483	0.147010
977.823701	0.146766
977.997901	0.145241
978.172083	0.143265
978.346247	0.143529
978.520392	0.141888
978.694519	0.143708
978.868628	0.145425
979.042719	0.146517
979.216791	0.143654
979.390845	0.144724
979.564882	0.143870
979.738899	0.145394
979.912899	0.146588
980.086880	0.150001
980.260843	0.150384
980.434788	0.151809
980.608715	0.151474
980.782623	0.154521
980.956514	0.154709
981.130386	0.156672
981.304240	0.155604
981.478075	0.154516
981.651892	0.151398
981.825692	0.148883
981.999472	0.147084
982.173235	0.146749
982.346980	0.146756
982.520706	0.146458
982.694414	0.146545
982.868104	0.148598
983.041775	0.149530
983.215428	0.150562
983.389064	0.152026
983.562680	0.152429
983.736279	0.149845
983.909860	0.148741
984.083422	0.148023
984.256966	0.146216
984.430491	0.145090
984.603999	0.145894
984.777488	0.143345
984.950959	0.143136
985.124412	0.141931
985.297847	0.145546
985.471263	0.145605
985.644661	0.147090
985.818041	0.147233
985.991403	0.146647
986.164747	0.145305
986.338072	0.147434
986.511379	0.146371
986.684668	0.148209
986.857938	0.144816
987.031191	0.144380
987.204425	0.142881
987.377641	0.143447
987.550839	0.145032
987.724018	0.146959
987.897179	0.146663
988.070322	0.145992
988.243447	0.145751
988.416554	0.149371
988.589642	0.151548
988.762712	0.151868
988.935764	0.153778
989.108798	0.150457
989.281813	0.148005
989.454811	0.150028
989.627790	0.151730
989.800751	0.149286
989.973693	0.146429
990.146617	0.145708
990.319524	0.146009
990.492412	0.143124
990.665281	0.145460
990.838133	0.144248
991.010966	0.143269
991.183781	0.142440
991.356578	0.145626
991.529356	0.146681
991.702117	0.144436
991.874859	0.143914
992.047583	0.145922
992.220288	0.146311
992.392976	0.149793
992.565645	0.149836
992.738296	0.150216
992.910929	0.150099
993.083543	0.148826
993.256139	0.150360
993.428718	0.150467
993.601277	0.149133
993.773819	0.148815
993.946342	0.145886
994.118848	0.144423
994.291335	0.143773
994.463803	0.141508
994.636254	0.141969
994.808686	0.143376
994.981100	0.143432
995.153496	0.141464
995.325874	0.139388
995.498233	0.140571
995.670574	0.141742
995.842897	0.143238
996.015202	0.145250
996.187488	0.144419
996.359757	0.143722
996.532007	0.144093
996.704239	0.147199
996.876452	0.149132
997.048648	0.150270
997.220825	0.148741
997.392984	0.147483
997.565124	0.148020
997.737247	0.148812
997.909351	0.146994
998.081437	0.147189
998.253505	0.148109
998.425554	0.147403
998.597586	0.146054
998.769599	0.146285
998.941594	0.147737
999.113571	0.146524
999.285529	0.147553
999.457469	0.148004
999.629391	0.149002
999.801295	0.147084
999.973181	0.148576
1000.145048	0.149010
1000.316897	0.150950
1000.488728	0.150423
1000.660541	0.150654
1000.832335	0.151701
1001.004111	0.150400
1001.175869	0.151245
1001.347609	0.152384
1001.519331	0.152443
1001.691034	0.153228
1001.862719	0.153371
1002.034386	0.153437
1002.206035	0.154347
1002.377665	0.154687
1002.549277	0.156265
1002.720871	0.152647
1002.892447	0.153274
1003.064004	0.152424
1003.235544	0.151258
1003.407065	0.149977
1003.578568	0.150282
1003.750052	0.149378
1003.921519	0.147652
1004.092967	0.146776
1004.264397	0.148064
1004.435809	0.147117
1004.607202	0.147029
1004.778577	0.147767
1004.949934	0.147421
1005.121273	0.143893
1005.292594	0.144334
1005.463896	0.144451
1005.635180	0.144768
1005.806446	0.143497
1005.977694	0.142460
1006.148923	0.142577
1006.320135	0.142955
1006.491328	0.142985
1006.662503	0.145747
1006.833659	0.145589
1007.004798	0.146316
1007.175918	0.147661
1007.347020	0.146784
1007.518103	0.147748
1007.689169	0.148448
1007.860216	0.147462
1008.031245	0.148648
1008.202256	0.147202
1008.373248	0.146154
1008.544223	0.146219
1008.715179	0.144652
1008.886117	0.146558
1009.057036	0.147694
1009.227938	0.147941
1009.398821	0.149194
1009.569686	0.148600
1009.740533	0.150057
1009.911361	0.150946
1010.082172	0.149711
1010.252964	0.150194
1010.423738	0.150407
1010.594493	0.149061
1010.765231	0.147945
1010.935950	0.148035
1011.106651	0.148900
1011.277334	0.148719
1011.447998	0.149379
1011.618645	0.148320
1011.789273	0.148533
1011.959882	0.148355
1012.130474	0.148075
1012.301048	0.149022
1012.471603	0.148380
1012.642140	0.147954
1012.812658	0.148129
1012.983159	0.146624
1013.153641	0.146912
1013.324105	0.146247
1013.494551	0.147246
1013.664979	0.148313
1013.835388	0.148883
1014.005779	0.148930
1014.176152	0.148220
1014.346507	0.147112
1014.516843	0.147642
1014.687162	0.148244
1014.857462	0.148383
1015.027744	0.146170
1015.198007	0.144613
1015.368252	0.142118
1015.538480	0.143050
1015.708689	0.142987
1015.878879	0.143399
1016.049052	0.142971
1016.219206	0.143245
1016.389342	0.144186
1016.559460	0.145034
1016.729559	0.145908
1016.899641	0.146890
1017.069704	0.144442
1017.239749	0.144023
1017.409775	0.143614
1017.579784	0.144371
1017.749774	0.143905
1017.919746	0.142514
1018.089700	0.143588
1018.259635	0.143584
1018.429553	0.142609
1018.599452	0.142687
1018.769333	0.143068
1018.939195	0.144052
1019.109040	0.142617
1019.278866	0.142615
1019.448674	0.142022
1019.618464	0.140942
1019.788235	0.141059
1019.957989	0.143487
1020.127724	0.146808
1020.297441	0.145067
1020.467139	0.144697
1020.636820	0.146726
1020.806482	0.148346
1020.976126	0.151053
1021.145752	0.150863
1021.315359	0.150402
1021.484948	0.147264
1021.654519	0.145860
1021.824072	0.148730
1021.993607	0.149527
1022.163123	0.148380
1022.332621	0.148016
1022.502101	0.146033
1022.671563	0.145595
1022.841007	0.144427
1023.010432	0.144650
1023.179839	0.144931
1023.349228	0.144986
1023.518598	0.142720
1023.687951	0.142969
1023.857285	0.144111
1024.026601	0.145716
1024.195899	0.145361
1024.365178	0.146611
1024.534439	0.149253
1024.703682	0.149522
1024.872907	0.150030
1025.042114	0.150867
1025.211302	0.151279
1025.380472	0.148748
1025.549624	0.148253
1025.718758	0.148786
1025.887873	0.149776
1026.056970	0.149439
1026.226049	0.146449
1026.395110	0.145625
1026.564153	0.147816
1026.733177	0.146778
1026.902183	0.146999
1027.071171	0.143346
1027.240141	0.144187
1027.409092	0.141999
1027.578026	0.140794
1027.746940	0.144556
1027.915837	0.143224
1028.084716	0.143186
1028.253576	0.143378
1028.422418	0.144221
1028.591242	0.148763
1028.760048	0.148500
1028.928835	0.150515
1029.097604	0.149892
1029.266355	0.148760
1029.435088	0.147995
1029.603803	0.147892
1029.772499	0.146352
1029.941177	0.146277
1030.109837	0.144350
1030.278478	0.142190
1030.447102	0.141478
1030.615707	0.141566
1030.784294	0.140825
1030.952863	0.143179
1031.121413	0.141662
1031.289945	0.143079
1031.458460	0.143705
1031.626955	0.145482
1031.795433	0.146278
1031.963892	0.144861
1032.132334	0.146412
1032.300756	0.146261
1032.469161	0.146828
1032.637548	0.146790
1032.805916	0.147388
1032.974266	0.146708
1033.142598	0.144927
1033.310911	0.146910
1033.479207	0.147118
1033.647484	0.145188
1033.815743	0.145820
1033.983983	0.144457
1034.152206	0.143621
1034.320410	0.143132
1034.488596	0.143506
1034.656764	0.144541
1034.824914	0.143200
1034.993045	0.144084
1035.161158	0.143792
1035.329253	0.141799
1035.497330	0.141388
1035.665388	0.142944
1035.833428	0.144343
1036.001450	0.142926
1036.169454	0.141754
1036.337440	0.141960
1036.505407	0.139173
1036.673356	0.140241
1036.841287	0.141622
1037.009200	0.141900
1037.177094	0.141151
1037.344970	0.139632
1037.512828	0.139280
1037.680668	0.139217
1037.848489	0.139228
1038.016293	0.143355
1038.184078	0.142973
1038.351845	0.144160
1038.519593	0.142173
1038.687324	0.141845
1038.855036	0.141446
1039.022730	0.142608
1039.190406	0.143808
1039.358063	0.145484
1039.525702	0.144491
1039.693323	0.142295
1039.860926	0.140936
1040.028511	0.143945
1040.196077	0.144881
1040.363625	0.146354
1040.531155	0.145472
1040.698667	0.144407
1040.866161	0.144180
1041.033636	0.144308
1041.201093	0.145546
1041.368532	0.144175
1041.535952	0.144056
1041.703355	0.142899
1041.870739	0.139965
1042.038105	0.138894
1042.205452	0.139421
1042.372782	0.138903
1042.540093	0.136894
1042.707386	0.138022
1042.874661	0.140011
1043.041918	0.139736
1043.209156	0.140260
1043.376376	0.142455
1043.543578	0.143055
1043.710762	0.141377
1043.877927	0.142094
1044.045074	0.143374
1044.212203	0.141954
1044.379314	0.142704
1044.546407	0.139944
1044.713481	0.140200
1044.880537	0.138396
1045.047575	0.137753
1045.214595	0.139132
1045.381596	0.140355
1045.548579	0.140861
1045.715544	0.142165
1045.882491	0.139500
1046.049420	0.140595
1046.216330	0.140747
1046.383222	0.143388
1046.550096	0.145150
1046.716951	0.145898
1046.883789	0.142084
1047.050608	0.143921
1047.217409	0.144472
1047.384192	0.147841
1047.550956	0.147287
1047.717703	0.147546
1047.884431	0.145637
1048.051140	0.144553
1048.217832	0.143494
1048.384505	0.145879
1048.551161	0.144084
1048.717798	0.142498
1048.884416	0.139957
1049.051017	0.143638
1049.217599	0.144644
1049.384163	0.146375
1049.550709	0.148892
1049.717237	0.149101
1049.883746	0.147056
1050.050237	0.145251
1050.216710	0.145525
1050.383165	0.144517
1050.549601	0.144439
1050.716019	0.144586
1050.882420	0.144047
1051.048801	0.141698
1051.215165	0.143624
1051.381510	0.144232
1051.547837	0.146426
1051.714146	0.148737
1051.880437	0.148147
1052.046709	0.145366
1052.212964	0.142794
1052.379200	0.142856
1052.545417	0.142531
1052.711617	0.142188
1052.877798	0.142550
1053.043961	0.140512
1053.210106	0.139118
1053.376233	0.142820
1053.542341	0.144657
1053.708432	0.146498
1053.874504	0.144401
1054.040557	0.146861
1054.206593	0.145444
1054.372610	0.146232
1054.538609	0.145522
1054.704590	0.145213
1054.870553	0.144533
1055.036497	0.144276
1055.202424	0.143840
1055.368331	0.146660
1055.534221	0.144181
1055.700093	0.142839
1055.865946	0.141160
1056.031781	0.142522
1056.197598	0.142870
1056.363397	0.141479
1056.529177	0.140255
1056.694939	0.139117
1056.860683	0.138372
1057.026409	0.141948
1057.192116	0.143920
1057.357806	0.145678
1057.523477	0.146794
1057.689130	0.146557
1057.854764	0.148467
1058.020381	0.148778
1058.185979	0.151257
1058.351559	0.153393
1058.517120	0.150584
1058.682664	0.149697
1058.848189	0.147743
1059.013696	0.148904
1059.179185	0.149445
1059.344656	0.149344
1059.510108	0.150503
1059.675542	0.149772
1059.840958	0.149782
1060.006356	0.149683
1060.171735	0.150218
1060.337096	0.151122
1060.502439	0.150359
1060.667764	0.151454
1060.833071	0.152041
1060.998359	0.149788
1061.163629	0.150620
1061.328881	0.147392
1061.494115	0.147550
1061.659330	0.148863
1061.824527	0.147966
1061.989706	0.148828
1062.154867	0.147347
1062.320010	0.145742
1062.485134	0.147870
1062.650240	0.145612
1062.815328	0.145977
1062.980398	0.146981
1063.145449	0.147406
1063.310482	0.148695
1063.475497	0.147410
1063.640494	0.148081
1063.805473	0.147955
1063.970433	0.147708
1064.135375	0.148721
1064.300299	0.150656
1064.465204	0.148789
1064.630092	0.148432
1064.794961	0.147984
1064.959812	0.148636
1065.124645	0.147001
1065.289459	0.147344
1065.454256	0.149112
1065.619034	0.147219
1065.783793	0.147617
1065.948535	0.149026
1066.113258	0.148300
1066.277964	0.149647
1066.442651	0.149743
1066.607319	0.151041
1066.771970	0.152114
1066.936602	0.151851
1067.101216	0.153854
1067.265812	0.153157
1067.430389	0.152851
1067.594949	0.152444
1067.759490	0.153971
1067.924013	0.153308
1068.088518	0.154902
1068.253004	0.155076
1068.417472	0.153720
1068.581922	0.152125
1068.746354	0.152396
1068.910768	0.153525
1069.075163	0.153806
1069.239540	0.151907
1069.403899	0.152900
1069.568240	0.150722
1069.732562	0.147148
1069.896866	0.147590
1070.061152	0.147617
1070.225420	0.147735
1070.389670	0.146109
1070.553901	0.147739
1070.718114	0.148419
1070.882309	0.148335
1071.046486	0.149502
1071.210644	0.149782
1071.374784	0.148719
1071.538906	0.149918
1071.703010	0.148899
1071.867096	0.151369
1072.031163	0.149974
1072.195212	0.150374
1072.359243	0.149650
1072.523256	0.150536
1072.687250	0.154661
1072.851226	0.156078
1073.015184	0.156714
1073.179124	0.159551
1073.343045	0.158226
1073.506949	0.158554
1073.670834	0.159689
1073.834701	0.161531
1073.998549	0.159973
1074.162380	0.158341
1074.326192	0.156809
1074.489986	0.158958
1074.653761	0.157322
1074.817519	0.158848
1074.981258	0.158673
1075.144979	0.157744
1075.308682	0.156132
1075.472367	0.157142
1075.636033	0.159121
1075.799681	0.160876
1075.963311	0.160202
1076.126923	0.159148
1076.290516	0.160122
1076.454092	0.160502
1076.617649	0.161325
1076.781187	0.160970
1076.944708	0.157697
1077.108210	0.155974
1077.271695	0.156160
1077.435160	0.154085
1077.598608	0.153386
1077.762038	0.155308
1077.925449	0.153846
1078.088842	0.151079
1078.252217	0.151448
1078.415573	0.154299
1078.578912	0.154547
1078.742232	0.154059
1078.905534	0.155056
1079.068817	0.156779
1079.232083	0.154204
1079.395330	0.157150
1079.558559	0.160401
1079.721770	0.159314
1079.884962	0.160367
1080.048136	0.161633
1080.211293	0.162850
1080.374430	0.162122
1080.537550	0.160658
1080.700651	0.162452
1080.863735	0.161640
1081.026800	0.157230
1081.189846	0.158148
1081.352875	0.157244
1081.515885	0.158226
1081.678877	0.156789
1081.841851	0.155790
1082.004807	0.157899
1082.167744	0.153306
1082.330663	0.150536
1082.493564	0.151068
1082.656447	0.152161
1082.819312	0.152984
1082.982158	0.151364
1083.144986	0.153034
1083.307796	0.155207
1083.470587	0.154043
1083.633361	0.153558
1083.796116	0.154680
1083.958853	0.156315
1084.121571	0.159389
1084.284272	0.159397
1084.446954	0.158570
1084.609618	0.156312
1084.772264	0.155674
1084.934892	0.154860
1085.097501	0.157067
1085.260092	0.156666
1085.422665	0.158199
1085.585220	0.155633
1085.747756	0.155676
1085.910274	0.159035
1086.072774	0.161138
1086.235256	0.163351
1086.397720	0.162615
1086.560165	0.164436
1086.722592	0.166418
1086.885001	0.166256
1087.047392	0.168554
1087.209764	0.171792
1087.372119	0.169948
1087.534455	0.168204
1087.696772	0.169363
1087.859072	0.171383
1088.021353	0.171818
1088.183616	0.172455
1088.345861	0.173333
1088.508088	0.174528
1088.670296	0.171008
1088.832486	0.173023
1088.994658	0.174234
1089.156812	0.170521
1089.318948	0.170955
1089.481065	0.171883
1089.643164	0.171838
1089.805245	0.173970
1089.967308	0.170342
1090.129352	0.171008
1090.291378	0.170083
1090.453386	0.169171
1090.615376	0.169368
1090.777347	0.172521
1090.939301	0.170707
1091.101236	0.168231
1091.263153	0.162586
1091.425051	0.164841
1091.586932	0.166510
1091.748794	0.164497
1091.910638	0.168191
1092.072463	0.171992
1092.234271	0.170742
1092.396060	0.171058
1092.557831	0.172186
1092.719584	0.171700
1092.881319	0.167942
1093.043035	0.166631
1093.204733	0.165588
1093.366413	0.162276
1093.528075	0.162013
1093.689718	0.157636
1093.851343	0.159332
1094.012950	0.162686
1094.174539	0.165606
1094.336110	0.169565
1094.497662	0.173166
1094.659196	0.174672
1094.820712	0.176164
1094.982210	0.175526
1095.143689	0.178781
1095.305151	0.177441
1095.466594	0.175363
1095.628018	0.172724
1095.789425	0.171236
1095.950813	0.168700
1096.112183	0.171394
1096.273535	0.168739
1096.434869	0.168589
1096.596184	0.169524
1096.757482	0.166153
1096.918761	0.165745
1097.080021	0.167993
1097.241264	0.163526
1097.402488	0.166208
1097.563694	0.165378
1097.724882	0.167771
1097.886052	0.167538
1098.047203	0.168080
1098.208336	0.171998
1098.369451	0.171948
1098.530548	0.172028
1098.691627	0.177995
1098.852687	0.171941
1099.013729	0.168813
1099.174753	0.166567
1099.335758	0.167927
1099.496746	0.165214
1099.657715	0.162227
1099.818666	0.164425
1099.979599	0.167057
1100.140513	0.171795
1100.301409	0.173050
1100.462287	0.177619
1100.623147	0.181596
1100.783989	0.184757
1100.944812	0.183904
1101.105617	0.181757
1101.266404	0.177771
1101.427173	0.175379
1101.587923	0.166616
1101.748656	0.171432
1101.909370	0.167333
1102.070066	0.162980
1102.230743	0.159177
1102.391403	0.159974
1102.552044	0.166011
1102.712667	0.169826
1102.873271	0.171359
1103.033858	0.172421
1103.194426	0.170471
1103.354976	0.173462
1103.515508	0.172745
1103.676021	0.169932
1103.836517	0.172063
1103.996994	0.171454
1104.157453	0.170182
1104.317893	0.172873
1104.478316	0.170724
1104.638720	0.167002
1104.799106	0.164915
1104.959474	0.176477
1105.119823	0.177461
1105.280155	0.178776
1105.440468	0.176654
1105.600763	0.176119
1105.761039	0.175656
1105.921298	0.180432
1106.081538	0.182433
1106.241760	0.187587
1106.401964	0.181106
1106.562149	0.182214
1106.722316	0.180704
1106.882465	0.181165
1107.042596	0.178722
1107.202709	0.179918
1107.362803	0.183083
1107.522879	0.185209
1107.682937	0.183357
1107.842977	0.183670
1108.002999	0.183412
1108.163002	0.182800
1108.322987	0.182691
1108.482954	0.182897
1108.642902	0.181152
1108.802833	0.172936
1108.962745	0.169292
1109.122639	0.168598
1109.282515	0.165439
1109.442372	0.167449
1109.602211	0.169632
1109.762032	0.167849
1109.921835	0.168697
1110.081620	0.170818
1110.241386	0.174806
1110.401134	0.177674
1110.560864	0.174325
1110.720576	0.174263
1110.880269	0.174097
1111.039945	0.176306
1111.199602	0.176506
1111.359240	0.175920
1111.518861	0.172795
1111.678463	0.169947
1111.838047	0.168365
1111.997613	0.176838
1112.157161	0.179494
1112.316690	0.181699
1112.476202	0.178237
1112.635695	0.183345
1112.795169	0.191088
1112.954626	0.191098
1113.114064	0.192580
1113.273484	0.196676
1113.432886	0.187689
1113.592270	0.186078
1113.751635	0.179131
1113.910983	0.181913
1114.070312	0.177172
1114.229622	0.173022
1114.388915	0.175439
1114.548189	0.175161
1114.707445	0.175112
1114.866683	0.177339
1115.025903	0.175653
1115.185104	0.180543
1115.344287	0.175741
1115.503452	0.175298
1115.662599	0.176116
1115.821727	0.174007
1115.980838	0.175433
1116.139930	0.174488
1116.299004	0.175867
1116.458059	0.180598
1116.617097	0.180373
1116.776116	0.184232
1116.935117	0.188769
1117.094099	0.189018
1117.253064	0.186924
1117.412010	0.187689
1117.570938	0.185430
1117.729848	0.185699
1117.888740	0.180872
1118.047613	0.183141
1118.206468	0.184092
1118.365305	0.193920
1118.524124	0.195387
1118.682924	0.203216
1118.841707	0.201946
1119.000471	0.203010
1119.159216	0.205162
1119.317944	0.207595
1119.476653	0.206739
1119.635344	0.205740
1119.794017	0.196543
1119.952672	0.196572
1120.111308	0.192321
1120.269927	0.194849
1120.428527	0.196350
1120.587108	0.188765
1120.745672	0.187463
1120.904217	0.186897
1121.062744	0.186079
1121.221253	0.186958
1121.379744	0.181129
1121.538216	0.179433
1121.696671	0.177957
1121.855107	0.175537
1122.013524	0.182905
1122.171924	0.182830
1122.330305	0.181168
1122.488668	0.181899
1122.647013	0.182525
1122.805340	0.190209
1122.963648	0.191774
1123.121938	0.196238
1123.280210	0.197599
1123.438464	0.195083
1123.596700	0.197119
1123.754917	0.198744
1123.913116	0.195040
1124.071297	0.189791
1124.229459	0.191653
1124.387604	0.188258
1124.545730	0.181414
1124.703838	0.181315
1124.861928	0.181035
1125.019999	0.185398
1125.178052	0.183918
1125.336088	0.181532
1125.494104	0.184557
1125.652103	0.177473
1125.810083	0.173972
1125.968045	0.175362
1126.125989	0.178659
1126.283915	0.182109
1126.441823	0.174911
1126.599712	0.179368
1126.757583	0.187526
1126.915436	0.185022
1127.073270	0.185864
1127.231087	0.198791
1127.388885	0.203550
1127.546665	0.199556
1127.704426	0.198016
1127.862170	0.206493
1128.019895	0.204335
1128.177602	0.196556
1128.335291	0.200960
1128.492961	0.204048
1128.650614	0.194949
1128.808248	0.194342
1128.965864	0.202141
1129.123461	0.206959
1129.281041	0.207410
1129.438602	0.205848
1129.596145	0.211340
1129.753670	0.210703
1129.911176	0.208266
1130.068665	0.211593
1130.226135	0.209284
1130.383587	0.204424
1130.541020	0.199408
1130.698436	0.199081
1130.855833	0.202423
1131.013212	0.202267
1131.170573	0.202791
1131.327915	0.199766
1131.485239	0.197715
1131.642545	0.199847
1131.799833	0.202134
1131.957103	0.210638
1132.114354	0.205677
1132.271588	0.199645
1132.428803	0.197558
1132.585999	0.196070
1132.743178	0.194961
1132.900338	0.196326
1133.057480	0.192858
1133.214604	0.190113
1133.371710	0.184502
1133.528797	0.186938
1133.685866	0.186048
1133.842917	0.189437
1133.999950	0.188392
1134.156964	0.192228
1134.313960	0.187388
1134.470938	0.189151
1134.627898	0.191001
1134.784840	0.192135
1134.941763	0.189468
1135.098668	0.191617
1135.255555	0.185115
1135.412424	0.189275
1135.569274	0.193444
1135.726107	0.200807
1135.882921	0.200188
1136.039716	0.188439
1136.196494	0.191229
1136.353253	0.188199
1136.509995	0.193781
1136.666717	0.200598
1136.823422	0.199647
1136.980109	0.196746
1137.136777	0.188830
1137.293427	0.193925
1137.450059	0.203333
1137.606672	0.195292
1137.763267	0.197822
1137.919844	0.190401
1138.076403	0.191861
1138.232944	0.187448
1138.389466	0.188903
1138.545971	0.186754
1138.702457	0.177120
1138.858924	0.181841
1139.015374	0.170355
1139.171805	0.173029
1139.328218	0.170892
1139.484613	0.175130
1139.640990	0.167541
1139.797348	0.161538
1139.953688	0.171357
1140.110010	0.180753
1140.266314	0.174858
1140.422600	0.187392
1140.578867	0.183456
1140.735116	0.195968
1140.891347	0.188944
1141.047559	0.195256
1141.203754	0.204075
1141.359930	0.202818
1141.516088	0.197751
1141.672228	0.206348
1141.828349	0.203692
1141.984452	0.208757
1142.140537	0.196252
1142.296604	0.194428
1142.452653	0.199057
1142.608683	0.201854
1142.764695	0.196508
1142.920689	0.195229
1143.076665	0.190376
1143.232622	0.195741
1143.388562	0.196339
1143.544483	0.212675
1143.700385	0.212933
1143.856270	0.220133
1144.012136	0.220387
1144.167985	0.225449
1144.323814	0.232401
1144.479626	0.233200
1144.635420	0.231129
1144.791195	0.225616
1144.946952	0.217664
1145.102691	0.215942
1145.258411	0.212818
1145.414113	0.214517
1145.569798	0.222299
1145.725463	0.213607
1145.881111	0.218433
1146.036741	0.217658
1146.192352	0.220106
1146.347945	0.224007
1146.503519	0.232853
1146.659076	0.227692
1146.814614	0.215852
1146.970134	0.206906
1147.125636	0.205975
1147.281120	0.199877
1147.436585	0.193765
1147.592032	0.191809
1147.747461	0.182206
1147.902872	0.179989
1148.058265	0.168073
1148.213639	0.167758
1148.368995	0.170800
1148.524333	0.184481
1148.679653	0.176052
1148.834954	0.175669
1148.990237	0.178385
1149.145502	0.182546
1149.300749	0.181887
1149.455977	0.199922
1149.611188	0.197745
1149.766380	0.194394
1149.921553	0.189207
1150.076709	0.197207
1150.231846	0.201589
1150.386966	0.198042
1150.542066	0.199752
1150.697149	0.200433
1150.852214	0.198343
1151.007260	0.208233
1151.162288	0.221886
1151.317298	0.218577
1151.472289	0.219110
1151.627263	0.221223
1151.782218	0.228857
1151.937155	0.233168
1152.092073	0.240930
1152.246974	0.235798
1152.401856	0.229485
1152.556720	0.221974
1152.711566	0.225678
1152.866393	0.229281
1153.021203	0.232703
1153.175994	0.220973
1153.330767	0.214041
1153.485521	0.206493
1153.640258	0.202062
1153.794976	0.206067
1153.949676	0.215939
1154.104358	0.216993
1154.259021	0.203940
1154.413667	0.202280
1154.568294	0.205152
1154.722903	0.205226
1154.877493	0.212220
1155.032066	0.223398
1155.186620	0.217633
1155.341156	0.200360
1155.495674	0.199518
1155.650173	0.207829
1155.804654	0.200504
1155.959118	0.211484
1156.113562	0.205299
1156.267989	0.189829
1156.422397	0.183993
1156.576788	0.185465
1156.731160	0.182869
1156.885513	0.183006
1157.039849	0.188349
1157.194166	0.201525
1157.348465	0.185442
1157.502746	0.200656
1157.657009	0.208975
1157.811253	0.202351
1157.965479	0.198697
1158.119687	0.198541
1158.273877	0.205739
1158.428048	0.196777
1158.582201	0.195333
1158.736337	0.210404
1158.890453	0.193270
1159.044552	0.190550
1159.198632	0.192048
1159.352694	0.202375
1159.506738	0.195338
1159.660764	0.190387
1159.814771	0.201370
1159.968761	0.192703
1160.122732	0.197063
1160.276685	0.200587
1160.430619	0.201681
1160.584535	0.213638
1160.738434	0.209824
1160.892313	0.226552
1161.046175	0.225153
1161.200019	0.218627
1161.353844	0.224746
1161.507651	0.209424
1161.661440	0.204104
1161.815210	0.204239
1161.968962	0.202614
1162.122697	0.196103
1162.276412	0.191724
1162.430110	0.181921
1162.583789	0.181689
1162.737451	0.178645
1162.891094	0.189277
1163.044718	0.195791
1163.198325	0.193786
1163.351913	0.185311
1163.505483	0.198686
1163.659035	0.190597
1163.812569	0.198580
1163.966084	0.199229
1164.119581	0.201591
1164.273060	0.186688
1164.426521	0.196200
1164.579964	0.199024
1164.733388	0.195934
1164.886794	0.185682
1165.040182	0.190169
1165.193551	0.178489
1165.346903	0.175269
1165.500236	0.153555
1165.653551	0.174494
1165.806848	0.166424
1165.960126	0.175301
1166.113386	0.188669
1166.266628	0.176953
1166.419852	0.167049
1166.573058	0.178582
1166.726245	0.176100
1166.879414	0.197371
1167.032565	0.189669
1167.185698	0.205684
1167.338812	0.204390
1167.491909	0.195133
1167.644987	0.217157
1167.798046	0.244720
1167.951088	0.246081
1168.104111	0.244797
1168.257117	0.239508
1168.410103	0.220726
1168.563072	0.203501
1168.716023	0.199217
1168.868955	0.210492
1169.021869	0.200500
1169.174765	0.190362
1169.327642	0.188943
1169.480501	0.204007
1169.633343	0.200362
1169.786165	0.232962
1169.938970	0.232331
1170.091757	0.228682
1170.244525	0.215966
1170.397275	0.205044
1170.550007	0.202628
1170.702720	0.196238
1170.855415	0.196700
1171.008092	0.209008
1171.160751	0.190264
1171.313392	0.195569
1171.466014	0.316774
1171.618619	0.230148
1171.771205	0.230148
1171.923772	0.230148
