sample name	sample
index	1479
start time	 05-18-2021  12:29:18 PM


Wavelength (nm)	Absorbance
494.344910	0.032261
494.563924	0.032261
494.782919	0.032261
495.001897	-0.022368
495.220856	-0.027203
495.439797	-0.042722
495.658719	-0.013835
495.877624	-0.010992
496.096510	0.000381
496.315378	-0.025126
496.534227	-0.038931
496.753059	0.020304
496.971872	0.049074
497.190667	0.141811
497.409444	0.160774
497.628203	0.164101
497.846943	0.166554
498.065665	0.168346
498.284369	0.169224
498.503055	0.169298
498.721723	0.168442
498.940372	0.169700
499.159003	0.169169
499.377616	0.169532
499.596210	0.168995
499.814787	0.168388
500.033345	0.168601
500.251885	0.169002
500.470406	0.169237
500.688910	0.169631
500.907395	0.169531
501.125862	0.169127
501.344311	0.170379
501.562742	0.170285
501.781154	0.170789
501.999548	0.170836
502.217924	0.171173
502.436282	0.171876
502.654621	0.171514
502.872942	0.171246
503.091245	0.171951
503.309530	0.170863
503.527797	0.171547
503.746045	0.172273
503.964275	0.172968
504.182487	0.172604
504.400681	0.172610
504.618856	0.172715
504.837013	0.173506
505.055152	0.174390
505.273273	0.175115
505.491376	0.175109
505.709460	0.175162
505.927526	0.174611
506.145574	0.175428
506.363604	0.174790
506.581615	0.175307
506.799608	0.174697
507.017583	0.173549
507.235540	0.172553
507.453478	0.172926
507.671399	0.171845
507.889301	0.171992
508.107185	0.171814
508.325050	0.173015
508.542898	0.172128
508.760727	0.173274
508.978538	0.174876
509.196330	0.174909
509.414105	0.174815
509.631861	0.175297
509.849599	0.174436
510.067319	0.174505
510.285021	0.173999
510.502704	0.174487
510.720369	0.173205
510.938016	0.172400
511.155645	0.173624
511.373255	0.173260
511.590848	0.173664
511.808422	0.174626
512.025977	0.174269
512.243515	0.174481
512.461034	0.175327
512.678536	0.176461
512.896018	0.176834
513.113483	0.176049
513.330930	0.175878
513.548358	0.175957
513.765768	0.176449
513.983160	0.177272
514.200533	0.177740
514.417889	0.178273
514.635226	0.177970
514.852545	0.178391
515.069845	0.178167
515.287128	0.178351
515.504392	0.178441
515.721638	0.177731
515.938866	0.177248
516.156075	0.177784
516.373267	0.177533
516.590440	0.177866
516.807594	0.178305
517.024731	0.178779
517.241850	0.178482
517.458950	0.178978
517.676032	0.178899
517.893095	0.179735
518.110141	0.179502
518.327168	0.179346
518.544177	0.178945
518.761168	0.178691
518.978141	0.179570
519.195095	0.180528
519.412031	0.180893
519.628949	0.181162
519.845849	0.181329
520.062731	0.180531
520.279594	0.181156
520.496439	0.182234
520.713266	0.182282
520.930074	0.181710
521.146865	0.181578
521.363637	0.182001
521.580391	0.182516
521.797127	0.182834
522.013844	0.183602
522.230543	0.183101
522.447224	0.183517
522.663887	0.183749
522.880532	0.184497
523.097158	0.184767
523.313766	0.184444
523.530356	0.184385
523.746928	0.183928
523.963481	0.183914
524.180017	0.184655
524.396534	0.184310
524.613032	0.185211
524.829513	0.185061
525.045975	0.186055
525.262420	0.185833
525.478845	0.186445
525.695253	0.187787
525.911643	0.188382
526.128014	0.188028
526.344367	0.188049
526.560702	0.187360
526.777018	0.186714
526.993316	0.186164
527.209597	0.186286
527.425858	0.186843
527.642102	0.186922
527.858328	0.187058
528.074535	0.187845
528.290724	0.187859
528.506894	0.187868
528.723047	0.189412
528.939181	0.189749
529.155297	0.190533
529.371395	0.190124
529.587475	0.189961
529.803536	0.189739
530.019579	0.189470
530.235604	0.189891
530.451611	0.190261
530.667600	0.190592
530.883570	0.190987
531.099522	0.191522
531.315456	0.191607
531.531372	0.191728
531.747269	0.192514
531.963148	0.192999
532.179009	0.193277
532.394852	0.194127
532.610676	0.193971
532.826482	0.194434
533.042271	0.194424
533.258040	0.195171
533.473792	0.195198
533.689525	0.196014
533.905240	0.196400
534.120937	0.197225
534.336616	0.196945
534.552277	0.196740
534.767919	0.196747
534.983543	0.196968
535.199149	0.197077
535.414736	0.197785
535.630306	0.197757
535.845857	0.198458
536.061390	0.198493
536.276904	0.199066
536.492401	0.199781
536.707879	0.200398
536.923339	0.200350
537.138781	0.200069
537.354204	0.199779
537.569610	0.199797
537.784997	0.199418
538.000366	0.199703
538.215716	0.200019
538.431049	0.200122
538.646363	0.200112
538.861659	0.200639
539.076937	0.201040
539.292196	0.201336
539.507438	0.201615
539.722661	0.201799
539.937866	0.201750
540.153052	0.201542
540.368221	0.201476
540.583371	0.201232
540.798503	0.201537
541.013617	0.202215
541.228712	0.202466
541.443789	0.202452
541.658848	0.202632
541.873889	0.203576
542.088912	0.204514
542.303916	0.205427
542.518902	0.205710
542.733870	0.205687
542.948820	0.206319
543.163752	0.206316
543.378665	0.207006
543.593560	0.207468
543.808437	0.207319
544.023295	0.207267
544.238136	0.207425
544.452958	0.208254
544.667762	0.208190
544.882548	0.207862
545.097315	0.208476
545.312064	0.208246
545.526795	0.208490
545.741508	0.208655
545.956203	0.208599
546.170879	0.208534
546.385537	0.208489
546.600177	0.208984
546.814799	0.209208
547.029402	0.209535
547.243988	0.209215
547.458555	0.209341
547.673103	0.209470
547.887634	0.209570
548.102146	0.210072
548.316640	0.210097
548.531116	0.210740
548.745574	0.210621
548.960013	0.210839
549.174435	0.211869
549.388838	0.212404
549.603222	0.212472
549.817589	0.212798
550.031937	0.212775
550.246267	0.213232
550.460579	0.213275
550.674873	0.213499
550.889148	0.213234
551.103405	0.213375
551.317644	0.213094
551.531865	0.213606
551.746068	0.213620
551.960252	0.213654
552.174418	0.213712
552.388566	0.214167
552.602696	0.214825
552.816807	0.214976
553.030900	0.214891
553.244975	0.215122
553.459032	0.214993
553.673070	0.215419
553.887091	0.215620
554.101093	0.215683
554.315077	0.215247
554.529042	0.215286
554.742990	0.215587
554.956919	0.216129
555.170830	0.216562
555.384722	0.216718
555.598597	0.216936
555.812453	0.217062
556.026291	0.217215
556.240111	0.217377
556.453913	0.217227
556.667696	0.217226
556.881461	0.216692
557.095208	0.216599
557.308937	0.216310
557.522647	0.216099
557.736339	0.215873
557.950013	0.215972
558.163669	0.215779
558.377307	0.216137
558.590926	0.216205
558.804527	0.216650
559.018110	0.217338
559.231675	0.217784
559.445221	0.218054
559.658749	0.218620
559.872259	0.218706
560.085751	0.218820
560.299225	0.218916
560.512680	0.219433
560.726117	0.219514
560.939536	0.219258
561.152937	0.219132
561.366319	0.219159
561.579683	0.219227
561.793029	0.219640
562.006357	0.220189
562.219667	0.219893
562.432958	0.219926
562.646231	0.220316
562.859486	0.220340
563.072723	0.221043
563.285941	0.221273
563.499141	0.221403
563.712323	0.221466
563.925487	0.221530
564.138632	0.222153
564.351760	0.222302
564.564869	0.222335
564.777960	0.222203
564.991032	0.222433
565.204087	0.222094
565.417123	0.222516
565.630141	0.222653
565.843140	0.223394
566.056122	0.223604
566.269085	0.223747
566.482030	0.223991
566.694957	0.224354
566.907866	0.224310
567.120756	0.224765
567.333628	0.224648
567.546482	0.225037
567.759318	0.224555
567.972135	0.224592
568.184935	0.224704
568.397716	0.224723
568.610478	0.224963
568.823223	0.224803
569.035949	0.225061
569.248657	0.225441
569.461347	0.225542
569.674019	0.225751
569.886672	0.225587
570.099308	0.225938
570.311925	0.226172
570.524523	0.226382
570.737104	0.226577
570.949666	0.226726
571.162210	0.226509
571.374736	0.226385
571.587244	0.226742
571.799733	0.227120
572.012205	0.227404
572.224658	0.227285
572.437092	0.226932
572.649509	0.227010
572.861907	0.227275
573.074287	0.227526
573.286649	0.227878
573.498993	0.227519
573.711318	0.227732
573.923625	0.227714
574.135914	0.227979
574.348185	0.228272
574.560438	0.228584
574.772672	0.228882
574.984888	0.229534
575.197086	0.229467
575.409266	0.230052
575.621427	0.230055
575.833570	0.230147
576.045695	0.230564
576.257802	0.231271
576.469890	0.231542
576.681961	0.231601
576.894013	0.230875
577.106046	0.230960
577.318062	0.231310
577.530059	0.231750
577.742039	0.231795
577.954000	0.231498
578.165942	0.231494
578.377867	0.231523
578.589773	0.231813
578.801661	0.232265
579.013531	0.232859
579.225382	0.232789
579.437216	0.232719
579.649031	0.233123
579.860828	0.233768
580.072606	0.233602
580.284367	0.233902
580.496109	0.233787
580.707833	0.234192
580.919539	0.233988
581.131227	0.234286
581.342896	0.234500
581.554547	0.234376
581.766180	0.234027
581.977795	0.234152
582.189391	0.234269
582.400969	0.234357
582.612529	0.234062
582.824071	0.234046
583.035595	0.234101
583.247100	0.234618
583.458587	0.234715
583.670056	0.235145
583.881506	0.235272
584.092939	0.235281
584.304353	0.235444
584.515749	0.235732
584.727127	0.235829
584.938486	0.235396
585.149828	0.234931
585.361151	0.235243
585.572456	0.235329
585.783742	0.235314
585.995011	0.235474
586.206261	0.235464
586.417493	0.235711
586.628706	0.235855
586.839902	0.236407
587.051079	0.236705
587.262238	0.236656
587.473379	0.236585
587.684502	0.236824
587.895606	0.236892
588.106692	0.237107
588.317760	0.237396
588.528810	0.237440
588.739841	0.237318
588.950855	0.237252
589.161850	0.237656
589.372827	0.238012
589.583785	0.238335
589.794726	0.238542
590.005648	0.238853
590.216552	0.238869
590.427437	0.239353
590.638305	0.240007
590.849154	0.240600
591.059985	0.240568
591.270798	0.240598
591.481592	0.240608
591.692369	0.240902
591.903127	0.240977
592.113867	0.240923
592.324588	0.240915
592.535292	0.240727
592.745977	0.240965
592.956644	0.241180
593.167293	0.241487
593.377923	0.241545
593.588536	0.241457
593.799130	0.241959
594.009706	0.242751
594.220263	0.242995
594.430803	0.243243
594.641324	0.243321
594.851827	0.243650
595.062312	0.243654
595.272778	0.244138
595.483227	0.244162
595.693657	0.243675
595.904069	0.243522
596.114462	0.244020
596.324838	0.243927
596.535195	0.244058
596.745534	0.244065
596.955855	0.244194
597.166157	0.244022
597.376441	0.244848
597.586707	0.245191
597.796955	0.245406
598.007185	0.245130
598.217396	0.245585
598.427589	0.245256
598.637764	0.245368
598.847921	0.245758
599.058060	0.246507
599.268180	0.246318
599.478282	0.246646
599.688366	0.246627
599.898431	0.246970
600.108479	0.246830
600.318508	0.247206
600.528519	0.246943
600.738511	0.246780
600.948486	0.246912
601.158442	0.246834
601.368380	0.246895
601.578300	0.246793
601.788202	0.246818
601.998085	0.246718
602.207950	0.247178
602.417797	0.247621
602.627626	0.248117
602.837436	0.247745
603.047228	0.247941
603.257002	0.247893
603.466758	0.248290
603.676496	0.248537
603.886215	0.249056
604.095916	0.248560
604.305599	0.248501
604.515264	0.248539
604.724910	0.249141
604.934538	0.249323
605.144148	0.249683
605.353740	0.249976
605.563314	0.250030
605.772869	0.250128
605.982406	0.250824
606.191925	0.251114
606.401425	0.251239
606.610908	0.250996
606.820372	0.251065
607.029818	0.251143
607.239246	0.251113
607.448655	0.251169
607.658047	0.251028
607.867420	0.251034
608.076775	0.251312
608.286111	0.251261
608.495430	0.251211
608.704730	0.251320
608.914012	0.251216
609.123275	0.251148
609.332521	0.251401
609.541748	0.251690
609.750957	0.251714
609.960148	0.252126
610.169321	0.252058
610.378475	0.252418
610.587611	0.253062
610.796729	0.253287
611.005829	0.253875
611.214910	0.253806
611.423974	0.254089
611.633019	0.254534
611.842045	0.254024
612.051054	0.254257
612.260044	0.254564
612.469017	0.254221
612.677970	0.254679
612.886906	0.254759
613.095824	0.254795
613.304723	0.255205
613.513604	0.255109
613.722467	0.255582
613.931311	0.255884
614.140138	0.255997
614.348946	0.256421
614.557736	0.256201
614.766507	0.255969
614.975261	0.256425
615.183996	0.256049
615.392713	0.256300
615.601412	0.256341
615.810092	0.256344
616.018754	0.256259
616.227399	0.256051
616.436024	0.256164
616.644632	0.256331
616.853222	0.256453
617.061793	0.256776
617.270346	0.256342
617.478880	0.256472
617.687397	0.256586
617.895895	0.256745
618.104375	0.256805
618.312837	0.256953
618.521281	0.257254
618.729706	0.257059
618.938113	0.257028
619.146502	0.257312
619.354873	0.257157
619.563226	0.257434
619.771560	0.257478
619.979876	0.257687
620.188174	0.257976
620.396453	0.257849
620.604715	0.258102
620.812958	0.258494
621.021183	0.258945
621.229390	0.259335
621.437578	0.259230
621.645748	0.259411
621.853900	0.259380
622.062034	0.259279
622.270150	0.259387
622.478247	0.259623
622.686326	0.259693
622.894387	0.259711
623.102430	0.259867
623.310454	0.260005
623.518461	0.260293
623.726449	0.260586
623.934418	0.260824
624.142370	0.261273
624.350303	0.261252
624.558218	0.261205
624.766115	0.261175
624.973994	0.261361
625.181855	0.261565
625.389697	0.261592
625.597521	0.261869
625.805327	0.262091
626.013114	0.262063
626.220883	0.262410
626.428634	0.262394
626.636367	0.262559
626.844082	0.262700
627.051778	0.262963
627.259457	0.263273
627.467117	0.263335
627.674758	0.263465
627.882382	0.263584
628.089987	0.263282
628.297574	0.263691
628.505143	0.263990
628.712694	0.263802
628.920226	0.263714
629.127740	0.263696
629.335236	0.263875
629.542714	0.263868
629.750174	0.263950
629.957615	0.264378
630.165038	0.264459
630.372443	0.264610
630.579829	0.264903
630.787198	0.265287
630.994548	0.265506
631.201880	0.265619
631.409194	0.265796
631.616489	0.266030
631.823766	0.266354
632.031025	0.266622
632.238266	0.266726
632.445489	0.266969
632.652693	0.266950
632.859879	0.266952
633.067047	0.266915
633.274197	0.267265
633.481329	0.267570
633.688442	0.267620
633.895537	0.267619
634.102614	0.267591
634.309672	0.267645
634.516713	0.268210
634.723735	0.268307
634.930739	0.268738
635.137724	0.268822
635.344692	0.268795
635.551641	0.268663
635.758572	0.268838
635.965485	0.269021
636.172379	0.269206
636.379256	0.269041
636.586114	0.269284
636.792954	0.269148
636.999775	0.269050
637.206579	0.269141
637.413364	0.269557
637.620131	0.269816
637.826880	0.270079
638.033610	0.270254
638.240323	0.270444
638.447017	0.270407
638.653692	0.270592
638.860350	0.270715
639.066990	0.270903
639.273611	0.270852
639.480214	0.270924
639.686798	0.271345
639.893365	0.271519
640.099913	0.271468
640.306443	0.271736
640.512955	0.271745
640.719449	0.271998
640.925924	0.271888
641.132381	0.271991
641.338820	0.272073
641.545241	0.271854
641.751644	0.271912
641.958028	0.272014
642.164394	0.272168
642.370742	0.272363
642.577071	0.272393
642.783383	0.272799
642.989676	0.272870
643.195951	0.272762
643.402207	0.272922
643.608446	0.273072
643.814666	0.273294
644.020868	0.273337
644.227052	0.273458
644.433218	0.273807
644.639365	0.273776
644.845494	0.274268
645.051605	0.274794
645.257698	0.274944
645.463772	0.275057
645.669828	0.274985
645.875866	0.275091
646.081886	0.275540
646.287888	0.275600
646.493871	0.275591
646.699836	0.275528
646.905783	0.275468
647.111712	0.275671
647.317622	0.276082
647.523514	0.276455
647.729388	0.276864
647.935244	0.276961
648.141082	0.277228
648.346901	0.277620
648.552702	0.277990
648.758485	0.278314
648.964250	0.278623
649.169996	0.278694
649.375724	0.278972
649.581434	0.279124
649.787126	0.279170
649.992800	0.279375
650.198455	0.279665
650.404092	0.279806
650.609711	0.279808
650.815311	0.279920
651.020894	0.280131
651.226458	0.280196
651.432004	0.280422
651.637532	0.280589
651.843041	0.280657
652.048532	0.280937
652.254006	0.281019
652.459460	0.281204
652.664897	0.281194
652.870315	0.281185
653.075716	0.281455
653.281097	0.281419
653.486461	0.281820
653.691807	0.281961
653.897134	0.281733
654.102443	0.282034
654.307734	0.282327
654.513006	0.282451
654.718261	0.282627
654.923497	0.282662
655.128715	0.282862
655.333915	0.282909
655.539096	0.283240
655.744259	0.283607
655.949404	0.283903
656.154531	0.284096
656.359640	0.284512
656.564730	0.284615
656.769802	0.284923
656.974856	0.285131
657.179892	0.285208
657.384909	0.285382
657.589908	0.285366
657.794889	0.285384
657.999852	0.285753
658.204797	0.286095
658.409723	0.286438
658.614631	0.286749
658.819521	0.286998
659.024393	0.287335
659.229246	0.287546
659.434081	0.288156
659.638898	0.288282
659.843697	0.288280
660.048478	0.288291
660.253240	0.288622
660.457984	0.288694
660.662710	0.288685
660.867417	0.288916
661.072107	0.289175
661.276778	0.289078
661.481431	0.289302
661.686066	0.289577
661.890682	0.289687
662.095281	0.289690
662.299861	0.289758
662.504422	0.290236
662.708966	0.290200
662.913491	0.289991
663.117999	0.290229
663.322488	0.290345
663.526958	0.290736
663.731411	0.290948
663.935845	0.290914
664.140261	0.291065
664.344659	0.290944
664.549038	0.291061
664.753400	0.291119
664.957743	0.291295
665.162068	0.291656
665.366375	0.291536
665.570663	0.291654
665.774933	0.291948
665.979185	0.292037
666.183419	0.292386
666.387635	0.292488
666.591832	0.293008
666.796011	0.293345
667.000172	0.293282
667.204315	0.293477
667.408439	0.293606
667.612545	0.293827
667.816634	0.294271
668.020703	0.294475
668.224755	0.294752
668.428788	0.294940
668.632803	0.295132
668.836800	0.295442
669.040779	0.295655
669.244739	0.295734
669.448681	0.295835
669.652605	0.295987
669.856511	0.295956
670.060399	0.296098
670.264268	0.295978
670.468119	0.296257
670.671952	0.296523
670.875767	0.296670
671.079563	0.297221
671.283341	0.297388
671.487101	0.297738
671.690843	0.298269
671.894567	0.298507
672.098272	0.298999
672.301959	0.299159
672.505628	0.299026
672.709278	0.299009
672.912911	0.298906
673.116525	0.299075
673.320121	0.299244
673.523699	0.299286
673.727258	0.299400
673.930799	0.299633
674.134322	0.299738
674.337827	0.300351
674.541314	0.300881
674.744782	0.300966
674.948232	0.301406
675.151664	0.301325
675.355078	0.301797
675.558474	0.302198
675.761851	0.302430
675.965210	0.302420
676.168551	0.302148
676.371873	0.302140
676.575178	0.302505
676.778464	0.302618
676.981732	0.303102
677.184981	0.302857
677.388213	0.303109
677.591426	0.303253
677.794621	0.303349
677.997798	0.303840
678.200956	0.304048
678.404097	0.304241
678.607219	0.304214
678.810323	0.304060
679.013408	0.304068
679.216476	0.304113
679.419525	0.304196
679.622556	0.304528
679.825569	0.304661
680.028563	0.305113
680.231540	0.305302
680.434498	0.305862
680.637438	0.306377
680.840359	0.306657
681.043263	0.307090
681.246148	0.307398
681.449015	0.307660
681.651864	0.307959
681.854694	0.307841
682.057506	0.308165
682.260301	0.308167
682.463076	0.308136
682.665834	0.308653
682.868573	0.308597
683.071295	0.308528
683.273998	0.308602
683.476682	0.308522
683.679349	0.308888
683.881997	0.309082
684.084627	0.309305
684.287239	0.309540
684.489833	0.309662
684.692408	0.309785
684.894965	0.310168
685.097504	0.310387
685.300025	0.310558
685.502527	0.310671
685.705012	0.310686
685.907478	0.310933
686.109925	0.310910
686.312355	0.310793
686.514766	0.310988
686.717159	0.311008
686.919534	0.311368
687.121891	0.311567
687.324230	0.311722
687.526550	0.311904
687.728852	0.311762
687.931136	0.311983
688.133401	0.312310
688.335649	0.312622
688.537878	0.312828
688.740089	0.312687
688.942281	0.312769
689.144456	0.312745
689.346612	0.312978
689.548750	0.313150
689.750870	0.313400
689.952971	0.313508
690.155055	0.313360
690.357120	0.313459
690.559167	0.313723
690.761195	0.314077
690.963206	0.314392
691.165198	0.314148
691.367172	0.314441
691.569128	0.314221
691.771065	0.314165
691.972984	0.314606
692.174885	0.314680
692.376768	0.314840
692.578633	0.314958
692.780479	0.315032
692.982308	0.315488
693.184118	0.315519
693.385909	0.316133
693.587683	0.316405
693.789438	0.316372
693.991175	0.316723
694.192894	0.316862
694.394595	0.317077
694.596277	0.317225
694.797941	0.317313
694.999587	0.317465
695.201215	0.317427
695.402824	0.317722
695.604416	0.317998
695.805989	0.317963
696.007543	0.318000
696.209080	0.317848
696.410598	0.317722
696.612099	0.317580
696.813580	0.317558
697.015044	0.317382
697.216490	0.317231
697.417917	0.317093
697.619326	0.316941
697.820717	0.316925
698.022089	0.317011
698.223444	0.317358
698.424780	0.317552
698.626098	0.317900
698.827397	0.318263
699.028679	0.318436
699.229942	0.318479
699.431187	0.318842
699.632414	0.319099
699.833622	0.319323
700.034813	0.319303
700.235985	0.319463
700.437139	0.319338
700.638274	0.319229
700.839392	0.319473
701.040491	0.319539
701.241572	0.319481
701.442635	0.319207
701.643679	0.319216
701.844706	0.319323
702.045714	0.319371
702.246704	0.319791
702.447675	0.319897
702.648629	0.319903
702.849564	0.320110
703.050481	0.320318
703.251380	0.320573
703.452260	0.320746
703.653122	0.320526
703.853966	0.320615
704.054792	0.320304
704.255600	0.320282
704.456389	0.320298
704.657160	0.320448
704.857913	0.320516
705.058648	0.320742
705.259365	0.320565
705.460063	0.320763
705.660743	0.320854
705.861405	0.320773
706.062048	0.320961
706.262674	0.321066
706.463281	0.321014
706.663870	0.320945
706.864441	0.321121
707.064993	0.321180
707.265527	0.321384
707.466043	0.321243
707.666541	0.321603
707.867021	0.321765
708.067482	0.321793
708.267925	0.321862
708.468350	0.321925
708.668757	0.321563
708.869145	0.321811
709.069516	0.321792
709.269868	0.322053
709.470201	0.322202
709.670517	0.322379
709.870814	0.322449
710.071093	0.322272
710.271354	0.322148
710.471597	0.322332
710.671821	0.322308
710.872028	0.322319
711.072216	0.322231
711.272385	0.321844
711.472537	0.321631
711.672670	0.321368
711.872785	0.321523
712.072882	0.321533
712.272961	0.321199
712.473021	0.321143
712.673063	0.321062
712.873087	0.320990
713.073093	0.320969
713.273081	0.320862
713.473050	0.320828
713.673001	0.321086
713.872934	0.320953
714.072849	0.321220
714.272745	0.321268
714.472623	0.321360
714.672483	0.321507
714.872325	0.321510
715.072148	0.321548
715.271954	0.321375
715.471741	0.320950
715.671509	0.321015
715.871260	0.320825
716.070992	0.320574
716.270707	0.320077
716.470403	0.319725
716.670080	0.319658
716.869740	0.319510
717.069381	0.319547
717.269004	0.319613
717.468609	0.319492
717.668195	0.319385
717.867764	0.319068
718.067314	0.319008
718.266846	0.319072
718.466360	0.318969
718.665855	0.318767
718.865332	0.318551
719.064791	0.317935
719.264232	0.317991
719.463655	0.317909
719.663059	0.317813
719.862445	0.317727
720.061813	0.317485
720.261163	0.317141
720.460494	0.316771
720.659807	0.316969
720.859102	0.317170
721.058379	0.316910
721.257638	0.316728
721.456878	0.316918
721.656100	0.316916
721.855304	0.317000
722.054490	0.317238
722.253657	0.317524
722.452806	0.317360
722.651937	0.317456
722.851050	0.317473
723.050145	0.317588
723.249221	0.317473
723.448279	0.317313
723.647319	0.316874
723.846340	0.316614
724.045344	0.316474
724.244329	0.316122
724.443296	0.316033
724.642245	0.315841
724.841175	0.315706
725.040088	0.315650
725.238982	0.315863
725.437857	0.316115
725.636715	0.315947
725.835554	0.316128
726.034376	0.316150
726.233179	0.315959
726.431963	0.315979
726.630730	0.316001
726.829478	0.315624
727.028208	0.315561
727.226920	0.315360
727.425614	0.315739
727.624289	0.315608
727.822946	0.315835
728.021585	0.315644
728.220206	0.315435
728.418808	0.314968
728.617392	0.314780
728.815958	0.314762
729.014506	0.314816
729.213036	0.314446
729.411547	0.314165
729.610040	0.313926
729.808515	0.313926
730.006972	0.313882
730.205410	0.314110
730.403831	0.314072
730.602233	0.313583
730.800616	0.313400
730.998982	0.313006
731.197329	0.312903
731.395658	0.312697
731.593969	0.312369
731.792262	0.311807
731.990536	0.311514
732.188793	0.311405
732.387031	0.311282
732.585250	0.310970
732.783452	0.310598
732.981635	0.310081
733.179800	0.309767
733.377947	0.309735
733.576076	0.309862
733.774186	0.309543
733.972278	0.309320
734.170352	0.308879
734.368408	0.308603
734.566446	0.308497
734.764465	0.308336
734.962466	0.308097
735.160449	0.307442
735.358413	0.307251
735.556360	0.306993
735.754288	0.306819
735.952198	0.306837
736.150090	0.306603
736.347963	0.306630
736.545818	0.306425
736.743655	0.306177
736.941474	0.306149
737.139275	0.306067
737.337057	0.305932
737.534821	0.305727
737.732567	0.305228
737.930295	0.304835
738.128005	0.304578
738.325696	0.304571
738.523369	0.304876
738.721024	0.304967
738.918660	0.304625
739.116279	0.304271
739.313879	0.304164
739.511461	0.304145
739.709024	0.304170
739.906570	0.304014
740.104097	0.304053
740.301606	0.303521
740.499097	0.303291
740.696569	0.303157
740.894024	0.303277
741.091460	0.302980
741.288878	0.303007
741.486277	0.302736
741.683659	0.302657
741.881022	0.302104
742.078367	0.302074
742.275694	0.301747
742.473002	0.301632
742.670293	0.301240
742.867565	0.301209
743.064819	0.301063
743.262054	0.300965
743.459272	0.300596
743.656471	0.300409
743.853652	0.300028
744.050815	0.300022
744.247959	0.299897
744.445085	0.299759
744.642194	0.299512
744.839283	0.299218
745.036355	0.299040
745.233408	0.299060
745.430444	0.298966
745.627461	0.298726
745.824459	0.298329
746.021440	0.297834
746.218402	0.297701
746.415346	0.297571
746.612272	0.297411
746.809180	0.297312
747.006069	0.296941
747.202940	0.296524
747.399793	0.296515
747.596628	0.296392
747.793444	0.296250
747.990243	0.296208
748.187023	0.296020
748.383784	0.295852
748.580528	0.295763
748.777253	0.295893
748.973960	0.296068
749.170649	0.295852
749.367320	0.295845
749.563973	0.296116
749.760607	0.295739
749.957223	0.295653
750.153821	0.295461
750.350400	0.295406
750.546962	0.295137
750.743505	0.295063
750.940030	0.295226
751.136536	0.295078
751.333025	0.294517
751.529495	0.294588
751.725947	0.294303
751.922381	0.293897
752.118796	0.293579
752.315194	0.293564
752.511573	0.293321
752.707934	0.292775
752.904276	0.292404
753.100601	0.292363
753.296907	0.291961
753.493195	0.291741
753.689465	0.291786
753.885716	0.291598
754.081949	0.291162
754.278164	0.290752
754.474361	0.290476
754.670540	0.290343
754.866700	0.290099
755.062843	0.290337
755.258967	0.289928
755.455072	0.289721
755.651160	0.289397
755.847229	0.289303
756.043280	0.289039
756.239313	0.288854
756.435328	0.288579
756.631324	0.288356
756.827302	0.287845
757.023262	0.288009
757.219204	0.287910
757.415127	0.287932
757.611033	0.287871
757.806920	0.288132
758.002788	0.288293
758.198639	0.288227
758.394471	0.288378
758.590286	0.288364
758.786081	0.288254
758.981859	0.288086
759.177619	0.287943
759.373360	0.287800
759.569083	0.287490
759.764788	0.287338
759.960474	0.287311
760.156143	0.287031
760.351793	0.286888
760.547425	0.286558
760.743038	0.286483
760.938634	0.286306
761.134211	0.286123
761.329770	0.286005
761.525311	0.285583
761.720833	0.285273
761.916338	0.285190
762.111824	0.284925
762.307292	0.284697
762.502741	0.284328
762.698173	0.283768
762.893586	0.283357
763.088981	0.283023
763.284358	0.282929
763.479716	0.283227
763.675057	0.282954
763.870379	0.282707
764.065683	0.282657
764.260968	0.282675
764.456236	0.283040
764.651485	0.282891
764.846716	0.283114
765.041929	0.282998
765.237123	0.282634
765.432299	0.282435
765.627457	0.282461
765.822597	0.282446
766.017719	0.282573
766.212822	0.282162
766.407907	0.282000
766.602974	0.281601
766.798023	0.281487
766.993054	0.281149
767.188066	0.281339
767.383060	0.281115
767.578036	0.281121
767.772993	0.280889
767.967933	0.281133
768.162854	0.281030
768.357757	0.281182
768.552642	0.281048
768.747508	0.281137
768.942356	0.281008
769.137186	0.281167
769.331998	0.280787
769.526792	0.280646
769.721567	0.280151
769.916324	0.280486
770.111063	0.280413
770.305784	0.280380
770.500486	0.280338
770.695171	0.280222
770.889837	0.280016
771.084484	0.280343
771.279114	0.280300
771.473725	0.280580
771.668318	0.280315
771.862893	0.279976
772.057450	0.279977
772.251988	0.279674
772.446509	0.279585
772.641011	0.279715
772.835494	0.279688
773.029960	0.279602
773.224407	0.279359
773.418836	0.279475
773.613247	0.279607
773.807640	0.279292
774.002014	0.279444
774.196370	0.279427
774.390708	0.279389
774.585028	0.279221
774.779330	0.279405
774.973613	0.279681
775.167878	0.279709
775.362125	0.279600
775.556354	0.279883
775.750564	0.279955
775.944756	0.280017
776.138930	0.279777
776.333086	0.279836
776.527223	0.279536
776.721343	0.279519
776.915444	0.279586
777.109526	0.279903
777.303591	0.280264
777.497637	0.280250
777.691666	0.280279
777.885676	0.280530
778.079667	0.280234
778.273641	0.280566
778.467596	0.280448
778.661533	0.280390
778.855452	0.280574
779.049352	0.280345
779.243235	0.280462
779.437099	0.280615
779.630945	0.280730
779.824773	0.281120
780.018582	0.281060
780.212373	0.281051
780.406146	0.281126
780.599901	0.280896
780.793638	0.280973
780.987356	0.281036
781.181056	0.281005
781.374738	0.280793
781.568402	0.280676
781.762047	0.280625
781.955674	0.280765
782.149283	0.280853
782.342874	0.280532
782.536447	0.280492
782.730001	0.280591
782.923537	0.280545
783.117055	0.280431
783.310555	0.280440
783.504036	0.280356
783.697499	0.280284
783.890944	0.279864
784.084371	0.280058
784.277780	0.279999
784.471170	0.279683
784.664542	0.279474
784.857896	0.279755
785.051231	0.279820
785.244549	0.280016
785.437848	0.279804
785.631129	0.280002
785.824392	0.280212
786.017636	0.280332
786.210863	0.280457
786.404071	0.280641
786.597260	0.280675
786.790432	0.281018
786.983585	0.281257
787.176721	0.281754
787.369838	0.282039
787.562936	0.281978
787.756017	0.282060
787.949079	0.282298
788.142123	0.282468
788.335149	0.282639
788.528156	0.282626
788.721146	0.282508
788.914117	0.282637
789.107070	0.282960
789.300005	0.283116
789.492921	0.283270
789.685819	0.283308
789.878699	0.283387
790.071561	0.283494
790.264405	0.283655
790.457230	0.284002
790.650037	0.284173
790.842826	0.284175
791.035597	0.284468
791.228349	0.284443
791.421084	0.284526
791.613800	0.284736
791.806497	0.284895
791.999177	0.284864
792.191838	0.285044
792.384481	0.285267
792.577106	0.285560
792.769713	0.285591
792.962301	0.285922
793.154871	0.286294
793.347423	0.286606
793.539957	0.286806
793.732473	0.287068
793.924970	0.287194
794.117449	0.287160
794.309910	0.287276
794.502353	0.287519
794.694777	0.287787
794.887183	0.288009
795.079571	0.288141
795.271941	0.288207
795.464293	0.288266
795.656626	0.288520
795.848941	0.288730
796.041238	0.288726
796.233516	0.288992
796.425777	0.289048
796.618019	0.289302
796.810243	0.289047
797.002449	0.289281
797.194636	0.289598
797.386805	0.289611
797.578956	0.289762
797.771089	0.290278
797.963204	0.290475
798.155300	0.290584
798.347378	0.290743
798.539438	0.291377
798.731480	0.291467
798.923503	0.291448
799.115509	0.291533
799.307496	0.291653
799.499465	0.291354
799.691415	0.291275
799.883348	0.291531
800.075262	0.291332
800.267158	0.291364
800.459035	0.291530
800.650895	0.291735
800.842736	0.292145
801.034559	0.292544
801.226364	0.292903
801.418150	0.293283
801.609919	0.293711
801.801669	0.294135
801.993401	0.294394
802.185114	0.294945
802.376810	0.295351
802.568487	0.295549
802.760146	0.295505
802.951787	0.295810
803.143409	0.296137
803.335014	0.296161
803.526600	0.296498
803.718168	0.296925
803.909717	0.297005
804.101249	0.297499
804.292762	0.297564
804.484257	0.298037
804.675734	0.298255
804.867192	0.298477
805.058632	0.298663
805.250054	0.298824
805.441458	0.298907
805.632844	0.299049
805.824211	0.299152
806.015561	0.299486
806.206891	0.299504
806.398204	0.299729
806.589499	0.299963
806.780775	0.300332
806.972033	0.300631
807.163273	0.301174
807.354495	0.301266
807.545698	0.301513
807.736883	0.301922
807.928050	0.302697
808.119199	0.303071
808.310329	0.303470
808.501441	0.303793
808.692535	0.304223
808.883611	0.304235
809.074669	0.305086
809.265708	0.305484
809.456729	0.305828
809.647732	0.306271
809.838717	0.306688
810.029683	0.306708
810.220632	0.307075
810.411562	0.307670
810.602474	0.308246
810.793367	0.308409
810.984242	0.308793
811.175100	0.309156
811.365938	0.309258
811.556759	0.309669
811.747562	0.310023
811.938346	0.310589
812.129112	0.310623
812.319860	0.310948
812.510589	0.311420
812.701300	0.311613
812.891994	0.311848
813.082668	0.311974
813.273325	0.311908
813.463964	0.312083
813.654584	0.312095
813.845186	0.312459
814.035769	0.312264
814.226335	0.312159
814.416882	0.312126
814.607411	0.312303
814.797922	0.312446
814.988415	0.313054
815.178889	0.313511
815.369345	0.313712
815.559783	0.313847
815.750203	0.314269
815.940605	0.314683
816.130988	0.314947
816.321353	0.315133
816.511700	0.315652
816.702028	0.315638
816.892339	0.316146
817.082631	0.316531
817.272905	0.316909
817.463161	0.317421
817.653398	0.317728
817.843617	0.318451
818.033819	0.318853
818.224001	0.319299
818.414166	0.319781
818.604312	0.319902
818.794440	0.320124
818.984550	0.320625
819.174642	0.321218
819.364716	0.321968
819.554771	0.322220
819.744808	0.322801
819.934827	0.323176
820.124827	0.323475
820.314810	0.323988
820.504774	0.324538
820.694720	0.324894
820.884647	0.324956
821.074557	0.325133
821.264448	0.325423
821.454321	0.325854
821.644176	0.326224
821.834012	0.326964
822.023831	0.327400
822.213631	0.327707
822.403413	0.327863
822.593176	0.328410
822.782922	0.328796
822.972649	0.329284
823.162358	0.329626
823.352049	0.329797
823.541721	0.330135
823.731376	0.330785
823.921012	0.331321
824.110629	0.331882
824.300229	0.332031
824.489811	0.332380
824.679374	0.332997
824.868919	0.333451
825.058445	0.334419
825.247954	0.334966
825.437444	0.335249
825.626916	0.335965
825.816370	0.336734
826.005806	0.337908
826.195223	0.338514
826.384622	0.338992
826.574003	0.339723
826.763366	0.339805
826.952711	0.340116
827.142037	0.340626
827.331345	0.340913
827.520635	0.341331
827.709906	0.341593
827.899160	0.342142
828.088395	0.342734
828.277612	0.342881
828.466810	0.343635
828.655991	0.344257
828.845153	0.344448
829.034297	0.345273
829.223423	0.345365
829.412531	0.345750
829.601620	0.346216
829.790691	0.346477
829.979744	0.347100
830.168779	0.347166
830.357795	0.347349
830.546793	0.347915
830.735773	0.347809
830.924735	0.348390
831.113679	0.348392
831.302604	0.348624
831.491511	0.349094
831.680400	0.349637
831.869271	0.350047
832.058123	0.350780
832.246957	0.351276
832.435773	0.351842
832.624571	0.352273
832.813351	0.352944
833.002112	0.353191
833.190855	0.353695
833.379580	0.353928
833.568287	0.354702
833.756975	0.355114
833.945645	0.355478
834.134297	0.355990
834.322931	0.356392
834.511547	0.356896
834.700144	0.357492
834.888723	0.357767
835.077284	0.358041
835.265826	0.358115
835.454351	0.358719
835.642857	0.359080
835.831345	0.359334
836.019815	0.359821
836.208266	0.360397
836.396699	0.361255
836.585114	0.361792
836.773511	0.362685
836.961890	0.363694
837.150250	0.364424
837.338592	0.365199
837.526916	0.366074
837.715222	0.366892
837.903510	0.367648
838.091779	0.367857
838.280030	0.368490
838.468263	0.369189
838.656477	0.369578
838.844674	0.369997
839.032852	0.370689
839.221012	0.371437
839.409153	0.371795
839.597277	0.372342
839.785382	0.373274
839.973469	0.373846
840.161538	0.373845
840.349589	0.374455
840.537621	0.374819
840.725635	0.375264
840.913631	0.375234
841.101609	0.375695
841.289568	0.375809
841.477509	0.375953
841.665432	0.376117
841.853337	0.377034
842.041224	0.377480
842.229092	0.377883
842.416942	0.378224
842.604774	0.378907
842.792588	0.379129
842.980383	0.379513
843.168160	0.379837
843.355919	0.380906
843.543660	0.380851
843.731382	0.381475
843.919087	0.381924
844.106773	0.382299
844.294441	0.382650
844.482090	0.383675
844.669722	0.384418
844.857335	0.385151
845.044930	0.385183
845.232507	0.385831
845.420065	0.386109
845.607605	0.386262
845.795127	0.386737
845.982631	0.387024
846.170117	0.387181
846.357584	0.387346
846.545033	0.387469
846.732464	0.387862
846.919877	0.388574
847.107272	0.388864
847.294648	0.389537
847.482006	0.390279
847.669346	0.391567
847.856667	0.392107
848.043971	0.392655
848.231256	0.393687
848.418523	0.394299
848.605771	0.394768
848.793002	0.395261
848.980214	0.395751
849.167408	0.396256
849.354584	0.396188
849.541742	0.396671
849.728881	0.397378
849.916002	0.397584
850.103105	0.398188
850.290190	0.398540
850.477256	0.399288
850.664304	0.399622
850.851334	0.400037
851.038346	0.400601
851.225340	0.401274
851.412315	0.401990
851.599272	0.402387
851.786211	0.402809
851.973132	0.403363
852.160034	0.403514
852.346918	0.404050
852.533784	0.404405
852.720632	0.405243
852.907462	0.405574
853.094273	0.405658
853.281066	0.406094
853.467841	0.406670
853.654598	0.407068
853.841336	0.407365
854.028056	0.407723
854.214758	0.408485
854.401442	0.408616
854.588107	0.408672
854.774755	0.408835
854.961384	0.409482
855.147995	0.410141
855.334587	0.410842
855.521162	0.411486
855.707718	0.412398
855.894256	0.412535
856.080775	0.412853
856.267277	0.413967
856.453760	0.414724
856.640225	0.415407
856.826672	0.415730
857.013101	0.415501
857.199511	0.416090
857.385903	0.416249
857.572277	0.416803
857.758633	0.417194
857.944970	0.417312
858.131290	0.417980
858.317591	0.418095
858.503873	0.418588
858.690138	0.419334
858.876384	0.419628
859.062612	0.420007
859.248822	0.420423
859.435014	0.420763
859.621188	0.421062
859.807343	0.421226
859.993480	0.421534
860.179599	0.421916
860.365699	0.422192
860.551781	0.422582
860.737846	0.423037
860.923891	0.423315
861.109919	0.424004
861.295929	0.424553
861.481920	0.425322
861.667893	0.425728
861.853848	0.425527
862.039784	0.426441
862.225702	0.426950
862.411603	0.427343
862.597484	0.427357
862.783348	0.427611
862.969193	0.428371
863.155021	0.428676
863.340830	0.429202
863.526620	0.430178
863.712393	0.430702
863.898147	0.431500
864.083883	0.431831
864.269601	0.432848
864.455301	0.433244
864.640982	0.433139
864.826645	0.433386
865.012290	0.434169
865.197917	0.433922
865.383526	0.433612
865.569116	0.433542
865.754688	0.433826
865.940242	0.433917
866.125777	0.434165
866.311295	0.434063
866.496794	0.434126
866.682275	0.434299
866.867737	0.435147
867.053182	0.435975
867.238608	0.436624
867.424016	0.437573
867.609406	0.438329
867.794778	0.438997
867.980131	0.439809
868.165466	0.440274
868.350783	0.440615
868.536082	0.440881
868.721362	0.441004
868.906625	0.441247
869.091869	0.441687
869.277094	0.441412
869.462302	0.441830
869.647491	0.442537
869.832662	0.442845
870.017815	0.443131
870.202950	0.443801
870.388066	0.444170
870.573165	0.444433
870.758245	0.444406
870.943306	0.445680
871.128350	0.446089
871.313375	0.446095
871.498382	0.446925
871.683371	0.447206
871.868342	0.447590
872.053294	0.448226
872.238229	0.448790
872.423144	0.449172
872.608042	0.448844
872.792922	0.448959
872.977783	0.449738
873.162626	0.449793
873.347451	0.450284
873.532258	0.450172
873.717046	0.450158
873.901816	0.450524
874.086568	0.450659
874.271302	0.450986
874.456017	0.451530
874.640715	0.451398
874.825394	0.451644
875.010055	0.451441
875.194697	0.451835
875.379322	0.452556
875.563928	0.451932
875.748516	0.452089
875.933085	0.452596
876.117637	0.452472
876.302170	0.452157
876.486685	0.452474
876.671182	0.453002
876.855661	0.452909
877.040121	0.452639
877.224563	0.453299
877.408987	0.453135
877.593393	0.453030
877.777780	0.453009
877.962150	0.454134
878.146501	0.453778
878.330833	0.453857
878.515148	0.454605
878.699444	0.454950
878.883722	0.455475
879.067982	0.456238
879.252224	0.456499
879.436447	0.456913
879.620653	0.456597
879.804840	0.457273
879.989008	0.457705
880.173159	0.457629
880.357291	0.457859
880.541405	0.457720
880.725501	0.458034
880.909579	0.458633
881.093638	0.459165
881.277680	0.460198
881.461703	0.459959
881.645707	0.460441
881.829694	0.460813
882.013662	0.460740
882.197612	0.461025
882.381544	0.460539
882.565458	0.459957
882.749353	0.459621
882.933230	0.458899
883.117089	0.459712
883.300930	0.459145
883.484753	0.458725
883.668557	0.459248
883.852343	0.459355
884.036111	0.459147
884.219861	0.459691
884.403592	0.459804
884.587305	0.460069
884.771000	0.459831
884.954677	0.460347
885.138335	0.460944
885.321976	0.460642
885.505598	0.460343
885.689201	0.461083
885.872787	0.461050
886.056354	0.461199
886.239904	0.460923
886.423434	0.461081
886.606947	0.460506
886.790442	0.459967
886.973918	0.459738
887.157376	0.459970
887.340816	0.459946
887.524237	0.460571
887.707641	0.460827
887.891026	0.461600
888.074393	0.461421
888.257741	0.461526
888.441072	0.461829
888.624384	0.462205
888.807678	0.462260
888.990954	0.462216
889.174211	0.461120
889.357451	0.460854
889.540672	0.460307
889.723875	0.460378
889.907059	0.460481
890.090226	0.460293
890.273374	0.460051
890.456504	0.459993
890.639616	0.459962
890.822709	0.460331
891.005785	0.460004
891.188842	0.459752
891.371881	0.459930
891.554901	0.460011
891.737904	0.460220
891.920888	0.459901
892.103854	0.459741
892.286802	0.460042
892.469731	0.459781
892.652643	0.460142
892.835536	0.460486
893.018410	0.460148
893.201267	0.460210
893.384106	0.459955
893.566926	0.459906
893.749728	0.459847
893.932511	0.459507
894.115277	0.459640
894.298024	0.459457
894.480753	0.459045
894.663464	0.458600
894.846157	0.458534
895.028831	0.458328
895.211487	0.458399
895.394125	0.458430
895.576745	0.458089
895.759346	0.457395
895.941930	0.457378
896.124495	0.456957
896.307041	0.457457
896.489570	0.456677
896.672080	0.456371
896.854573	0.456735
897.037046	0.456568
897.219502	0.456011
897.401940	0.456380
897.584359	0.456377
897.766760	0.456360
897.949143	0.455865
898.131507	0.456196
898.313854	0.456246
898.496182	0.456025
898.678492	0.455945
898.860783	0.456086
899.043057	0.455022
899.225312	0.453872
899.407549	0.453662
899.589768	0.453034
899.771968	0.452441
899.954151	0.452067
900.136315	0.451102
900.318461	0.450413
900.500588	0.449857
900.682698	0.449729
900.864789	0.449279
901.046862	0.448594
901.228917	0.448309
901.410953	0.448326
901.592971	0.448096
901.774972	0.448151
901.956953	0.447654
902.138917	0.447315
902.320862	0.447182
902.502790	0.447646
902.684699	0.447433
902.866589	0.447476
903.048462	0.446335
903.230316	0.445869
903.412152	0.445018
903.593970	0.444861
903.775770	0.444889
903.957551	0.444790
904.139314	0.443785
904.321059	0.443721
904.502786	0.443306
904.684494	0.443324
904.866185	0.442365
905.047857	0.442109
905.229510	0.441523
905.411146	0.440750
905.592763	0.439837
905.774363	0.439421
905.955943	0.438808
906.137506	0.438212
906.319051	0.437509
906.500577	0.437151
906.682085	0.436561
906.863575	0.436075
907.045046	0.435264
907.226500	0.434971
907.407935	0.434497
907.589352	0.434260
907.770750	0.433512
907.952131	0.433556
908.133493	0.433368
908.314837	0.433353
908.496163	0.432907
908.677470	0.432838
908.858760	0.432206
909.040031	0.431325
909.221284	0.430842
909.402518	0.430661
909.583735	0.429136
909.764933	0.428071
909.946113	0.427099
910.127275	0.426239
910.308418	0.425578
910.489544	0.425804
910.670651	0.425616
910.851740	0.425422
911.032810	0.424795
911.213863	0.424413
911.394897	0.424048
911.575913	0.422695
911.756911	0.422414
911.937890	0.422086
912.118851	0.421085
912.299794	0.420962
912.480719	0.420083
912.661626	0.419546
912.842514	0.419382
913.023384	0.419260
913.204236	0.419830
913.385070	0.419013
913.565886	0.418395
913.746683	0.418343
913.927462	0.417595
914.108223	0.416601
914.288965	0.415620
914.469690	0.414876
914.650396	0.414178
914.831084	0.413225
915.011754	0.412971
915.192405	0.412323
915.373038	0.410946
915.553653	0.409996
915.734250	0.409134
915.914829	0.408083
916.095389	0.407701
916.275931	0.407147
916.456455	0.405697
916.636961	0.404607
916.817448	0.403571
916.997917	0.402956
917.178368	0.402437
917.358801	0.402072
917.539216	0.401415
917.719612	0.400496
917.899990	0.399656
918.080350	0.399432
918.260692	0.398958
918.441015	0.398597
918.621320	0.397950
918.801607	0.397143
918.981876	0.396154
919.162127	0.396788
919.342359	0.395962
919.522573	0.394828
919.702769	0.393816
919.882947	0.392260
920.063106	0.391396
920.243247	0.390605
920.423370	0.389936
920.603475	0.389555
920.783562	0.387761
920.963630	0.386861
921.143680	0.386231
921.323712	0.385598
921.503725	0.385485
921.683721	0.384386
921.863698	0.383764
922.043657	0.382416
922.223598	0.381173
922.403520	0.380126
922.583424	0.379313
922.763311	0.379113
922.943178	0.378295
923.123028	0.377510
923.302859	0.376583
923.482673	0.375654
923.662467	0.375399
923.842244	0.374421
924.022003	0.374312
924.201743	0.372946
924.381465	0.372112
924.561169	0.371518
924.740854	0.370608
924.920522	0.370474
925.100171	0.370012
925.279802	0.368793
925.459414	0.367750
925.639009	0.366185
925.818585	0.366800
925.998143	0.365026
926.177683	0.364141
926.357205	0.363312
926.536708	0.361695
926.716193	0.360095
926.895660	0.359946
927.075109	0.360478
927.254539	0.358406
927.433951	0.356906
927.613345	0.355560
927.792721	0.354588
927.972079	0.353722
928.151418	0.353199
928.330739	0.351896
928.510042	0.350721
928.689327	0.348431
928.868593	0.349045
929.047841	0.347518
929.227071	0.348276
929.406283	0.347089
929.585476	0.346308
929.764652	0.345566
929.943809	0.345150
930.122948	0.343704
930.302068	0.342988
930.481171	0.342450
930.660255	0.342109
930.839321	0.340873
931.018369	0.340041
931.197398	0.338609
931.376409	0.337732
931.555402	0.337292
931.734377	0.336628
931.913334	0.336179
932.092272	0.334581
932.271192	0.334201
932.450094	0.333324
932.628978	0.331818
932.807844	0.330746
932.986691	0.329182
933.165520	0.327560
933.344331	0.325978
933.523123	0.324462
933.701898	0.323958
933.880654	0.321949
934.059392	0.319640
934.238111	0.319600
934.416813	0.318721
934.595496	0.317768
934.774161	0.316405
934.952808	0.316128
935.131437	0.315664
935.310047	0.314024
935.488639	0.313350
935.667213	0.311999
935.845769	0.310545
936.024306	0.310322
936.202825	0.309204
936.381326	0.308750
936.559809	0.307106
936.738274	0.304445
936.916720	0.303797
937.095148	0.303191
937.273558	0.302480
937.451950	0.301002
937.630323	0.299946
937.808678	0.298340
937.987015	0.297552
938.165334	0.295769
938.343635	0.296079
938.521917	0.294893
938.700181	0.292480
938.878427	0.291856
939.056655	0.291568
939.234864	0.290539
939.413055	0.289272
939.591228	0.287370
939.769383	0.287135
939.947519	0.285964
940.125638	0.284551
940.303738	0.283497
940.481820	0.282948
940.659883	0.281316
940.837929	0.279518
941.015956	0.279476
941.193965	0.277859
941.371955	0.277215
941.549928	0.275595
941.727882	0.275045
941.905818	0.275313
942.083736	0.273570
942.261636	0.272299
942.439517	0.270746
942.617380	0.269804
942.795225	0.268890
942.973052	0.266622
943.150860	0.265428
943.328651	0.262586
943.506423	0.261056
943.684176	0.260346
943.861912	0.259521
944.039629	0.259019
944.217328	0.257018
944.395009	0.257264
944.572672	0.258160
944.750317	0.257146
944.927943	0.256220
945.105551	0.254757
945.283141	0.253276
945.460712	0.252419
945.638265	0.251482
945.815801	0.251282
945.993317	0.249741
946.170816	0.246820
946.348297	0.245256
946.525759	0.244233
946.703203	0.242863
946.880629	0.242237
947.058036	0.241330
947.235425	0.237675
947.412797	0.235223
947.590149	0.234017
947.767484	0.233373
947.944800	0.232826
948.122099	0.232003
948.299379	0.231362
948.476640	0.229949
948.653884	0.228706
948.831109	0.228795
949.008316	0.228337
949.185505	0.224609
949.362676	0.224709
949.539828	0.221896
949.716962	0.219666
949.894078	0.217956
950.071176	0.216557
950.248256	0.213613
950.425317	0.213047
950.602360	0.210624
950.779385	0.210977
950.956391	0.210433
951.133380	0.210313
951.310350	0.209096
951.487302	0.208409
951.664235	0.208386
951.841151	0.208566
952.018048	0.206110
952.194927	0.207087
952.371788	0.206124
952.548631	0.203752
952.725455	0.205067
952.902261	0.206490
953.079049	0.206819
953.255819	0.203470
953.432570	0.203751
953.609303	0.204929
953.786018	0.203188
953.962715	0.201668
954.139394	0.198923
954.316054	0.196746
954.492696	0.195973
954.669320	0.192368
954.845926	0.192846
955.022513	0.191121
955.199083	0.188478
955.375634	0.187465
955.552166	0.188775
955.728681	0.188283
955.905177	0.188230
956.081655	0.185946
956.258115	0.185899
956.434557	0.183627
956.610980	0.182471
956.787385	0.182301
956.963772	0.183484
957.140141	0.181849
957.316492	0.181036
957.492824	0.180759
957.669138	0.180576
957.845434	0.180836
958.021712	0.181953
958.197971	0.183965
958.374212	0.183843
958.550435	0.181225
958.726640	0.180839
958.902826	0.182169
959.078995	0.182117
959.255145	0.181401
959.431277	0.180479
959.607390	0.179434
959.783486	0.176753
959.959563	0.176152
960.135622	0.177456
960.311662	0.177244
960.487685	0.175796
960.663689	0.172772
960.839675	0.174011
961.015643	0.175114
961.191593	0.176659
961.367524	0.177320
961.543437	0.179047
961.719332	0.179104
961.895209	0.178900
962.071067	0.177594
962.246907	0.177202
962.422730	0.177384
962.598533	0.174798
962.774319	0.173590
962.950086	0.174858
963.125835	0.173578
963.301566	0.172467
963.477279	0.169834
963.652973	0.171833
963.828650	0.171363
964.004308	0.170301
964.179947	0.169271
964.355569	0.168517
964.531172	0.164556
964.706757	0.165346
964.882324	0.164556
965.057873	0.167853
965.233403	0.168462
965.408916	0.168782
965.584410	0.169514
965.759885	0.170173
965.935343	0.170098
966.110782	0.171306
966.286203	0.170116
966.461606	0.168107
966.636991	0.166898
966.812357	0.166579
966.987705	0.164495
967.163035	0.162654
967.338347	0.163840
967.513641	0.163941
967.688916	0.165533
967.864173	0.165913
968.039412	0.168072
968.214632	0.168578
968.389835	0.166335
968.565019	0.169313
968.740185	0.169532
968.915333	0.168990
969.090462	0.168180
969.265573	0.168363
969.440667	0.166341
969.615741	0.165259
969.790798	0.162989
969.965836	0.163923
970.140856	0.162582
970.315858	0.164032
970.490842	0.165167
970.665808	0.165844
970.840755	0.162053
971.015684	0.162391
971.190595	0.162307
971.365487	0.162137
971.540362	0.161424
971.715218	0.162209
971.890056	0.159733
972.064875	0.158358
972.239677	0.158994
972.414460	0.159602
972.589225	0.159259
972.763972	0.158068
972.938700	0.158677
973.113411	0.157601
973.288103	0.157698
973.462777	0.159737
973.637432	0.160116
973.812070	0.157954
973.986689	0.160393
974.161290	0.159613
974.335873	0.163352
974.510437	0.163769
974.684984	0.165046
974.859512	0.164343
975.034022	0.162337
975.208513	0.160351
975.382987	0.160340
975.557442	0.160861
975.731879	0.161488
975.906298	0.161024
976.080698	0.163031
976.255080	0.163289
976.429445	0.161839
976.603790	0.163814
976.778118	0.167323
976.952427	0.167920
977.126719	0.164911
977.300992	0.165251
977.475246	0.161952
977.649483	0.161239
977.823701	0.159564
977.997901	0.159810
978.172083	0.158829
978.346247	0.155261
978.520392	0.153533
978.694519	0.153648
978.868628	0.154306
979.042719	0.155897
979.216791	0.155065
979.390845	0.155638
979.564882	0.158005
979.738899	0.156621
979.912899	0.158923
980.086880	0.162299
980.260843	0.163027
980.434788	0.161488
980.608715	0.160725
980.782623	0.160568
980.956514	0.161371
981.130386	0.160148
981.304240	0.159809
981.478075	0.157694
981.651892	0.153848
981.825692	0.151537
981.999472	0.152849
982.173235	0.152719
982.346980	0.154319
982.520706	0.154112
982.694414	0.153520
982.868104	0.155338
983.041775	0.157090
983.215428	0.160083
983.389064	0.160431
983.562680	0.160570
983.736279	0.160049
983.909860	0.158262
984.083422	0.158511
984.256966	0.158901
984.430491	0.157769
984.603999	0.156112
984.777488	0.155749
984.950959	0.157038
985.124412	0.156138
985.297847	0.157506
985.471263	0.157279
985.644661	0.155156
985.818041	0.154204
985.991403	0.155468
986.164747	0.156084
986.338072	0.156631
986.511379	0.155162
986.684668	0.157427
986.857938	0.157653
987.031191	0.157226
987.204425	0.159020
987.377641	0.159457
987.550839	0.159278
987.724018	0.160888
987.897179	0.157946
988.070322	0.161023
988.243447	0.158940
988.416554	0.160108
988.589642	0.160849
988.762712	0.159519
988.935764	0.159018
989.108798	0.158290
989.281813	0.157350
989.454811	0.157021
989.627790	0.156339
989.800751	0.157162
989.973693	0.154531
990.146617	0.155858
990.319524	0.157999
990.492412	0.158679
990.665281	0.159604
990.838133	0.159127
991.010966	0.160591
991.183781	0.160620
991.356578	0.159158
991.529356	0.160011
991.702117	0.159108
991.874859	0.158464
992.047583	0.159285
992.220288	0.159664
992.392976	0.159323
992.565645	0.160381
992.738296	0.162534
992.910929	0.164020
993.083543	0.163423
993.256139	0.160887
993.428718	0.159147
993.601277	0.159501
993.773819	0.158388
993.946342	0.160145
994.118848	0.158540
994.291335	0.156398
994.463803	0.156421
994.636254	0.157501
994.808686	0.158242
994.981100	0.159052
995.153496	0.158558
995.325874	0.156542
995.498233	0.156196
995.670574	0.158272
995.842897	0.155926
996.015202	0.154893
996.187488	0.153699
996.359757	0.153969
996.532007	0.154404
996.704239	0.155177
996.876452	0.156921
997.048648	0.157024
997.220825	0.155587
997.392984	0.157575
997.565124	0.158545
997.737247	0.157727
997.909351	0.159094
998.081437	0.158860
998.253505	0.157348
998.425554	0.156136
998.597586	0.153296
998.769599	0.152867
998.941594	0.152296
999.113571	0.153483
999.285529	0.154616
999.457469	0.152403
999.629391	0.152991
999.801295	0.153694
999.973181	0.154727
1000.145048	0.157608
1000.316897	0.159643
1000.488728	0.159108
1000.660541	0.157729
1000.832335	0.157941
1001.004111	0.160632
1001.175869	0.160212
1001.347609	0.158934
1001.519331	0.161038
1001.691034	0.160655
1001.862719	0.159937
1002.034386	0.162405
1002.206035	0.162168
1002.377665	0.162511
1002.549277	0.160014
1002.720871	0.160032
1002.892447	0.160704
1003.064004	0.159754
1003.235544	0.159959
1003.407065	0.158679
1003.578568	0.157157
1003.750052	0.157437
1003.921519	0.156808
1004.092967	0.158900
1004.264397	0.159628
1004.435809	0.160424
1004.607202	0.159628
1004.778577	0.158024
1004.949934	0.157932
1005.121273	0.156495
1005.292594	0.156277
1005.463896	0.155454
1005.635180	0.155025
1005.806446	0.154330
1005.977694	0.153766
1006.148923	0.153181
1006.320135	0.152835
1006.491328	0.153768
1006.662503	0.155324
1006.833659	0.155954
1007.004798	0.156169
1007.175918	0.156182
1007.347020	0.155739
1007.518103	0.154800
1007.689169	0.155931
1007.860216	0.156408
1008.031245	0.157844
1008.202256	0.157344
1008.373248	0.158172
1008.544223	0.160128
1008.715179	0.159453
1008.886117	0.160728
1009.057036	0.162583
1009.227938	0.161455
1009.398821	0.163066
1009.569686	0.160945
1009.740533	0.161137
1009.911361	0.158732
1010.082172	0.157027
1010.252964	0.156561
1010.423738	0.155881
1010.594493	0.152768
1010.765231	0.154339
1010.935950	0.153440
1011.106651	0.153360
1011.277334	0.154992
1011.447998	0.155077
1011.618645	0.156293
1011.789273	0.158915
1011.959882	0.157741
1012.130474	0.159148
1012.301048	0.156687
1012.471603	0.154543
1012.642140	0.156757
1012.812658	0.156085
1012.983159	0.157785
1013.153641	0.155792
1013.324105	0.154241
1013.494551	0.154573
1013.664979	0.154424
1013.835388	0.154723
1014.005779	0.153968
1014.176152	0.152816
1014.346507	0.150706
1014.516843	0.149897
1014.687162	0.149792
1014.857462	0.149891
1015.027744	0.151339
1015.198007	0.153497
1015.368252	0.154318
1015.538480	0.156487
1015.708689	0.154536
1015.878879	0.155162
1016.049052	0.154334
1016.219206	0.157125
1016.389342	0.156570
1016.559460	0.154799
1016.729559	0.153719
1016.899641	0.153766
1017.069704	0.153927
1017.239749	0.154059
1017.409775	0.154471
1017.579784	0.152807
1017.749774	0.150056
1017.919746	0.150658
1018.089700	0.148439
1018.259635	0.147345
1018.429553	0.147066
1018.599452	0.149164
1018.769333	0.147687
1018.939195	0.146614
1019.109040	0.148355
1019.278866	0.148768
1019.448674	0.147245
1019.618464	0.150718
1019.788235	0.151450
1019.957989	0.149922
1020.127724	0.147688
1020.297441	0.149388
1020.467139	0.149294
1020.636820	0.149398
1020.806482	0.148502
1020.976126	0.148773
1021.145752	0.148354
1021.315359	0.147933
1021.484948	0.150105
1021.654519	0.149097
1021.824072	0.151507
1021.993607	0.151082
1022.163123	0.152921
1022.332621	0.155094
1022.502101	0.153312
1022.671563	0.153672
1022.841007	0.154210
1023.010432	0.152176
1023.179839	0.153717
1023.349228	0.152740
1023.518598	0.153897
1023.687951	0.152287
1023.857285	0.151241
1024.026601	0.152478
1024.195899	0.149289
1024.365178	0.147956
1024.534439	0.150082
1024.703682	0.149149
1024.872907	0.148042
1025.042114	0.147980
1025.211302	0.146876
1025.380472	0.145685
1025.549624	0.145034
1025.718758	0.147756
1025.887873	0.147766
1026.056970	0.147519
1026.226049	0.148544
1026.395110	0.149152
1026.564153	0.150789
1026.733177	0.152812
1026.902183	0.153905
1027.071171	0.154438
1027.240141	0.153415
1027.409092	0.154849
1027.578026	0.154332
1027.746940	0.154826
1027.915837	0.154485
1028.084716	0.154867
1028.253576	0.153430
1028.422418	0.155072
1028.591242	0.155512
1028.760048	0.156561
1028.928835	0.156907
1029.097604	0.155961
1029.266355	0.154964
1029.435088	0.153528
1029.603803	0.150252
1029.772499	0.149453
1029.941177	0.149673
1030.109837	0.151847
1030.278478	0.151280
1030.447102	0.150334
1030.615707	0.151529
1030.784294	0.151080
1030.952863	0.152561
1031.121413	0.155538
1031.289945	0.157702
1031.458460	0.156373
1031.626955	0.154968
1031.795433	0.153547
1031.963892	0.152395
1032.132334	0.151522
1032.300756	0.151892
1032.469161	0.153572
1032.637548	0.152311
1032.805916	0.150053
1032.974266	0.150600
1033.142598	0.150761
1033.310911	0.152034
1033.479207	0.151976
1033.647484	0.151875
1033.815743	0.152663
1033.983983	0.150244
1034.152206	0.149290
1034.320410	0.152000
1034.488596	0.149686
1034.656764	0.149860
1034.824914	0.149252
1034.993045	0.150982
1035.161158	0.149930
1035.329253	0.151406
1035.497330	0.152189
1035.665388	0.153501
1035.833428	0.151477
1036.001450	0.152318
1036.169454	0.152726
1036.337440	0.154571
1036.505407	0.152876
1036.673356	0.154283
1036.841287	0.150450
1037.009200	0.149178
1037.177094	0.149724
1037.344970	0.150483
1037.512828	0.150548
1037.680668	0.148601
1037.848489	0.149235
1038.016293	0.150204
1038.184078	0.149713
1038.351845	0.151537
1038.519593	0.151562
1038.687324	0.148581
1038.855036	0.148601
1039.022730	0.149733
1039.190406	0.151567
1039.358063	0.148314
1039.525702	0.148835
1039.693323	0.148711
1039.860926	0.148804
1040.028511	0.148300
1040.196077	0.150684
1040.363625	0.149794
1040.531155	0.149189
1040.698667	0.148540
1040.866161	0.149936
1041.033636	0.150967
1041.201093	0.153341
1041.368532	0.151007
1041.535952	0.153915
1041.703355	0.151892
1041.870739	0.152947
1042.038105	0.151779
1042.205452	0.151009
1042.372782	0.152811
1042.540093	0.150460
1042.707386	0.150199
1042.874661	0.152527
1043.041918	0.152402
1043.209156	0.153505
1043.376376	0.152437
1043.543578	0.153195
1043.710762	0.153627
1043.877927	0.153358
1044.045074	0.153627
1044.212203	0.152027
1044.379314	0.150788
1044.546407	0.149271
1044.713481	0.147324
1044.880537	0.149168
1045.047575	0.151143
1045.214595	0.150589
1045.381596	0.148905
1045.548579	0.149670
1045.715544	0.149765
1045.882491	0.148557
1046.049420	0.147733
1046.216330	0.148813
1046.383222	0.146516
1046.550096	0.144452
1046.716951	0.144190
1046.883789	0.143751
1047.050608	0.143479
1047.217409	0.143952
1047.384192	0.145461
1047.550956	0.147652
1047.717703	0.149499
1047.884431	0.150495
1048.051140	0.150010
1048.217832	0.151092
1048.384505	0.151847
1048.551161	0.151888
1048.717798	0.151109
1048.884416	0.152366
1049.051017	0.150610
1049.217599	0.150290
1049.384163	0.150274
1049.550709	0.150811
1049.717237	0.149550
1049.883746	0.149459
1050.050237	0.150136
1050.216710	0.151981
1050.383165	0.149409
1050.549601	0.150088
1050.716019	0.148708
1050.882420	0.149247
1051.048801	0.150863
1051.215165	0.151976
1051.381510	0.150923
1051.547837	0.150864
1051.714146	0.147416
1051.880437	0.150036
1052.046709	0.149993
1052.212964	0.151557
1052.379200	0.151094
1052.545417	0.149124
1052.711617	0.148150
1052.877798	0.149358
1053.043961	0.151014
1053.210106	0.154428
1053.376233	0.153468
1053.542341	0.152569
1053.708432	0.150498
1053.874504	0.151031
1054.040557	0.150998
1054.206593	0.151381
1054.372610	0.153203
1054.538609	0.151779
1054.704590	0.149005
1054.870553	0.149228
1055.036497	0.149698
1055.202424	0.151376
1055.368331	0.151470
1055.534221	0.152055
1055.700093	0.152472
1055.865946	0.150388
1056.031781	0.148506
1056.197598	0.149232
1056.363397	0.149405
1056.529177	0.149101
1056.694939	0.149647
1056.860683	0.150049
1057.026409	0.149672
1057.192116	0.149731
1057.357806	0.151608
1057.523477	0.152314
1057.689130	0.152978
1057.854764	0.151793
1058.020381	0.152249
1058.185979	0.151765
1058.351559	0.149346
1058.517120	0.149125
1058.682664	0.149269
1058.848189	0.146374
1059.013696	0.146001
1059.179185	0.147130
1059.344656	0.146686
1059.510108	0.146847
1059.675542	0.146330
1059.840958	0.145997
1060.006356	0.146076
1060.171735	0.144827
1060.337096	0.144892
1060.502439	0.147293
1060.667764	0.147633
1060.833071	0.148078
1060.998359	0.146930
1061.163629	0.146255
1061.328881	0.149238
1061.494115	0.150844
1061.659330	0.153917
1061.824527	0.153871
1061.989706	0.151068
1062.154867	0.150417
1062.320010	0.150780
1062.485134	0.152220
1062.650240	0.152742
1062.815328	0.150737
1062.980398	0.148548
1063.145449	0.145321
1063.310482	0.148867
1063.475497	0.148204
1063.640494	0.147914
1063.805473	0.148901
1063.970433	0.149742
1064.135375	0.148050
1064.300299	0.149104
1064.465204	0.150774
1064.630092	0.148794
1064.794961	0.146508
1064.959812	0.148354
1065.124645	0.148933
1065.289459	0.149895
1065.454256	0.148900
1065.619034	0.149626
1065.783793	0.149083
1065.948535	0.150860
1066.113258	0.153676
1066.277964	0.156564
1066.442651	0.155336
1066.607319	0.154899
1066.771970	0.154813
1066.936602	0.155654
1067.101216	0.156482
1067.265812	0.157677
1067.430389	0.155799
1067.594949	0.157770
1067.759490	0.152471
1067.924013	0.152955
1068.088518	0.152467
1068.253004	0.150021
1068.417472	0.150733
1068.581922	0.152398
1068.746354	0.150166
1068.910768	0.151053
1069.075163	0.150246
1069.239540	0.148303
1069.403899	0.147370
1069.568240	0.148695
1069.732562	0.146654
1069.896866	0.147064
1070.061152	0.146367
1070.225420	0.147000
1070.389670	0.146820
1070.553901	0.143308
1070.718114	0.147838
1070.882309	0.150794
1071.046486	0.149201
1071.210644	0.153928
1071.374784	0.150156
1071.538906	0.150429
1071.703010	0.150165
1071.867096	0.148140
1072.031163	0.150909
1072.195212	0.148463
1072.359243	0.146707
1072.523256	0.145750
1072.687250	0.143121
1072.851226	0.145660
1073.015184	0.142352
1073.179124	0.141014
1073.343045	0.143272
1073.506949	0.142008
1073.670834	0.142917
1073.834701	0.143189
1073.998549	0.142291
1074.162380	0.143712
1074.326192	0.141923
1074.489986	0.143656
1074.653761	0.144376
1074.817519	0.143583
1074.981258	0.144783
1075.144979	0.146778
1075.308682	0.146425
1075.472367	0.146764
1075.636033	0.145370
1075.799681	0.144404
1075.963311	0.143335
1076.126923	0.142842
1076.290516	0.141264
1076.454092	0.142093
1076.617649	0.139434
1076.781187	0.140180
1076.944708	0.141657
1077.108210	0.141097
1077.271695	0.141619
1077.435160	0.143252
1077.598608	0.145290
1077.762038	0.147613
1077.925449	0.145354
1078.088842	0.145541
1078.252217	0.146345
1078.415573	0.145898
1078.578912	0.147600
1078.742232	0.148187
1078.905534	0.148632
1079.068817	0.146997
1079.232083	0.144709
1079.395330	0.146719
1079.558559	0.149550
1079.721770	0.150086
1079.884962	0.148595
1080.048136	0.147999
1080.211293	0.149609
1080.374430	0.149215
1080.537550	0.150564
1080.700651	0.153401
1080.863735	0.153660
1081.026800	0.152851
1081.189846	0.151131
1081.352875	0.152134
1081.515885	0.152265
1081.678877	0.151783
1081.841851	0.155053
1082.004807	0.158812
1082.167744	0.157189
1082.330663	0.155125
1082.493564	0.154190
1082.656447	0.155256
1082.819312	0.156643
1082.982158	0.156776
1083.144986	0.156485
1083.307796	0.153694
1083.470587	0.154485
1083.633361	0.154832
1083.796116	0.157084
1083.958853	0.159911
1084.121571	0.162719
1084.284272	0.162791
1084.446954	0.162597
1084.609618	0.162487
1084.772264	0.163512
1084.934892	0.158266
1085.097501	0.156731
1085.260092	0.158144
1085.422665	0.156051
1085.585220	0.151930
1085.747756	0.153400
1085.910274	0.153276
1086.072774	0.153785
1086.235256	0.156059
1086.397720	0.154314
1086.560165	0.154628
1086.722592	0.149264
1086.885001	0.150904
1087.047392	0.150872
1087.209764	0.145374
1087.372119	0.145199
1087.534455	0.147481
1087.696772	0.142213
1087.859072	0.144797
1088.021353	0.147280
1088.183616	0.149883
1088.345861	0.148625
1088.508088	0.151715
1088.670296	0.154511
1088.832486	0.155438
1088.994658	0.153796
1089.156812	0.158440
1089.318948	0.160958
1089.481065	0.159572
1089.643164	0.161361
1089.805245	0.163686
1089.967308	0.160714
1090.129352	0.162307
1090.291378	0.162317
1090.453386	0.161981
1090.615376	0.158390
1090.777347	0.153366
1090.939301	0.155093
1091.101236	0.154736
1091.263153	0.152322
1091.425051	0.152967
1091.586932	0.152681
1091.748794	0.155089
1091.910638	0.156616
1092.072463	0.156510
1092.234271	0.163463
1092.396060	0.162531
1092.557831	0.162433
1092.719584	0.162009
1092.881319	0.166246
1093.043035	0.166504
1093.204733	0.162018
1093.366413	0.154295
1093.528075	0.155923
1093.689718	0.151878
1093.851343	0.152223
1094.012950	0.156105
1094.174539	0.158918
1094.336110	0.150727
1094.497662	0.147593
1094.659196	0.150254
1094.820712	0.153832
1094.982210	0.151083
1095.143689	0.148176
1095.305151	0.151908
1095.466594	0.147812
1095.628018	0.147339
1095.789425	0.153526
1095.950813	0.155308
1096.112183	0.156674
1096.273535	0.158510
1096.434869	0.159507
1096.596184	0.160380
1096.757482	0.152124
1096.918761	0.150045
1097.080021	0.145617
1097.241264	0.142885
1097.402488	0.143822
1097.563694	0.141422
1097.724882	0.142776
1097.886052	0.145180
1098.047203	0.146695
1098.208336	0.148520
1098.369451	0.152738
1098.530548	0.157247
1098.691627	0.155883
1098.852687	0.152563
1099.013729	0.152325
1099.174753	0.150564
1099.335758	0.149977
1099.496746	0.149891
1099.657715	0.151623
1099.818666	0.151547
1099.979599	0.148188
1100.140513	0.153765
1100.301409	0.155004
1100.462287	0.156737
1100.623147	0.157552
1100.783989	0.163559
1100.944812	0.165359
1101.105617	0.164942
1101.266404	0.164179
1101.427173	0.161701
1101.587923	0.156314
1101.748656	0.155778
1101.909370	0.151559
1102.070066	0.153643
1102.230743	0.147746
1102.391403	0.146484
1102.552044	0.146520
1102.712667	0.147565
1102.873271	0.150714
1103.033858	0.154925
1103.194426	0.161777
1103.354976	0.160503
1103.515508	0.157813
1103.676021	0.157612
1103.836517	0.158302
1103.996994	0.160329
1104.157453	0.160674
1104.317893	0.163229
1104.478316	0.158132
1104.638720	0.153960
1104.799106	0.156158
1104.959474	0.154637
1105.119823	0.151229
1105.280155	0.148425
1105.440468	0.143061
1105.600763	0.139963
1105.761039	0.138069
1105.921298	0.144435
1106.081538	0.147836
1106.241760	0.151395
1106.401964	0.153270
1106.562149	0.157111
1106.722316	0.158321
1106.882465	0.161726
1107.042596	0.161879
1107.202709	0.161443
1107.362803	0.154111
1107.522879	0.148219
1107.682937	0.146786
1107.842977	0.146150
1108.002999	0.146060
1108.163002	0.140873
1108.322987	0.139054
1108.482954	0.142615
1108.642902	0.142911
1108.802833	0.142582
1108.962745	0.145402
1109.122639	0.148133
1109.282515	0.149652
1109.442372	0.146105
1109.602211	0.149760
1109.762032	0.156621
1109.921835	0.150806
1110.081620	0.151165
1110.241386	0.158331
1110.401134	0.158852
1110.560864	0.159053
1110.720576	0.161394
1110.880269	0.169206
1111.039945	0.172811
1111.199602	0.170631
1111.359240	0.169013
1111.518861	0.166288
1111.678463	0.160116
1111.838047	0.160588
1111.997613	0.158311
1112.157161	0.155093
1112.316690	0.150665
1112.476202	0.146016
1112.635695	0.149600
1112.795169	0.153777
1112.954626	0.153564
1113.114064	0.151343
1113.273484	0.150076
1113.432886	0.148367
1113.592270	0.147206
1113.751635	0.145744
1113.910983	0.153766
1114.070312	0.148232
1114.229622	0.143096
1114.388915	0.146709
1114.548189	0.150349
1114.707445	0.149420
1114.866683	0.152343
1115.025903	0.150145
1115.185104	0.149798
1115.344287	0.147044
1115.503452	0.148078
1115.662599	0.151171
1115.821727	0.149349
1115.980838	0.156578
1116.139930	0.161788
1116.299004	0.156483
1116.458059	0.160443
1116.617097	0.158999
1116.776116	0.159172
1116.935117	0.151512
1117.094099	0.160553
1117.253064	0.164184
1117.412010	0.157427
1117.570938	0.151598
1117.729848	0.155640
1117.888740	0.152319
1118.047613	0.154810
1118.206468	0.150173
1118.365305	0.155978
1118.524124	0.150515
1118.682924	0.148188
1118.841707	0.152147
1119.000471	0.155366
1119.159216	0.156350
1119.317944	0.160660
1119.476653	0.163068
1119.635344	0.168297
1119.794017	0.175092
1119.952672	0.179873
1120.111308	0.184155
1120.269927	0.173198
1120.428527	0.172370
1120.587108	0.178334
1120.745672	0.176672
1120.904217	0.174208
1121.062744	0.174142
1121.221253	0.175068
1121.379744	0.174127
1121.538216	0.171034
1121.696671	0.174751
1121.855107	0.174602
1122.013524	0.167195
1122.171924	0.170610
1122.330305	0.172586
1122.488668	0.170074
1122.647013	0.157797
1122.805340	0.154156
1122.963648	0.152392
1123.121938	0.150650
1123.280210	0.152393
1123.438464	0.151206
1123.596700	0.149672
1123.754917	0.154472
1123.913116	0.156998
1124.071297	0.163806
1124.229459	0.162427
1124.387604	0.166722
1124.545730	0.169809
1124.703838	0.172318
1124.861928	0.170633
1125.019999	0.170130
1125.178052	0.163327
1125.336088	0.165204
1125.494104	0.160999
1125.652103	0.160332
1125.810083	0.159366
1125.968045	0.160227
1126.125989	0.153771
1126.283915	0.154289
1126.441823	0.146876
1126.599712	0.147455
1126.757583	0.145201
1126.915436	0.152467
1127.073270	0.151532
1127.231087	0.155787
1127.388885	0.152967
1127.546665	0.156577
1127.704426	0.157956
1127.862170	0.165662
1128.019895	0.173495
1128.177602	0.165193
1128.335291	0.159177
1128.492961	0.157504
1128.650614	0.150234
1128.808248	0.148374
1128.965864	0.144296
1129.123461	0.146779
1129.281041	0.146831
1129.438602	0.138854
1129.596145	0.149583
1129.753670	0.148526
1129.911176	0.152321
1130.068665	0.145861
1130.226135	0.149035
1130.383587	0.156024
1130.541020	0.157344
1130.698436	0.153487
1130.855833	0.153752
1131.013212	0.155672
1131.170573	0.161598
1131.327915	0.161328
1131.485239	0.166857
1131.642545	0.168478
1131.799833	0.166312
1131.957103	0.164000
1132.114354	0.158309
1132.271588	0.157195
1132.428803	0.152894
1132.585999	0.144044
1132.743178	0.134869
1132.900338	0.137192
1133.057480	0.138731
1133.214604	0.133053
1133.371710	0.136053
1133.528797	0.144795
1133.685866	0.143684
1133.842917	0.145114
1133.999950	0.151548
1134.156964	0.164119
1134.313960	0.159482
1134.470938	0.161068
1134.627898	0.163591
1134.784840	0.163924
1134.941763	0.165590
1135.098668	0.162438
1135.255555	0.155659
1135.412424	0.148877
1135.569274	0.146135
1135.726107	0.151565
1135.882921	0.151136
1136.039716	0.155231
1136.196494	0.153177
1136.353253	0.145922
1136.509995	0.154117
1136.666717	0.159493
1136.823422	0.165992
1136.980109	0.161232
1137.136777	0.165633
1137.293427	0.170727
1137.450059	0.167412
1137.606672	0.166769
1137.763267	0.171291
1137.919844	0.173916
1138.076403	0.167217
1138.232944	0.165836
1138.389466	0.172674
1138.545971	0.168791
1138.702457	0.164540
1138.858924	0.159731
1139.015374	0.148209
1139.171805	0.149823
1139.328218	0.144656
1139.484613	0.140477
1139.640990	0.132666
1139.797348	0.134589
1139.953688	0.131311
1140.110010	0.127728
1140.266314	0.133988
1140.422600	0.147286
1140.578867	0.140806
1140.735116	0.151643
1140.891347	0.151248
1141.047559	0.162443
1141.203754	0.157038
1141.359930	0.160068
1141.516088	0.163611
1141.672228	0.162941
1141.828349	0.158682
1141.984452	0.170310
1142.140537	0.152032
1142.296604	0.163081
1142.452653	0.163955
1142.608683	0.165377
1142.764695	0.177390
1142.920689	0.175910
1143.076665	0.179983
1143.232622	0.178491
1143.388562	0.167633
1143.544483	0.177990
1143.700385	0.176666
1143.856270	0.170815
1144.012136	0.165155
1144.167985	0.145454
1144.323814	0.143834
1144.479626	0.139724
1144.635420	0.141589
1144.791195	0.150639
1144.946952	0.151270
1145.102691	0.158442
1145.258411	0.156548
1145.414113	0.165159
1145.569798	0.180647
1145.725463	0.176225
1145.881111	0.178360
1146.036741	0.179693
1146.192352	0.172443
1146.347945	0.160505
1146.503519	0.155329
1146.659076	0.167310
1146.814614	0.148867
1146.970134	0.141625
1147.125636	0.150262
1147.281120	0.143758
1147.436585	0.137419
1147.592032	0.146239
1147.747461	0.152734
1147.902872	0.147134
1148.058265	0.139850
1148.213639	0.147929
1148.368995	0.145240
1148.524333	0.138039
1148.679653	0.152023
1148.834954	0.160901
1148.990237	0.146114
1149.145502	0.146715
1149.300749	0.150734
1149.455977	0.148116
1149.611188	0.139172
1149.766380	0.144565
1149.921553	0.152784
1150.076709	0.139669
1150.231846	0.127298
1150.386966	0.120313
1150.542066	0.107426
1150.697149	0.107972
1150.852214	0.107514
1151.007260	0.117482
1151.162288	0.104833
1151.317298	0.114957
1151.472289	0.119758
1151.627263	0.131481
1151.782218	0.147629
1151.937155	0.165810
1152.092073	0.161694
1152.246974	0.161455
1152.401856	0.168913
1152.556720	0.178159
1152.711566	0.157347
1152.866393	0.145558
1153.021203	0.141127
1153.175994	0.138005
1153.330767	0.119988
1153.485521	0.123217
1153.640258	0.124768
1153.794976	0.117080
1153.949676	0.112596
1154.104358	0.111638
1154.259021	0.102501
1154.413667	0.104880
1154.568294	0.102480
1154.722903	0.111977
1154.877493	0.110647
1155.032066	0.099182
1155.186620	0.108431
1155.341156	0.108400
1155.495674	0.113570
1155.650173	0.124961
1155.804654	0.116821
1155.959118	0.113719
1156.113562	0.110792
1156.267989	0.103420
1156.422397	0.111340
1156.576788	0.096285
1156.731160	0.103385
1156.885513	0.097868
1157.039849	0.100897
1157.194166	0.104953
1157.348465	0.111377
1157.502746	0.108317
1157.657009	0.115712
1157.811253	0.117583
1157.965479	0.129215
1158.119687	0.125101
1158.273877	0.132106
1158.428048	0.126237
1158.582201	0.130545
1158.736337	0.131631
1158.890453	0.142317
1159.044552	0.133851
1159.198632	0.116629
1159.352694	0.122511
1159.506738	0.125630
1159.660764	0.121313
1159.814771	0.117231
1159.968761	0.110938
1160.122732	0.101904
1160.276685	0.088283
1160.430619	0.093903
1160.584535	0.114364
1160.738434	0.093288
1160.892313	0.086414
1161.046175	0.084247
1161.200019	0.093863
1161.353844	0.085984
1161.507651	0.097523
1161.661440	0.116539
1161.815210	0.108257
1161.968962	0.101668
1162.122697	0.109473
1162.276412	0.115618
1162.430110	0.104199
1162.583789	0.110852
1162.737451	0.127741
1162.891094	0.121173
1163.044718	0.105871
1163.198325	0.119979
1163.351913	0.118342
1163.505483	0.125095
1163.659035	0.123263
1163.812569	0.148745
1163.966084	0.135903
1164.119581	0.135279
1164.273060	0.130128
1164.426521	0.128395
1164.579964	0.128831
1164.733388	0.136976
1164.886794	0.137903
1165.040182	0.131278
1165.193551	0.109735
1165.346903	0.124715
1165.500236	0.125747
1165.653551	0.123288
1165.806848	0.136801
1165.960126	0.140226
1166.113386	0.137049
1166.266628	0.128044
1166.419852	0.129288
1166.573058	0.135582
1166.726245	0.113733
1166.879414	0.097262
1167.032565	0.106630
1167.185698	0.106769
1167.338812	0.096264
1167.491909	0.086724
1167.644987	0.086494
1167.798046	0.093832
1167.951088	0.095642
1168.104111	0.102596
1168.257117	0.113563
1168.410103	0.115921
1168.563072	0.117829
1168.716023	0.103869
1168.868955	0.122619
1169.021869	0.123563
1169.174765	0.117897
1169.327642	0.118362
1169.480501	0.126909
1169.633343	0.126865
1169.786165	0.127402
1169.938970	0.129976
1170.091757	0.130712
1170.244525	0.113287
1170.397275	0.121701
1170.550007	0.114816
1170.702720	0.107282
1170.855415	0.107470
1171.008092	0.088769
1171.160751	0.070453
1171.313392	0.049950
1171.466014	0.156493
1171.618619	-0.004287
1171.771205	-0.004287
1171.923772	-0.004287
