sample name	sample
index	749
start time	 03-25-2021  04:10:19 PM


Wavelength (nm)	Absorbance
494.344910	-0.033798
494.563924	-0.033798
494.782919	-0.033798
495.001897	0.239038
495.220856	0.041994
495.439797	0.019058
495.658719	0.047652
495.877624	0.008076
496.096510	0.018283
496.315378	0.046755
496.534227	0.013384
496.753059	0.040691
496.971872	0.026676
497.190667	0.160181
497.409444	0.168939
497.628203	0.168840
497.846943	0.174088
498.065665	0.172034
498.284369	0.173153
498.503055	0.173395
498.721723	0.172849
498.940372	0.173385
499.159003	0.173022
499.377616	0.173436
499.596210	0.174453
499.814787	0.173714
500.033345	0.174914
500.251885	0.172983
500.470406	0.173855
500.688910	0.173851
500.907395	0.173202
501.125862	0.172843
501.344311	0.172583
501.562742	0.172119
501.781154	0.171904
501.999548	0.171515
502.217924	0.173132
502.436282	0.172597
502.654621	0.172196
502.872942	0.173289
503.091245	0.174857
503.309530	0.173886
503.527797	0.174224
503.746045	0.174854
503.964275	0.175055
504.182487	0.175216
504.400681	0.176380
504.618856	0.177522
504.837013	0.177810
505.055152	0.177298
505.273273	0.178899
505.491376	0.178121
505.709460	0.178791
505.927526	0.179016
506.145574	0.179540
506.363604	0.180009
506.581615	0.180033
506.799608	0.179579
507.017583	0.179763
507.235540	0.179105
507.453478	0.179376
507.671399	0.178860
507.889301	0.179093
508.107185	0.178989
508.325050	0.178480
508.542898	0.178349
508.760727	0.178478
508.978538	0.179042
509.196330	0.180211
509.414105	0.180640
509.631861	0.180774
509.849599	0.181208
510.067319	0.180980
510.285021	0.181129
510.502704	0.180666
510.720369	0.180964
510.938016	0.179810
511.155645	0.179879
511.373255	0.180572
511.590848	0.180488
511.808422	0.180188
512.025977	0.180808
512.243515	0.179880
512.461034	0.180513
512.678536	0.180384
512.896018	0.180448
513.113483	0.181187
513.330930	0.182109
513.548358	0.182073
513.765768	0.184005
513.983160	0.183888
514.200533	0.185784
514.417889	0.186420
514.635226	0.186581
514.852545	0.188187
515.069845	0.188513
515.287128	0.187650
515.504392	0.188049
515.721638	0.186762
515.938866	0.187822
516.156075	0.187556
516.373267	0.187304
516.590440	0.187589
516.807594	0.186853
517.024731	0.186307
517.241850	0.187071
517.458950	0.188274
517.676032	0.187772
517.893095	0.187568
518.110141	0.187900
518.327168	0.189016
518.544177	0.189534
518.761168	0.190108
518.978141	0.190749
519.195095	0.191405
519.412031	0.191225
519.628949	0.192240
519.845849	0.191925
520.062731	0.192377
520.279594	0.192412
520.496439	0.193117
520.713266	0.193445
520.930074	0.193171
521.146865	0.192691
521.363637	0.193114
521.580391	0.193094
521.797127	0.194172
522.013844	0.193734
522.230543	0.193217
522.447224	0.192951
522.663887	0.192998
522.880532	0.193661
523.097158	0.194986
523.313766	0.195043
523.530356	0.195406
523.746928	0.194961
523.963481	0.195093
524.180017	0.196042
524.396534	0.196338
524.613032	0.196900
524.829513	0.198127
525.045975	0.197243
525.262420	0.197482
525.478845	0.198361
525.695253	0.198699
525.911643	0.199216
526.128014	0.199407
526.344367	0.199748
526.560702	0.200519
526.777018	0.199744
526.993316	0.200013
527.209597	0.200104
527.425858	0.199913
527.642102	0.200531
527.858328	0.200763
528.074535	0.201506
528.290724	0.201873
528.506894	0.201669
528.723047	0.202142
528.939181	0.202887
529.155297	0.203320
529.371395	0.204237
529.587475	0.204842
529.803536	0.205512
530.019579	0.204997
530.235604	0.205393
530.451611	0.205253
530.667600	0.206167
530.883570	0.206643
531.099522	0.206930
531.315456	0.206600
531.531372	0.206505
531.747269	0.207051
531.963148	0.207878
532.179009	0.207912
532.394852	0.208706
532.610676	0.208207
532.826482	0.207983
533.042271	0.208491
533.258040	0.209235
533.473792	0.209693
533.689525	0.210188
533.905240	0.210313
534.120937	0.211046
534.336616	0.211010
534.552277	0.211368
534.767919	0.211700
534.983543	0.211999
535.199149	0.212544
535.414736	0.212872
535.630306	0.212974
535.845857	0.213514
536.061390	0.214360
536.276904	0.214902
536.492401	0.215896
536.707879	0.216657
536.923339	0.217172
537.138781	0.217550
537.354204	0.218085
537.569610	0.217842
537.784997	0.217895
538.000366	0.217140
538.215716	0.217677
538.431049	0.217791
538.646363	0.218002
538.861659	0.218162
539.076937	0.218229
539.292196	0.218291
539.507438	0.219181
539.722661	0.219712
539.937866	0.220439
540.153052	0.220924
540.368221	0.220913
540.583371	0.221391
540.798503	0.221692
541.013617	0.222076
541.228712	0.222215
541.443789	0.221706
541.658848	0.221862
541.873889	0.222432
542.088912	0.222518
542.303916	0.223073
542.518902	0.223214
542.733870	0.223659
542.948820	0.224289
543.163752	0.225073
543.378665	0.226143
543.593560	0.226543
543.808437	0.226984
544.023295	0.227162
544.238136	0.227461
544.452958	0.227875
544.667762	0.228507
544.882548	0.227937
545.097315	0.227823
545.312064	0.228033
545.526795	0.228377
545.741508	0.228098
545.956203	0.228263
546.170879	0.228319
546.385537	0.228024
546.600177	0.227665
546.814799	0.227889
547.029402	0.228147
547.243988	0.228215
547.458555	0.228448
547.673103	0.229262
547.887634	0.229750
548.102146	0.230293
548.316640	0.231228
548.531116	0.231641
548.745574	0.232991
548.960013	0.233449
549.174435	0.234094
549.388838	0.234211
549.603222	0.234416
549.817589	0.234799
550.031937	0.235025
550.246267	0.235201
550.460579	0.235268
550.674873	0.234975
550.889148	0.235489
551.103405	0.235605
551.317644	0.236114
551.531865	0.236116
551.746068	0.236297
551.960252	0.236982
552.174418	0.237320
552.388566	0.237688
552.602696	0.237683
552.816807	0.237371
553.030900	0.237434
553.244975	0.237927
553.459032	0.238260
553.673070	0.238657
553.887091	0.238193
554.101093	0.238173
554.315077	0.238798
554.529042	0.239236
554.742990	0.239651
554.956919	0.239901
555.170830	0.239815
555.384722	0.240387
555.598597	0.240568
555.812453	0.240827
556.026291	0.240990
556.240111	0.241055
556.453913	0.241321
556.667696	0.241490
556.881461	0.242176
557.095208	0.242317
557.308937	0.242131
557.522647	0.242388
557.736339	0.242950
557.950013	0.243347
558.163669	0.243464
558.377307	0.243411
558.590926	0.243588
558.804527	0.243207
559.018110	0.243990
559.231675	0.244245
559.445221	0.244003
559.658749	0.243838
559.872259	0.243850
560.085751	0.243949
560.299225	0.244449
560.512680	0.244679
560.726117	0.245117
560.939536	0.244939
561.152937	0.245124
561.366319	0.245626
561.579683	0.246042
561.793029	0.245874
562.006357	0.246630
562.219667	0.246983
562.432958	0.247291
562.646231	0.247747
562.859486	0.248132
563.072723	0.248415
563.285941	0.248432
563.499141	0.248641
563.712323	0.249357
563.925487	0.249225
564.138632	0.248989
564.351760	0.248924
564.564869	0.249322
564.777960	0.249291
564.991032	0.249849
565.204087	0.250533
565.417123	0.250457
565.630141	0.250725
565.843140	0.250864
566.056122	0.251237
566.269085	0.252462
566.482030	0.252311
566.694957	0.252362
566.907866	0.252366
567.120756	0.252470
567.333628	0.252797
567.546482	0.253284
567.759318	0.253431
567.972135	0.253682
568.184935	0.253097
568.397716	0.252978
568.610478	0.253332
568.823223	0.253287
569.035949	0.253298
569.248657	0.253233
569.461347	0.253500
569.674019	0.253995
569.886672	0.254254
570.099308	0.254306
570.311925	0.254676
570.524523	0.254555
570.737104	0.254509
570.949666	0.254458
571.162210	0.254934
571.374736	0.254491
571.587244	0.254113
571.799733	0.254035
572.012205	0.254660
572.224658	0.255241
572.437092	0.255514
572.649509	0.256355
572.861907	0.257249
573.074287	0.257393
573.286649	0.258673
573.498993	0.258924
573.711318	0.259246
573.923625	0.259561
574.135914	0.259564
574.348185	0.259704
574.560438	0.259121
574.772672	0.258691
574.984888	0.258828
575.197086	0.258131
575.409266	0.258888
575.621427	0.258834
575.833570	0.259116
576.045695	0.259224
576.257802	0.259228
576.469890	0.259495
576.681961	0.259892
576.894013	0.260383
577.106046	0.260726
577.318062	0.260698
577.530059	0.261115
577.742039	0.261380
577.954000	0.261565
578.165942	0.262068
578.377867	0.262664
578.589773	0.262651
578.801661	0.262882
579.013531	0.262673
579.225382	0.262815
579.437216	0.262879
579.649031	0.262844
579.860828	0.262920
580.072606	0.263488
580.284367	0.263521
580.496109	0.263853
580.707833	0.264134
580.919539	0.264872
581.131227	0.265381
581.342896	0.266166
581.554547	0.266476
581.766180	0.266691
581.977795	0.266929
582.189391	0.267092
582.400969	0.267453
582.612529	0.267709
582.824071	0.267731
583.035595	0.267617
583.247100	0.267460
583.458587	0.267172
583.670056	0.267478
583.881506	0.267544
584.092939	0.268151
584.304353	0.268425
584.515749	0.268414
584.727127	0.268633
584.938486	0.269068
585.149828	0.269588
585.361151	0.269871
585.572456	0.270398
585.783742	0.270433
585.995011	0.270532
586.206261	0.270655
586.417493	0.270821
586.628706	0.271225
586.839902	0.271459
587.051079	0.271132
587.262238	0.271507
587.473379	0.271721
587.684502	0.272123
587.895606	0.272332
588.106692	0.272462
588.317760	0.272483
588.528810	0.272876
588.739841	0.273167
588.950855	0.273802
589.161850	0.274013
589.372827	0.273778
589.583785	0.274005
589.794726	0.274217
590.005648	0.274404
590.216552	0.275209
590.427437	0.275056
590.638305	0.274711
590.849154	0.275056
591.059985	0.275066
591.270798	0.275398
591.481592	0.275648
591.692369	0.275736
591.903127	0.276160
592.113867	0.275915
592.324588	0.276079
592.535292	0.276718
592.745977	0.276801
592.956644	0.277392
593.167293	0.277902
593.377923	0.278066
593.588536	0.277985
593.799130	0.278183
594.009706	0.278637
594.220263	0.278758
594.430803	0.279069
594.641324	0.279151
594.851827	0.279527
595.062312	0.279653
595.272778	0.279936
595.483227	0.280770
595.693657	0.280728
595.904069	0.280945
596.114462	0.281287
596.324838	0.281397
596.535195	0.281610
596.745534	0.281598
596.955855	0.281502
597.166157	0.281807
597.376441	0.281603
597.586707	0.282265
597.796955	0.282248
598.007185	0.282581
598.217396	0.282558
598.427589	0.282940
598.637764	0.282909
598.847921	0.282986
599.058060	0.282550
599.268180	0.283082
599.478282	0.282982
599.688366	0.283443
599.898431	0.283390
600.108479	0.283643
600.318508	0.283709
600.528519	0.283773
600.738511	0.284079
600.948486	0.284438
601.158442	0.284344
601.368380	0.284385
601.578300	0.284406
601.788202	0.284880
601.998085	0.285338
602.207950	0.285798
602.417797	0.286277
602.627626	0.286685
602.837436	0.286857
603.047228	0.287109
603.257002	0.287337
603.466758	0.288027
603.676496	0.288021
603.886215	0.288189
604.095916	0.288114
604.305599	0.288210
604.515264	0.288307
604.724910	0.288637
604.934538	0.288693
605.144148	0.288960
605.353740	0.288506
605.563314	0.288590
605.772869	0.288930
605.982406	0.289200
606.191925	0.289404
606.401425	0.289546
606.610908	0.289985
606.820372	0.290360
607.029818	0.290729
607.239246	0.291213
607.448655	0.291551
607.658047	0.291250
607.867420	0.291001
608.076775	0.291494
608.286111	0.291487
608.495430	0.291349
608.704730	0.291475
608.914012	0.291468
609.123275	0.291955
609.332521	0.292021
609.541748	0.292370
609.750957	0.292851
609.960148	0.292749
610.169321	0.293029
610.378475	0.293500
610.587611	0.293748
610.796729	0.294087
611.005829	0.294010
611.214910	0.294430
611.423974	0.294548
611.633019	0.294713
611.842045	0.294888
612.051054	0.295277
612.260044	0.295096
612.469017	0.295467
612.677970	0.295443
612.886906	0.295261
613.095824	0.295403
613.304723	0.295512
613.513604	0.295870
613.722467	0.295846
613.931311	0.295967
614.140138	0.296196
614.348946	0.296295
614.557736	0.296247
614.766507	0.296481
614.975261	0.296415
615.183996	0.296819
615.392713	0.296988
615.601412	0.297403
615.810092	0.297662
616.018754	0.297681
616.227399	0.297690
616.436024	0.297909
616.644632	0.298107
616.853222	0.298347
617.061793	0.298601
617.270346	0.298630
617.478880	0.298646
617.687397	0.298385
617.895895	0.298984
618.104375	0.299147
618.312837	0.299596
618.521281	0.299471
618.729706	0.299559
618.938113	0.299774
619.146502	0.300144
619.354873	0.300450
619.563226	0.300974
619.771560	0.300771
619.979876	0.300923
620.188174	0.300906
620.396453	0.301318
620.604715	0.301505
620.812958	0.301706
621.021183	0.301607
621.229390	0.301694
621.437578	0.301932
621.645748	0.302495
621.853900	0.302658
622.062034	0.302993
622.270150	0.303411
622.478247	0.303484
622.686326	0.303477
622.894387	0.303777
623.102430	0.304203
623.310454	0.304251
623.518461	0.304334
623.726449	0.304612
623.934418	0.304977
624.142370	0.305117
624.350303	0.305684
624.558218	0.305973
624.766115	0.306113
624.973994	0.306021
625.181855	0.306301
625.389697	0.306421
625.597521	0.306242
625.805327	0.305967
626.013114	0.305953
626.220883	0.305677
626.428634	0.305696
626.636367	0.306014
626.844082	0.306220
627.051778	0.306418
627.259457	0.306381
627.467117	0.306851
627.674758	0.307397
627.882382	0.307680
628.089987	0.308050
628.297574	0.308009
628.505143	0.307859
628.712694	0.308227
628.920226	0.308267
629.127740	0.308697
629.335236	0.308710
629.542714	0.308993
629.750174	0.309233
629.957615	0.309405
630.165038	0.309894
630.372443	0.310104
630.579829	0.310010
630.787198	0.310447
630.994548	0.310634
631.201880	0.310750
631.409194	0.310569
631.616489	0.310674
631.823766	0.310883
632.031025	0.310874
632.238266	0.311128
632.445489	0.311580
632.652693	0.311649
632.859879	0.311812
633.067047	0.312154
633.274197	0.312497
633.481329	0.312707
633.688442	0.313059
633.895537	0.313342
634.102614	0.313488
634.309672	0.313351
634.516713	0.313645
634.723735	0.313954
634.930739	0.314238
635.137724	0.314377
635.344692	0.314748
635.551641	0.314843
635.758572	0.315136
635.965485	0.315299
636.172379	0.315541
636.379256	0.315832
636.586114	0.315769
636.792954	0.316096
636.999775	0.316261
637.206579	0.316087
637.413364	0.316459
637.620131	0.316569
637.826880	0.316760
638.033610	0.317094
638.240323	0.317082
638.447017	0.317339
638.653692	0.317333
638.860350	0.317636
639.066990	0.317957
639.273611	0.317970
639.480214	0.318163
639.686798	0.318264
639.893365	0.318643
640.099913	0.318746
640.306443	0.319067
640.512955	0.319086
640.719449	0.319156
640.925924	0.319385
641.132381	0.319447
641.338820	0.319340
641.545241	0.319688
641.751644	0.319593
641.958028	0.319723
642.164394	0.319886
642.370742	0.320539
642.577071	0.320744
642.783383	0.321030
642.989676	0.321285
643.195951	0.321728
643.402207	0.321856
643.608446	0.322199
643.814666	0.322472
644.020868	0.322726
644.227052	0.322690
644.433218	0.322977
644.639365	0.323150
644.845494	0.323309
645.051605	0.323644
645.257698	0.324098
645.463772	0.324483
645.669828	0.324862
645.875866	0.325126
646.081886	0.325416
646.287888	0.325843
646.493871	0.326084
646.699836	0.326394
646.905783	0.326620
647.111712	0.326517
647.317622	0.326617
647.523514	0.326580
647.729388	0.326850
647.935244	0.326911
648.141082	0.326748
648.346901	0.326985
648.552702	0.327269
648.758485	0.327681
648.964250	0.328157
649.169996	0.328257
649.375724	0.328676
649.581434	0.328794
649.787126	0.328894
649.992800	0.329173
650.198455	0.329315
650.404092	0.329358
650.609711	0.329206
650.815311	0.329241
651.020894	0.329464
651.226458	0.329513
651.432004	0.329766
651.637532	0.330180
651.843041	0.330647
652.048532	0.330799
652.254006	0.331507
652.459460	0.332067
652.664897	0.332393
652.870315	0.332800
653.075716	0.333214
653.281097	0.333260
653.486461	0.333144
653.691807	0.333175
653.897134	0.333180
654.102443	0.332945
654.307734	0.333200
654.513006	0.333423
654.718261	0.333336
654.923497	0.333405
655.128715	0.333829
655.333915	0.334151
655.539096	0.334435
655.744259	0.334830
655.949404	0.335112
656.154531	0.334910
656.359640	0.335286
656.564730	0.335915
656.769802	0.336437
656.974856	0.336406
657.179892	0.336887
657.384909	0.336945
657.589908	0.337377
657.794889	0.337668
657.999852	0.337904
658.204797	0.337774
658.409723	0.337750
658.614631	0.337666
658.819521	0.337917
659.024393	0.337968
659.229246	0.338342
659.434081	0.338440
659.638898	0.338370
659.843697	0.338727
660.048478	0.339544
660.253240	0.339909
660.457984	0.340175
660.662710	0.340461
660.867417	0.340856
661.072107	0.340993
661.276778	0.341274
661.481431	0.341745
661.686066	0.341857
661.890682	0.341613
662.095281	0.341751
662.299861	0.342183
662.504422	0.342658
662.708966	0.342733
662.913491	0.343138
663.117999	0.343082
663.322488	0.343570
663.526958	0.343718
663.731411	0.344104
663.935845	0.344274
664.140261	0.344566
664.344659	0.344741
664.549038	0.345321
664.753400	0.345465
664.957743	0.346139
665.162068	0.346242
665.366375	0.346651
665.570663	0.346966
665.774933	0.347461
665.979185	0.347347
666.183419	0.347593
666.387635	0.347889
666.591832	0.348149
666.796011	0.348012
667.000172	0.348057
667.204315	0.348240
667.408439	0.348486
667.612545	0.348481
667.816634	0.348949
668.020703	0.349217
668.224755	0.349498
668.428788	0.349648
668.632803	0.350281
668.836800	0.350658
669.040779	0.351033
669.244739	0.351004
669.448681	0.351421
669.652605	0.351763
669.856511	0.351856
670.060399	0.351957
670.264268	0.352194
670.468119	0.352256
670.671952	0.352266
670.875767	0.352353
671.079563	0.352765
671.283341	0.352764
671.487101	0.352884
671.690843	0.353083
671.894567	0.353196
672.098272	0.353502
672.301959	0.353815
672.505628	0.354174
672.709278	0.354442
672.912911	0.354661
673.116525	0.355053
673.320121	0.354858
673.523699	0.355042
673.727258	0.355372
673.930799	0.355574
674.134322	0.355953
674.337827	0.356231
674.541314	0.356798
674.744782	0.357199
674.948232	0.357323
675.151664	0.358059
675.355078	0.358561
675.558474	0.358650
675.761851	0.359200
675.965210	0.359469
676.168551	0.359987
676.371873	0.359847
676.575178	0.360040
676.778464	0.360213
676.981732	0.360465
677.184981	0.360439
677.388213	0.360863
677.591426	0.360977
677.794621	0.360975
677.997798	0.361069
678.200956	0.361604
678.404097	0.361866
678.607219	0.362395
678.810323	0.362699
679.013408	0.363040
679.216476	0.363080
679.419525	0.363340
679.622556	0.363743
679.825569	0.364062
680.028563	0.364440
680.231540	0.364629
680.434498	0.364977
680.637438	0.365184
680.840359	0.365589
681.043263	0.365942
681.246148	0.365962
681.449015	0.365958
681.651864	0.365963
681.854694	0.366056
682.057506	0.366404
682.260301	0.366582
682.463076	0.366725
682.665834	0.366906
682.868573	0.367138
683.071295	0.367593
683.273998	0.368078
683.476682	0.368465
683.679349	0.368460
683.881997	0.368775
684.084627	0.368864
684.287239	0.369144
684.489833	0.369424
684.692408	0.369570
684.894965	0.369732
685.097504	0.370058
685.300025	0.370307
685.502527	0.370449
685.705012	0.370294
685.907478	0.370468
686.109925	0.370592
686.312355	0.370669
686.514766	0.370748
686.717159	0.370865
686.919534	0.370693
687.121891	0.370877
687.324230	0.371259
687.526550	0.371667
687.728852	0.371975
687.931136	0.372188
688.133401	0.372171
688.335649	0.372563
688.537878	0.372967
688.740089	0.373511
688.942281	0.373727
689.144456	0.373788
689.346612	0.373650
689.548750	0.373796
689.750870	0.374066
689.952971	0.374573
690.155055	0.375233
690.357120	0.375422
690.559167	0.375631
690.761195	0.375943
690.963206	0.376068
691.165198	0.376306
691.367172	0.376650
691.569128	0.376834
691.771065	0.377105
691.972984	0.376772
692.174885	0.376965
692.376768	0.377114
692.578633	0.377559
692.780479	0.377784
692.982308	0.378290
693.184118	0.378671
693.385909	0.378864
693.587683	0.379009
693.789438	0.379213
693.991175	0.379236
694.192894	0.379390
694.394595	0.379224
694.596277	0.379659
694.797941	0.379901
694.999587	0.379892
695.201215	0.380163
695.402824	0.380490
695.604416	0.380884
695.805989	0.381060
696.007543	0.381373
696.209080	0.381578
696.410598	0.381546
696.612099	0.381658
696.813580	0.381721
697.015044	0.381594
697.216490	0.381276
697.417917	0.381231
697.619326	0.381372
697.820717	0.381139
698.022089	0.381260
698.223444	0.381517
698.424780	0.381464
698.626098	0.381646
698.827397	0.382069
699.028679	0.382445
699.229942	0.382980
699.431187	0.382982
699.632414	0.383280
699.833622	0.383557
700.034813	0.383772
700.235985	0.384232
700.437139	0.384120
700.638274	0.383961
700.839392	0.384095
701.040491	0.384085
701.241572	0.384418
701.442635	0.384260
701.643679	0.384301
701.844706	0.384420
702.045714	0.384117
702.246704	0.384517
702.447675	0.384668
702.648629	0.384695
702.849564	0.384580
703.050481	0.384609
703.251380	0.384981
703.452260	0.384982
703.653122	0.384983
703.853966	0.385177
704.054792	0.384971
704.255600	0.385035
704.456389	0.384900
704.657160	0.384765
704.857913	0.384775
705.058648	0.384827
705.259365	0.384784
705.460063	0.384614
705.660743	0.384791
705.861405	0.385051
706.062048	0.385147
706.262674	0.385582
706.463281	0.385558
706.663870	0.385623
706.864441	0.385284
707.064993	0.385074
707.265527	0.385148
707.466043	0.385229
707.666541	0.385354
707.867021	0.385601
708.067482	0.385340
708.267925	0.385590
708.468350	0.385896
708.668757	0.386124
708.869145	0.386727
709.069516	0.387078
709.269868	0.387266
709.470201	0.387094
709.670517	0.387137
709.870814	0.387413
710.071093	0.387646
710.271354	0.387373
710.471597	0.387548
710.671821	0.387566
710.872028	0.387655
711.072216	0.387452
711.272385	0.387647
711.472537	0.387485
711.672670	0.387459
711.872785	0.387327
712.072882	0.387586
712.272961	0.387462
712.473021	0.387222
712.673063	0.387122
712.873087	0.387184
713.073093	0.387033
713.273081	0.386905
713.473050	0.386781
713.673001	0.386517
713.872934	0.386422
714.072849	0.386725
714.272745	0.386811
714.472623	0.386736
714.672483	0.386828
714.872325	0.387033
715.072148	0.387090
715.271954	0.387425
715.471741	0.387889
715.671509	0.387605
715.871260	0.387394
716.070992	0.387460
716.270707	0.387706
716.470403	0.387886
716.670080	0.387723
716.869740	0.387683
717.069381	0.387448
717.269004	0.387402
717.468609	0.387705
717.668195	0.387514
717.867764	0.387395
718.067314	0.387190
718.266846	0.386908
718.466360	0.386843
718.665855	0.386828
718.865332	0.386644
719.064791	0.386136
719.264232	0.385958
719.463655	0.386184
719.663059	0.386081
719.862445	0.385936
720.061813	0.385628
720.261163	0.385710
720.460494	0.385601
720.659807	0.385387
720.859102	0.385609
721.058379	0.385651
721.257638	0.385507
721.456878	0.385167
721.656100	0.384999
721.855304	0.385016
722.054490	0.384846
722.253657	0.384749
722.452806	0.384878
722.651937	0.384813
722.851050	0.384619
723.050145	0.384626
723.249221	0.384594
723.448279	0.384483
723.647319	0.384213
723.846340	0.384077
724.045344	0.384096
724.244329	0.384017
724.443296	0.383846
724.642245	0.383626
724.841175	0.383436
725.040088	0.383813
725.238982	0.383796
725.437857	0.383771
725.636715	0.383354
725.835554	0.383261
726.034376	0.383091
726.233179	0.383149
726.431963	0.383354
726.630730	0.383201
726.829478	0.382643
727.028208	0.382540
727.226920	0.382587
727.425614	0.382668
727.624289	0.382388
727.822946	0.382205
728.021585	0.381957
728.220206	0.381294
728.418808	0.380795
728.617392	0.380860
728.815958	0.380857
729.014506	0.380631
729.213036	0.380605
729.411547	0.380754
729.610040	0.380748
729.808515	0.380469
730.006972	0.380900
730.205410	0.381461
730.403831	0.381416
730.602233	0.381317
730.800616	0.381182
730.998982	0.381140
731.197329	0.380735
731.395658	0.380410
731.593969	0.380351
731.792262	0.380079
731.990536	0.379710
732.188793	0.379594
732.387031	0.379677
732.585250	0.379247
732.783452	0.378654
732.981635	0.378819
733.179800	0.378936
733.377947	0.378810
733.576076	0.378325
733.774186	0.377881
733.972278	0.377346
734.170352	0.376667
734.368408	0.376738
734.566446	0.376546
734.764465	0.376036
734.962466	0.375560
735.160449	0.375224
735.358413	0.375340
735.556360	0.375056
735.754288	0.374902
735.952198	0.374944
736.150090	0.374854
736.347963	0.374829
736.545818	0.374750
736.743655	0.374539
736.941474	0.374403
737.139275	0.374117
737.337057	0.374230
737.534821	0.373967
737.732567	0.373666
737.930295	0.373169
738.128005	0.372920
738.325696	0.372551
738.523369	0.372270
738.721024	0.372092
738.918660	0.371680
739.116279	0.371337
739.313879	0.371489
739.511461	0.370933
739.709024	0.370813
739.906570	0.370571
740.104097	0.370538
740.301606	0.370372
740.499097	0.370288
740.696569	0.370143
740.894024	0.370228
741.091460	0.369675
741.288878	0.369715
741.486277	0.369875
741.683659	0.370011
741.881022	0.369586
742.078367	0.369672
742.275694	0.369471
742.473002	0.369399
742.670293	0.368974
742.867565	0.368771
743.064819	0.368506
743.262054	0.368122
743.459272	0.367697
743.656471	0.367748
743.853652	0.367498
744.050815	0.367173
744.247959	0.367040
744.445085	0.366666
744.642194	0.366601
744.839283	0.366322
745.036355	0.365855
745.233408	0.365905
745.430444	0.365521
745.627461	0.365293
745.824459	0.364831
746.021440	0.364549
746.218402	0.364447
746.415346	0.364163
746.612272	0.363853
746.809180	0.363714
747.006069	0.363527
747.202940	0.363596
747.399793	0.362953
747.596628	0.362969
747.793444	0.362669
747.990243	0.362511
748.187023	0.362556
748.383784	0.362662
748.580528	0.362277
748.777253	0.361784
748.973960	0.361015
749.170649	0.360780
749.367320	0.360598
749.563973	0.360180
749.760607	0.360160
749.957223	0.359509
750.153821	0.359094
750.350400	0.359230
750.546962	0.359114
750.743505	0.359398
750.940030	0.359732
751.136536	0.359434
751.333025	0.359395
751.529495	0.359000
751.725947	0.358995
751.922381	0.358936
752.118796	0.358819
752.315194	0.358528
752.511573	0.358247
752.707934	0.357792
752.904276	0.357689
753.100601	0.357551
753.296907	0.357287
753.493195	0.357124
753.689465	0.356865
753.885716	0.356629
754.081949	0.356645
754.278164	0.356354
754.474361	0.356206
754.670540	0.356019
754.866700	0.355910
755.062843	0.355658
755.258967	0.355441
755.455072	0.355387
755.651160	0.354962
755.847229	0.354477
756.043280	0.354113
756.239313	0.353821
756.435328	0.353386
756.631324	0.352934
756.827302	0.352615
757.023262	0.352260
757.219204	0.351853
757.415127	0.351601
757.611033	0.351375
757.806920	0.351150
758.002788	0.350927
758.198639	0.350793
758.394471	0.350756
758.590286	0.350559
758.786081	0.350083
758.981859	0.349823
759.177619	0.349639
759.373360	0.349158
759.569083	0.349077
759.764788	0.348684
759.960474	0.348633
760.156143	0.348203
760.351793	0.348087
760.547425	0.348103
760.743038	0.347862
760.938634	0.347619
761.134211	0.347646
761.329770	0.347560
761.525311	0.347642
761.720833	0.347206
761.916338	0.347046
762.111824	0.346884
762.307292	0.346823
762.502741	0.346841
762.698173	0.346473
762.893586	0.346366
763.088981	0.346052
763.284358	0.345919
763.479716	0.346024
763.675057	0.346135
763.870379	0.345600
764.065683	0.345501
764.260968	0.345434
764.456236	0.345675
764.651485	0.345684
764.846716	0.345585
765.041929	0.345288
765.237123	0.344883
765.432299	0.344444
765.627457	0.344426
765.822597	0.344082
766.017719	0.343654
766.212822	0.343445
766.407907	0.343110
766.602974	0.343021
766.798023	0.342928
766.993054	0.342815
767.188066	0.342739
767.383060	0.343125
767.578036	0.343182
767.772993	0.343291
767.967933	0.343254
768.162854	0.343446
768.357757	0.343062
768.552642	0.343008
768.747508	0.343017
768.942356	0.342864
769.137186	0.342524
769.331998	0.342497
769.526792	0.342373
769.721567	0.341928
769.916324	0.341600
770.111063	0.341657
770.305784	0.341741
770.500486	0.341815
770.695171	0.341734
770.889837	0.341577
771.084484	0.341569
771.279114	0.341417
771.473725	0.341701
771.668318	0.341571
771.862893	0.341492
772.057450	0.340977
772.251988	0.340847
772.446509	0.340516
772.641011	0.340492
772.835494	0.340247
773.029960	0.340100
773.224407	0.339686
773.418836	0.339327
773.613247	0.339429
773.807640	0.339397
774.002014	0.339025
774.196370	0.338987
774.390708	0.338623
774.585028	0.338283
774.779330	0.338002
774.973613	0.337932
775.167878	0.338060
775.362125	0.337805
775.556354	0.337847
775.750564	0.337807
775.944756	0.337805
776.138930	0.338185
776.333086	0.337973
776.527223	0.337851
776.721343	0.338173
776.915444	0.337908
777.109526	0.337747
777.303591	0.337629
777.497637	0.337581
777.691666	0.337687
777.885676	0.337236
778.079667	0.337390
778.273641	0.337596
778.467596	0.337337
778.661533	0.337482
778.855452	0.337531
779.049352	0.337560
779.243235	0.337736
779.437099	0.337581
779.630945	0.337669
779.824773	0.337700
780.018582	0.337712
780.212373	0.337847
780.406146	0.337742
780.599901	0.337693
780.793638	0.337638
780.987356	0.337381
781.181056	0.337298
781.374738	0.337256
781.568402	0.337309
781.762047	0.337242
781.955674	0.337255
782.149283	0.337266
782.342874	0.337347
782.536447	0.337588
782.730001	0.337671
782.923537	0.337697
783.117055	0.337668
783.310555	0.337555
783.504036	0.337372
783.697499	0.337004
783.890944	0.336850
784.084371	0.336655
784.277780	0.336177
784.471170	0.336238
784.664542	0.335969
784.857896	0.335854
785.051231	0.335975
785.244549	0.335921
785.437848	0.335820
785.631129	0.336266
785.824392	0.336374
786.017636	0.336697
786.210863	0.336555
786.404071	0.336996
786.597260	0.337300
786.790432	0.337291
786.983585	0.337302
787.176721	0.337541
787.369838	0.337531
787.562936	0.337488
787.756017	0.337570
787.949079	0.337489
788.142123	0.337268
788.335149	0.337160
788.528156	0.336895
788.721146	0.337096
788.914117	0.336913
789.107070	0.336855
789.300005	0.336839
789.492921	0.336556
789.685819	0.336771
789.878699	0.336822
790.071561	0.336672
790.264405	0.337247
790.457230	0.337291
790.650037	0.337641
790.842826	0.337309
791.035597	0.337703
791.228349	0.338023
791.421084	0.338484
791.613800	0.338792
791.806497	0.339177
791.999177	0.338986
792.191838	0.339274
792.384481	0.339437
792.577106	0.340035
792.769713	0.339870
792.962301	0.340028
793.154871	0.339715
793.347423	0.340027
793.539957	0.339852
793.732473	0.339996
793.924970	0.339717
794.117449	0.339731
794.309910	0.339719
794.502353	0.339854
794.694777	0.340015
794.887183	0.339976
795.079571	0.339917
795.271941	0.340366
795.464293	0.340542
795.656626	0.341302
795.848941	0.341476
796.041238	0.341926
796.233516	0.342229
796.425777	0.342214
796.618019	0.342843
796.810243	0.342913
797.002449	0.343291
797.194636	0.343541
797.386805	0.343376
797.578956	0.343649
797.771089	0.343425
797.963204	0.343623
798.155300	0.343823
798.347378	0.343453
798.539438	0.343756
798.731480	0.343622
798.923503	0.343508
799.115509	0.343337
799.307496	0.343484
799.499465	0.343542
799.691415	0.343494
799.883348	0.343491
800.075262	0.344001
800.267158	0.344258
800.459035	0.344371
800.650895	0.344859
800.842736	0.345327
801.034559	0.345329
801.226364	0.345665
801.418150	0.345982
801.609919	0.346271
801.801669	0.346528
801.993401	0.346447
802.185114	0.346611
802.376810	0.346503
802.568487	0.346552
802.760146	0.346830
802.951787	0.346817
803.143409	0.346852
803.335014	0.347000
803.526600	0.347091
803.718168	0.347521
803.909717	0.347901
804.101249	0.348320
804.292762	0.348716
804.484257	0.348756
804.675734	0.349218
804.867192	0.349646
805.058632	0.349991
805.250054	0.350336
805.441458	0.350360
805.632844	0.350411
805.824211	0.350516
806.015561	0.350587
806.206891	0.350890
806.398204	0.351148
806.589499	0.351319
806.780775	0.351300
806.972033	0.351308
807.163273	0.351549
807.354495	0.351964
807.545698	0.352295
807.736883	0.352513
807.928050	0.352821
808.119199	0.352847
808.310329	0.353144
808.501441	0.353404
808.692535	0.353584
808.883611	0.353695
809.074669	0.353440
809.265708	0.353784
809.456729	0.354018
809.647732	0.354173
809.838717	0.354677
810.029683	0.354831
810.220632	0.355390
810.411562	0.356002
810.602474	0.356481
810.793367	0.357337
810.984242	0.357430
811.175100	0.357934
811.365938	0.358034
811.556759	0.358044
811.747562	0.358264
811.938346	0.358633
812.129112	0.358936
812.319860	0.359342
812.510589	0.359157
812.701300	0.359581
812.891994	0.359817
813.082668	0.360452
813.273325	0.361043
813.463964	0.361287
813.654584	0.361136
813.845186	0.361079
814.035769	0.361241
814.226335	0.361780
814.416882	0.361950
814.607411	0.362156
814.797922	0.362323
814.988415	0.362182
815.178889	0.362688
815.369345	0.363316
815.559783	0.363477
815.750203	0.363594
815.940605	0.363968
816.130988	0.364297
816.321353	0.364740
816.511700	0.365190
816.702028	0.365625
816.892339	0.365905
817.082631	0.365984
817.272905	0.366384
817.463161	0.366937
817.653398	0.367275
817.843617	0.367818
818.033819	0.367976
818.224001	0.368163
818.414166	0.368554
818.604312	0.368761
818.794440	0.369265
818.984550	0.369670
819.174642	0.369801
819.364716	0.369761
819.554771	0.369856
819.744808	0.370332
819.934827	0.370470
820.124827	0.370826
820.314810	0.371147
820.504774	0.371556
820.694720	0.371708
820.884647	0.372048
821.074557	0.372729
821.264448	0.373210
821.454321	0.373247
821.644176	0.373654
821.834012	0.374129
822.023831	0.374730
822.213631	0.375054
822.403413	0.375532
822.593176	0.376034
822.782922	0.376402
822.972649	0.376820
823.162358	0.377242
823.352049	0.377702
823.541721	0.377928
823.731376	0.377702
823.921012	0.377937
824.110629	0.378422
824.300229	0.378583
824.489811	0.378901
824.679374	0.379078
824.868919	0.379730
825.058445	0.380254
825.247954	0.380813
825.437444	0.381264
825.626916	0.381772
825.816370	0.382143
826.005806	0.382574
826.195223	0.382983
826.384622	0.383372
826.574003	0.383600
826.763366	0.383924
826.952711	0.384383
827.142037	0.385024
827.331345	0.385546
827.520635	0.385979
827.709906	0.386552
827.899160	0.386964
828.088395	0.387689
828.277612	0.388230
828.466810	0.388694
828.655991	0.388940
828.845153	0.389133
829.034297	0.389250
829.223423	0.389716
829.412531	0.390003
829.601620	0.390183
829.790691	0.390344
829.979744	0.390633
830.168779	0.390943
830.357795	0.390992
830.546793	0.391718
830.735773	0.392148
830.924735	0.392441
831.113679	0.393023
831.302604	0.393336
831.491511	0.393703
831.680400	0.394336
831.869271	0.394863
832.058123	0.395600
832.246957	0.396128
832.435773	0.396607
832.624571	0.397153
832.813351	0.397512
833.002112	0.398025
833.190855	0.398291
833.379580	0.398603
833.568287	0.398853
833.756975	0.399213
833.945645	0.399534
834.134297	0.399773
834.322931	0.400277
834.511547	0.400544
834.700144	0.401042
834.888723	0.401340
835.077284	0.401668
835.265826	0.401938
835.454351	0.402424
835.642857	0.402344
835.831345	0.402830
836.019815	0.403092
836.208266	0.403442
836.396699	0.403720
836.585114	0.404651
836.773511	0.404733
836.961890	0.405260
837.150250	0.406068
837.338592	0.407155
837.526916	0.407716
837.715222	0.408059
837.903510	0.408770
838.091779	0.409480
838.280030	0.409535
838.468263	0.410278
838.656477	0.410550
838.844674	0.410228
839.032852	0.410285
839.221012	0.410961
839.409153	0.411681
839.597277	0.412186
839.785382	0.412334
839.973469	0.413020
840.161538	0.413420
840.349589	0.414322
840.537621	0.415155
840.725635	0.415508
840.913631	0.415411
841.101609	0.415667
841.289568	0.415961
841.477509	0.417100
841.665432	0.417453
841.853337	0.417870
842.041224	0.418022
842.229092	0.418772
842.416942	0.419788
842.604774	0.420249
842.792588	0.421000
842.980383	0.421612
843.168160	0.421639
843.355919	0.422374
843.543660	0.423289
843.731382	0.424299
843.919087	0.424605
844.106773	0.424528
844.294441	0.425609
844.482090	0.425888
844.669722	0.426334
844.857335	0.426884
845.044930	0.427206
845.232507	0.427443
845.420065	0.427721
845.607605	0.428202
845.795127	0.429224
845.982631	0.429333
846.170117	0.429641
846.357584	0.430247
846.545033	0.430873
846.732464	0.431139
846.919877	0.431951
847.107272	0.432284
847.294648	0.432883
847.482006	0.432880
847.669346	0.433514
847.856667	0.434138
848.043971	0.434245
848.231256	0.434397
848.418523	0.435088
848.605771	0.434873
848.793002	0.435495
848.980214	0.435940
849.167408	0.436595
849.354584	0.437136
849.541742	0.437493
849.728881	0.438092
849.916002	0.438601
850.103105	0.438653
850.290190	0.439535
850.477256	0.439865
850.664304	0.440004
850.851334	0.440160
851.038346	0.440299
851.225340	0.441064
851.412315	0.441738
851.599272	0.441969
851.786211	0.442258
851.973132	0.442422
852.160034	0.442776
852.346918	0.443152
852.533784	0.443899
852.720632	0.444501
852.907462	0.444433
853.094273	0.445057
853.281066	0.445555
853.467841	0.446485
853.654598	0.446650
853.841336	0.447135
854.028056	0.448052
854.214758	0.448837
854.401442	0.449323
854.588107	0.450231
854.774755	0.450554
854.961384	0.451045
855.147995	0.451409
855.334587	0.452363
855.521162	0.452835
855.707718	0.452484
855.894256	0.452300
856.080775	0.452362
856.267277	0.452495
856.453760	0.452654
856.640225	0.453418
856.826672	0.453906
857.013101	0.454230
857.199511	0.454465
857.385903	0.455304
857.572277	0.456025
857.758633	0.456790
857.944970	0.457311
858.131290	0.457906
858.317591	0.458535
858.503873	0.458969
858.690138	0.459373
858.876384	0.460298
859.062612	0.460721
859.248822	0.461170
859.435014	0.461621
859.621188	0.461760
859.807343	0.462042
859.993480	0.461918
860.179599	0.462217
860.365699	0.462602
860.551781	0.462591
860.737846	0.463163
860.923891	0.463396
861.109919	0.463397
861.295929	0.463912
861.481920	0.464437
861.667893	0.464762
861.853848	0.465129
862.039784	0.465611
862.225702	0.466203
862.411603	0.466836
862.597484	0.467344
862.783348	0.468000
862.969193	0.468452
863.155021	0.468440
863.340830	0.469181
863.526620	0.470128
863.712393	0.470435
863.898147	0.471106
864.083883	0.471642
864.269601	0.472049
864.455301	0.472674
864.640982	0.472925
864.826645	0.473605
865.012290	0.474132
865.197917	0.474209
865.383526	0.474750
865.569116	0.474280
865.754688	0.473767
865.940242	0.474179
866.125777	0.474148
866.311295	0.474298
866.496794	0.475105
866.682275	0.475333
866.867737	0.475478
867.053182	0.476132
867.238608	0.476842
867.424016	0.477367
867.609406	0.477929
867.794778	0.479068
867.980131	0.480008
868.165466	0.479762
868.350783	0.479965
868.536082	0.480358
868.721362	0.480325
868.906625	0.480405
869.091869	0.481168
869.277094	0.481217
869.462302	0.480791
869.647491	0.480795
869.832662	0.480784
870.017815	0.481025
870.202950	0.481457
870.388066	0.481175
870.573165	0.481963
870.758245	0.482604
870.943306	0.483091
871.128350	0.483483
871.313375	0.484447
871.498382	0.485551
871.683371	0.486097
871.868342	0.486183
872.053294	0.486908
872.238229	0.486512
872.423144	0.486344
872.608042	0.486421
872.792922	0.487180
872.977783	0.487157
873.162626	0.487052
873.347451	0.487512
873.532258	0.487983
873.717046	0.488283
873.901816	0.489017
874.086568	0.489187
874.271302	0.489733
874.456017	0.489397
874.640715	0.489621
874.825394	0.489886
875.010055	0.489714
875.194697	0.489873
875.379322	0.490295
875.563928	0.490753
875.748516	0.490977
875.933085	0.491201
876.117637	0.492267
876.302170	0.492191
876.486685	0.492643
876.671182	0.493288
876.855661	0.493681
877.040121	0.494228
877.224563	0.494783
877.408987	0.495064
877.593393	0.494917
877.777780	0.494610
877.962150	0.494611
878.146501	0.494682
878.330833	0.494843
878.515148	0.493935
878.699444	0.493910
878.883722	0.493675
879.067982	0.494049
879.252224	0.494107
879.436447	0.494074
879.620653	0.494687
879.804840	0.494816
879.989008	0.494631
880.173159	0.495851
880.357291	0.495514
880.541405	0.495751
880.725501	0.495724
880.909579	0.496022
881.093638	0.496038
881.277680	0.496251
881.461703	0.496200
881.645707	0.496283
881.829694	0.495783
882.013662	0.496516
882.197612	0.496207
882.381544	0.496049
882.565458	0.496323
882.749353	0.496974
882.933230	0.497187
883.117089	0.497243
883.300930	0.497949
883.484753	0.498742
883.668557	0.498602
883.852343	0.498916
884.036111	0.499357
884.219861	0.498971
884.403592	0.499015
884.587305	0.498688
884.771000	0.499451
884.954677	0.499001
885.138335	0.498671
885.321976	0.498365
885.505598	0.498596
885.689201	0.498105
885.872787	0.498580
886.056354	0.498160
886.239904	0.498100
886.423434	0.497289
886.606947	0.497359
886.790442	0.497563
886.973918	0.497887
887.157376	0.497604
887.340816	0.497696
887.524237	0.497374
887.707641	0.497658
887.891026	0.497474
888.074393	0.497399
888.257741	0.497634
888.441072	0.497655
888.624384	0.497577
888.807678	0.497254
888.990954	0.497280
889.174211	0.497250
889.357451	0.496867
889.540672	0.497519
889.723875	0.498110
889.907059	0.497955
890.090226	0.498163
890.273374	0.498611
890.456504	0.498840
890.639616	0.498939
890.822709	0.499138
891.005785	0.499617
891.188842	0.498597
891.371881	0.498338
891.554901	0.497838
891.737904	0.496919
891.920888	0.495929
892.103854	0.495961
892.286802	0.496071
892.469731	0.496028
892.652643	0.495721
892.835536	0.496049
893.018410	0.495904
893.201267	0.495775
893.384106	0.496101
893.566926	0.496352
893.749728	0.496021
893.932511	0.495873
894.115277	0.495509
894.298024	0.495122
894.480753	0.495214
894.663464	0.494800
894.846157	0.494608
895.028831	0.494759
895.211487	0.494708
895.394125	0.495428
895.576745	0.495633
895.759346	0.495715
895.941930	0.495685
896.124495	0.495591
896.307041	0.495551
896.489570	0.495683
896.672080	0.494712
896.854573	0.494602
897.037046	0.493777
897.219502	0.493076
897.401940	0.492841
897.584359	0.492860
897.766760	0.492318
897.949143	0.492066
898.131507	0.491868
898.313854	0.492247
898.496182	0.492138
898.678492	0.491288
898.860783	0.491337
899.043057	0.491272
899.225312	0.491132
899.407549	0.491015
899.589768	0.490667
899.771968	0.489959
899.954151	0.489686
900.136315	0.489757
900.318461	0.489252
900.500588	0.488374
900.682698	0.487940
900.864789	0.487504
901.046862	0.487479
901.228917	0.487790
901.410953	0.487748
901.592971	0.487352
901.774972	0.486463
901.956953	0.487059
902.138917	0.487036
902.320862	0.486678
902.502790	0.486375
902.684699	0.486004
902.866589	0.485084
903.048462	0.485004
903.230316	0.484412
903.412152	0.484275
903.593970	0.483249
903.775770	0.482535
903.957551	0.482075
904.139314	0.481201
904.321059	0.480149
904.502786	0.480020
904.684494	0.479430
904.866185	0.479273
905.047857	0.478639
905.229510	0.478346
905.411146	0.478111
905.592763	0.478246
905.774363	0.478311
905.955943	0.478163
906.137506	0.477373
906.319051	0.477319
906.500577	0.476916
906.682085	0.476119
906.863575	0.476021
907.045046	0.475745
907.226500	0.474535
907.407935	0.473505
907.589352	0.472613
907.770750	0.472499
907.952131	0.472262
908.133493	0.471177
908.314837	0.471284
908.496163	0.471482
908.677470	0.470859
908.858760	0.470568
909.040031	0.470073
909.221284	0.470604
909.402518	0.469975
909.583735	0.468282
909.764933	0.467939
909.946113	0.466578
910.127275	0.465354
910.308418	0.464950
910.489544	0.464652
910.670651	0.464714
910.851740	0.463657
911.032810	0.463195
911.213863	0.462967
911.394897	0.462717
911.575913	0.462923
911.756911	0.461504
911.937890	0.460673
912.118851	0.459581
912.299794	0.458608
912.480719	0.458074
912.661626	0.456843
912.842514	0.456439
913.023384	0.455696
913.204236	0.453835
913.385070	0.454469
913.565886	0.453929
913.746683	0.452928
913.927462	0.451860
914.108223	0.450818
914.288965	0.450488
914.469690	0.449693
914.650396	0.448534
914.831084	0.448718
915.011754	0.446999
915.192405	0.446786
915.373038	0.445970
915.553653	0.445392
915.734250	0.445091
915.914829	0.443998
916.095389	0.443089
916.275931	0.442285
916.456455	0.442009
916.636961	0.441784
916.817448	0.439955
916.997917	0.439432
917.178368	0.438684
917.358801	0.437869
917.539216	0.437881
917.719612	0.437443
917.899990	0.437529
918.080350	0.436666
918.260692	0.435881
918.441015	0.436041
918.621320	0.436595
918.801607	0.436121
918.981876	0.434871
919.162127	0.433808
919.342359	0.433331
919.522573	0.432219
919.702769	0.431023
919.882947	0.430463
920.063106	0.429688
920.243247	0.428271
920.423370	0.426836
920.603475	0.426505
920.783562	0.425723
920.963630	0.424795
921.143680	0.423911
921.323712	0.423054
921.503725	0.422152
921.683721	0.421494
921.863698	0.420171
922.043657	0.420386
922.223598	0.420025
922.403520	0.419818
922.583424	0.418873
922.763311	0.418390
922.943178	0.417775
923.123028	0.417441
923.302859	0.416201
923.482673	0.415842
923.662467	0.415136
923.842244	0.413881
924.022003	0.412275
924.201743	0.411328
924.381465	0.410133
924.561169	0.409165
924.740854	0.407437
924.920522	0.406338
925.100171	0.405423
925.279802	0.403912
925.459414	0.403119
925.639009	0.402219
925.818585	0.401631
925.998143	0.401017
926.177683	0.400922
926.357205	0.400907
926.536708	0.400319
926.716193	0.398652
926.895660	0.398230
927.075109	0.396693
927.254539	0.395575
927.433951	0.394847
927.613345	0.393951
927.792721	0.391964
927.972079	0.390476
928.151418	0.389546
928.330739	0.389398
928.510042	0.388316
928.689327	0.387844
928.868593	0.387649
929.047841	0.386321
929.227071	0.385287
929.406283	0.384216
929.585476	0.383412
929.764652	0.381631
929.943809	0.380445
930.122948	0.379484
930.302068	0.378222
930.481171	0.376677
930.660255	0.375187
930.839321	0.373050
931.018369	0.372442
931.197398	0.370053
931.376409	0.369324
931.555402	0.367439
931.734377	0.365972
931.913334	0.364500
932.092272	0.362730
932.271192	0.361269
932.450094	0.361884
932.628978	0.360483
932.807844	0.360155
932.986691	0.359909
933.165520	0.358416
933.344331	0.358111
933.523123	0.357656
933.701898	0.356145
933.880654	0.354726
934.059392	0.352856
934.238111	0.351132
934.416813	0.349787
934.595496	0.348221
934.774161	0.347656
934.952808	0.345839
935.131437	0.344627
935.310047	0.345042
935.488639	0.345475
935.667213	0.344041
935.845769	0.343188
936.024306	0.342476
936.202825	0.341119
936.381326	0.340633
936.559809	0.339446
936.738274	0.338351
936.916720	0.337024
937.095148	0.335030
937.273558	0.332698
937.451950	0.332213
937.630323	0.331674
937.808678	0.330691
937.987015	0.329025
938.165334	0.328279
938.343635	0.326508
938.521917	0.325415
938.700181	0.324427
938.878427	0.325062
939.056655	0.323618
939.234864	0.321189
939.413055	0.319479
939.591228	0.318279
939.769383	0.315871
939.947519	0.315057
940.125638	0.312323
940.303738	0.310274
940.481820	0.308768
940.659883	0.307906
940.837929	0.308148
941.015956	0.307186
941.193965	0.306831
941.371955	0.305837
941.549928	0.305540
941.727882	0.304654
941.905818	0.303883
942.083736	0.301763
942.261636	0.300488
942.439517	0.299413
942.617380	0.298347
942.795225	0.295923
942.973052	0.294621
943.150860	0.292741
943.328651	0.291540
943.506423	0.291275
943.684176	0.289935
943.861912	0.288064
944.039629	0.285590
944.217328	0.284272
944.395009	0.284032
944.572672	0.282328
944.750317	0.279891
944.927943	0.279938
945.105551	0.278027
945.283141	0.276950
945.460712	0.275607
945.638265	0.274027
945.815801	0.272700
945.993317	0.271731
946.170816	0.270269
946.348297	0.269833
946.525759	0.268811
946.703203	0.267584
946.880629	0.267450
947.058036	0.265437
947.235425	0.263605
947.412797	0.261230
947.590149	0.258679
947.767484	0.258041
947.944800	0.255976
948.122099	0.253312
948.299379	0.250847
948.476640	0.249237
948.653884	0.249241
948.831109	0.249188
949.008316	0.248173
949.185505	0.247107
949.362676	0.246149
949.539828	0.245652
949.716962	0.243738
949.894078	0.244105
950.071176	0.242461
950.248256	0.241154
950.425317	0.239624
950.602360	0.239354
950.779385	0.238649
950.956391	0.236349
951.133380	0.235077
951.310350	0.237219
951.487302	0.235916
951.664235	0.234472
951.841151	0.232033
952.018048	0.231225
952.194927	0.228154
952.371788	0.226759
952.548631	0.227542
952.725455	0.225624
952.902261	0.224059
953.079049	0.221595
953.255819	0.221644
953.432570	0.221721
953.609303	0.219075
953.786018	0.219975
953.962715	0.219235
954.139394	0.215852
954.316054	0.213357
954.492696	0.210702
954.669320	0.211552
954.845926	0.209321
955.022513	0.207278
955.199083	0.207417
955.375634	0.206611
955.552166	0.204879
955.728681	0.204646
955.905177	0.205547
956.081655	0.202745
956.258115	0.198939
956.434557	0.198435
956.610980	0.199635
956.787385	0.198829
956.963772	0.197290
957.140141	0.196877
957.316492	0.194366
957.492824	0.194631
957.669138	0.194802
957.845434	0.194921
958.021712	0.193367
958.197971	0.190821
958.374212	0.190745
958.550435	0.188761
958.726640	0.187123
958.902826	0.187993
959.078995	0.184564
959.255145	0.185036
959.431277	0.183455
959.607390	0.183673
959.783486	0.181939
959.959563	0.178387
960.135622	0.177745
960.311662	0.177221
960.487685	0.177171
960.663689	0.176025
960.839675	0.173795
961.015643	0.176741
961.191593	0.175771
961.367524	0.175959
961.543437	0.177400
961.719332	0.176735
961.895209	0.176808
962.071067	0.176112
962.246907	0.176958
962.422730	0.177321
962.598533	0.173761
962.774319	0.172224
962.950086	0.172127
963.125835	0.171653
963.301566	0.172851
963.477279	0.173095
963.652973	0.174725
963.828650	0.174626
964.004308	0.171545
964.179947	0.172657
964.355569	0.173686
964.531172	0.175614
964.706757	0.171603
964.882324	0.170673
965.057873	0.170016
965.233403	0.168392
965.408916	0.167621
965.584410	0.167647
965.759885	0.167696
965.935343	0.166093
966.110782	0.163198
966.286203	0.168516
966.461606	0.168510
966.636991	0.168584
966.812357	0.167726
966.987705	0.169016
967.163035	0.171409
967.338347	0.171472
967.513641	0.172984
967.688916	0.170191
967.864173	0.164733
968.039412	0.163400
968.214632	0.164271
968.389835	0.166605
968.565019	0.165197
968.740185	0.164784
968.915333	0.164959
969.090462	0.164165
969.265573	0.167239
969.440667	0.169346
969.615741	0.170428
969.790798	0.168527
969.965836	0.163289
970.140856	0.165073
970.315858	0.166073
970.490842	0.162681
970.665808	0.163495
970.840755	0.162854
971.015684	0.160183
971.190595	0.159110
971.365487	0.160364
971.540362	0.161416
971.715218	0.159091
971.890056	0.157701
972.064875	0.158933
972.239677	0.156339
972.414460	0.154821
972.589225	0.155769
972.763972	0.155089
972.938700	0.154131
973.113411	0.156019
973.288103	0.156617
973.462777	0.155134
973.637432	0.157085
973.812070	0.159486
973.986689	0.161737
974.161290	0.162630
974.335873	0.164969
974.510437	0.164057
974.684984	0.164555
974.859512	0.164012
975.034022	0.163308
975.208513	0.161202
975.382987	0.160179
975.557442	0.159596
975.731879	0.161992
975.906298	0.160468
976.080698	0.160002
976.255080	0.156501
976.429445	0.156930
976.603790	0.158444
976.778118	0.158954
976.952427	0.158761
977.126719	0.160599
977.300992	0.160889
977.475246	0.159628
977.649483	0.161082
977.823701	0.163319
977.997901	0.165224
978.172083	0.164303
978.346247	0.163841
978.520392	0.164611
978.694519	0.162568
978.868628	0.159951
979.042719	0.162539
979.216791	0.162984
979.390845	0.164297
979.564882	0.163107
979.738899	0.164892
979.912899	0.164350
980.086880	0.164417
980.260843	0.164599
980.434788	0.166144
980.608715	0.164357
980.782623	0.163337
980.956514	0.161324
981.130386	0.160751
981.304240	0.159931
981.478075	0.160634
981.651892	0.159434
981.825692	0.160196
981.999472	0.160131
982.173235	0.161029
982.346980	0.160798
982.520706	0.162648
982.694414	0.164351
982.868104	0.165003
983.041775	0.166425
983.215428	0.166733
983.389064	0.166023
983.562680	0.164067
983.736279	0.162663
983.909860	0.162748
984.083422	0.163370
984.256966	0.163055
984.430491	0.162195
984.603999	0.162025
984.777488	0.162579
984.950959	0.163193
985.124412	0.166222
985.297847	0.166968
985.471263	0.166630
985.644661	0.166323
985.818041	0.166700
985.991403	0.166772
986.164747	0.166325
986.338072	0.166184
986.511379	0.164560
986.684668	0.163171
986.857938	0.163144
987.031191	0.162221
987.204425	0.161672
987.377641	0.159117
987.550839	0.157916
987.724018	0.154537
987.897179	0.154094
988.070322	0.156114
988.243447	0.154855
988.416554	0.155282
988.589642	0.156320
988.762712	0.156080
988.935764	0.158527
989.108798	0.159483
989.281813	0.162660
989.454811	0.163064
989.627790	0.161057
989.800751	0.162047
989.973693	0.163197
990.146617	0.164797
990.319524	0.163318
990.492412	0.160583
990.665281	0.162112
990.838133	0.161574
991.010966	0.161328
991.183781	0.161385
991.356578	0.161734
991.529356	0.161177
991.702117	0.161185
991.874859	0.160834
992.047583	0.162245
992.220288	0.161787
992.392976	0.163978
992.565645	0.165895
992.738296	0.166454
992.910929	0.165549
993.083543	0.163714
993.256139	0.164343
993.428718	0.165926
993.601277	0.166198
993.773819	0.166533
993.946342	0.166453
994.118848	0.164023
994.291335	0.165035
994.463803	0.167389
994.636254	0.169433
994.808686	0.169178
994.981100	0.167770
995.153496	0.168382
995.325874	0.167964
995.498233	0.164169
995.670574	0.164283
995.842897	0.163712
996.015202	0.162656
996.187488	0.163474
996.359757	0.162190
996.532007	0.164228
996.704239	0.162806
996.876452	0.160183
997.048648	0.159893
997.220825	0.161935
997.392984	0.162534
997.565124	0.161662
997.737247	0.160550
997.909351	0.160016
998.081437	0.157713
998.253505	0.158429
998.425554	0.161188
998.597586	0.162036
998.769599	0.162236
998.941594	0.162963
999.113571	0.161980
999.285529	0.162286
999.457469	0.162017
999.629391	0.162869
999.801295	0.161037
999.973181	0.158795
1000.145048	0.158085
1000.316897	0.156547
1000.488728	0.154241
1000.660541	0.154626
1000.832335	0.154002
1001.004111	0.156552
1001.175869	0.157371
1001.347609	0.159283
1001.519331	0.161504
1001.691034	0.161922
1001.862719	0.161506
1002.034386	0.162560
1002.206035	0.164034
1002.377665	0.163804
1002.549277	0.161779
1002.720871	0.161188
1002.892447	0.160570
1003.064004	0.158504
1003.235544	0.159510
1003.407065	0.160698
1003.578568	0.161985
1003.750052	0.161585
1003.921519	0.160928
1004.092967	0.162558
1004.264397	0.163295
1004.435809	0.162809
1004.607202	0.163691
1004.778577	0.164840
1004.949934	0.163994
1005.121273	0.161320
1005.292594	0.160718
1005.463896	0.161344
1005.635180	0.160392
1005.806446	0.160282
1005.977694	0.160940
1006.148923	0.161595
1006.320135	0.160901
1006.491328	0.160647
1006.662503	0.160087
1006.833659	0.160498
1007.004798	0.163333
1007.175918	0.161433
1007.347020	0.161475
1007.518103	0.160278
1007.689169	0.160891
1007.860216	0.162311
1008.031245	0.162128
1008.202256	0.166638
1008.373248	0.166766
1008.544223	0.165200
1008.715179	0.167363
1008.886117	0.167899
1009.057036	0.166938
1009.227938	0.164394
1009.398821	0.162239
1009.569686	0.164897
1009.740533	0.161256
1009.911361	0.160707
1010.082172	0.159638
1010.252964	0.158901
1010.423738	0.158239
1010.594493	0.161932
1010.765231	0.164233
1010.935950	0.165059
1011.106651	0.161454
1011.277334	0.161929
1011.447998	0.162137
1011.618645	0.162225
1011.789273	0.160757
1011.959882	0.161500
1012.130474	0.161136
1012.301048	0.160937
1012.471603	0.159285
1012.642140	0.159195
1012.812658	0.160605
1012.983159	0.160468
1013.153641	0.161609
1013.324105	0.161877
1013.494551	0.160406
1013.664979	0.158361
1013.835388	0.158492
1014.005779	0.160165
1014.176152	0.160011
1014.346507	0.158049
1014.516843	0.158327
1014.687162	0.158406
1014.857462	0.156730
1015.027744	0.156643
1015.198007	0.158617
1015.368252	0.156290
1015.538480	0.155729
1015.708689	0.156739
1015.878879	0.156377
1016.049052	0.156447
1016.219206	0.156512
1016.389342	0.159189
1016.559460	0.162068
1016.729559	0.160074
1016.899641	0.161086
1017.069704	0.162184
1017.239749	0.162695
1017.409775	0.162940
1017.579784	0.162689
1017.749774	0.163016
1017.919746	0.162277
1018.089700	0.160925
1018.259635	0.160699
1018.429553	0.162936
1018.599452	0.162496
1018.769333	0.162812
1018.939195	0.163158
1019.109040	0.163130
1019.278866	0.161675
1019.448674	0.162627
1019.618464	0.161066
1019.788235	0.160828
1019.957989	0.158531
1020.127724	0.158226
1020.297441	0.157388
1020.467139	0.157258
1020.636820	0.157591
1020.806482	0.156286
1020.976126	0.154960
1021.145752	0.156434
1021.315359	0.159028
1021.484948	0.160440
1021.654519	0.158866
1021.824072	0.159343
1021.993607	0.159062
1022.163123	0.159524
1022.332621	0.161431
1022.502101	0.161336
1022.671563	0.160390
1022.841007	0.160404
1023.010432	0.159943
1023.179839	0.162241
1023.349228	0.160703
1023.518598	0.160400
1023.687951	0.160721
1023.857285	0.159653
1024.026601	0.160169
1024.195899	0.160947
1024.365178	0.160055
1024.534439	0.160644
1024.703682	0.160769
1024.872907	0.161948
1025.042114	0.160306
1025.211302	0.159350
1025.380472	0.160274
1025.549624	0.160491
1025.718758	0.159867
1025.887873	0.161742
1026.056970	0.160741
1026.226049	0.158381
1026.395110	0.159499
1026.564153	0.162636
1026.733177	0.162674
1026.902183	0.162101
1027.071171	0.162201
1027.240141	0.162551
1027.409092	0.160893
1027.578026	0.162589
1027.746940	0.165709
1027.915837	0.163732
1028.084716	0.163784
1028.253576	0.164276
1028.422418	0.162422
1028.591242	0.163876
1028.760048	0.162822
1028.928835	0.162208
1029.097604	0.160238
1029.266355	0.158889
1029.435088	0.161150
1029.603803	0.160768
1029.772499	0.159942
1029.941177	0.163217
1030.109837	0.161959
1030.278478	0.163682
1030.447102	0.162960
1030.615707	0.163534
1030.784294	0.163116
1030.952863	0.163068
1031.121413	0.165140
1031.289945	0.164305
1031.458460	0.160371
1031.626955	0.161384
1031.795433	0.160245
1031.963892	0.160577
1032.132334	0.159548
1032.300756	0.159908
1032.469161	0.157816
1032.637548	0.154347
1032.805916	0.155475
1032.974266	0.156869
1033.142598	0.156960
1033.310911	0.157558
1033.479207	0.159266
1033.647484	0.159665
1033.815743	0.158706
1033.983983	0.160633
1034.152206	0.161589
1034.320410	0.161419
1034.488596	0.162129
1034.656764	0.161519
1034.824914	0.159671
1034.993045	0.156654
1035.161158	0.157055
1035.329253	0.158017
1035.497330	0.158495
1035.665388	0.160137
1035.833428	0.160711
1036.001450	0.162569
1036.169454	0.160734
1036.337440	0.161017
1036.505407	0.161907
1036.673356	0.163118
1036.841287	0.162971
1037.009200	0.161535
1037.177094	0.161374
1037.344970	0.161084
1037.512828	0.158661
1037.680668	0.159998
1037.848489	0.158846
1038.016293	0.161374
1038.184078	0.159330
1038.351845	0.159811
1038.519593	0.158996
1038.687324	0.157673
1038.855036	0.157146
1039.022730	0.159091
1039.190406	0.158543
1039.358063	0.161420
1039.525702	0.159051
1039.693323	0.159957
1039.860926	0.159386
1040.028511	0.159017
1040.196077	0.160726
1040.363625	0.160119
1040.531155	0.159199
1040.698667	0.159528
1040.866161	0.159408
1041.033636	0.160014
1041.201093	0.158250
1041.368532	0.159400
1041.535952	0.160521
1041.703355	0.159176
1041.870739	0.158825
1042.038105	0.157296
1042.205452	0.157380
1042.372782	0.156000
1042.540093	0.155825
1042.707386	0.156945
1042.874661	0.155134
1043.041918	0.156211
1043.209156	0.156097
1043.376376	0.156978
1043.543578	0.158535
1043.710762	0.158622
1043.877927	0.159677
1044.045074	0.157162
1044.212203	0.158018
1044.379314	0.158271
1044.546407	0.157348
1044.713481	0.156472
1044.880537	0.156816
1045.047575	0.154537
1045.214595	0.154218
1045.381596	0.153249
1045.548579	0.155738
1045.715544	0.155619
1045.882491	0.157780
1046.049420	0.159116
1046.216330	0.161561
1046.383222	0.160662
1046.550096	0.162156
1046.716951	0.161391
1046.883789	0.160547
1047.050608	0.161192
1047.217409	0.163317
1047.384192	0.161673
1047.550956	0.159876
1047.717703	0.157275
1047.884431	0.159576
1048.051140	0.159666
1048.217832	0.159935
1048.384505	0.160469
1048.551161	0.159557
1048.717798	0.155873
1048.884416	0.154586
1049.051017	0.155050
1049.217599	0.155023
1049.384163	0.153456
1049.550709	0.154322
1049.717237	0.155052
1049.883746	0.156303
1050.050237	0.155788
1050.216710	0.157085
1050.383165	0.159417
1050.549601	0.159210
1050.716019	0.159780
1050.882420	0.160343
1051.048801	0.156687
1051.215165	0.155808
1051.381510	0.152718
1051.547837	0.152764
1051.714146	0.152429
1051.880437	0.149540
1052.046709	0.147902
1052.212964	0.150351
1052.379200	0.149551
1052.545417	0.152558
1052.711617	0.154488
1052.877798	0.158579
1053.043961	0.158951
1053.210106	0.157999
1053.376233	0.158703
1053.542341	0.160568
1053.708432	0.157523
1053.874504	0.158830
1054.040557	0.157859
1054.206593	0.156794
1054.372610	0.156147
1054.538609	0.158830
1054.704590	0.160633
1054.870553	0.160907
1055.036497	0.161689
1055.202424	0.164108
1055.368331	0.161556
1055.534221	0.161338
1055.700093	0.162491
1055.865946	0.160583
1056.031781	0.159693
1056.197598	0.160446
1056.363397	0.159739
1056.529177	0.157633
1056.694939	0.156434
1056.860683	0.156732
1057.026409	0.159169
1057.192116	0.156510
1057.357806	0.158176
1057.523477	0.155456
1057.689130	0.154439
1057.854764	0.157913
1058.020381	0.160714
1058.185979	0.161281
1058.351559	0.160463
1058.517120	0.157569
1058.682664	0.159268
1058.848189	0.160345
1059.013696	0.162187
1059.179185	0.162254
1059.344656	0.159040
1059.510108	0.155663
1059.675542	0.153355
1059.840958	0.154262
1060.006356	0.157847
1060.171735	0.158474
1060.337096	0.157232
1060.502439	0.157928
1060.667764	0.158414
1060.833071	0.158229
1060.998359	0.159619
1061.163629	0.161527
1061.328881	0.162235
1061.494115	0.162396
1061.659330	0.161617
1061.824527	0.162130
1061.989706	0.161731
1062.154867	0.159493
1062.320010	0.161588
1062.485134	0.162380
1062.650240	0.163598
1062.815328	0.165434
1062.980398	0.164958
1063.145449	0.164598
1063.310482	0.164804
1063.475497	0.164410
1063.640494	0.169161
1063.805473	0.166138
1063.970433	0.166264
1064.135375	0.162519
1064.300299	0.162363
1064.465204	0.159134
1064.630092	0.161559
1064.794961	0.163533
1064.959812	0.163294
1065.124645	0.160425
1065.289459	0.163077
1065.454256	0.162475
1065.619034	0.164609
1065.783793	0.165557
1065.948535	0.164596
1066.113258	0.164237
1066.277964	0.163311
1066.442651	0.163185
1066.607319	0.162176
1066.771970	0.159710
1066.936602	0.159891
1067.101216	0.158139
1067.265812	0.153780
1067.430389	0.157528
1067.594949	0.156854
1067.759490	0.155710
1067.924013	0.157284
1068.088518	0.157740
1068.253004	0.159686
1068.417472	0.158478
1068.581922	0.163236
1068.746354	0.167818
1068.910768	0.165516
1069.075163	0.163928
1069.239540	0.162525
1069.403899	0.162058
1069.568240	0.162184
1069.732562	0.162505
1069.896866	0.163782
1070.061152	0.162468
1070.225420	0.160665
1070.389670	0.162809
1070.553901	0.163450
1070.718114	0.164137
1070.882309	0.161940
1071.046486	0.162842
1071.210644	0.162922
1071.374784	0.163530
1071.538906	0.159653
1071.703010	0.157812
1071.867096	0.157818
1072.031163	0.158602
1072.195212	0.157138
1072.359243	0.159614
1072.523256	0.158843
1072.687250	0.158097
1072.851226	0.158058
1073.015184	0.161278
1073.179124	0.164615
1073.343045	0.164866
1073.506949	0.164891
1073.670834	0.167259
1073.834701	0.167868
1073.998549	0.169973
1074.162380	0.170906
1074.326192	0.171851
1074.489986	0.172636
1074.653761	0.170408
1074.817519	0.168530
1074.981258	0.167441
1075.144979	0.166906
1075.308682	0.163190
1075.472367	0.162992
1075.636033	0.165562
1075.799681	0.165375
1075.963311	0.164458
1076.126923	0.165980
1076.290516	0.163148
1076.454092	0.163024
1076.617649	0.162687
1076.781187	0.164258
1076.944708	0.165728
1077.108210	0.159580
1077.271695	0.157840
1077.435160	0.156335
1077.598608	0.156316
1077.762038	0.159598
1077.925449	0.159177
1078.088842	0.158988
1078.252217	0.162001
1078.415573	0.159941
1078.578912	0.164165
1078.742232	0.165060
1078.905534	0.165047
1079.068817	0.165162
1079.232083	0.168150
1079.395330	0.170151
1079.558559	0.170034
1079.721770	0.168880
1079.884962	0.168932
1080.048136	0.168437
1080.211293	0.168273
1080.374430	0.169513
1080.537550	0.168965
1080.700651	0.166586
1080.863735	0.165247
1081.026800	0.166974
1081.189846	0.167931
1081.352875	0.169060
1081.515885	0.169131
1081.678877	0.168529
1081.841851	0.170522
1082.004807	0.171635
1082.167744	0.170152
1082.330663	0.171822
1082.493564	0.171688
1082.656447	0.171594
1082.819312	0.167607
1082.982158	0.170477
1083.144986	0.172766
1083.307796	0.168908
1083.470587	0.167931
1083.633361	0.168772
1083.796116	0.168908
1083.958853	0.169133
1084.121571	0.168798
1084.284272	0.171123
1084.446954	0.168835
1084.609618	0.166781
1084.772264	0.170335
1084.934892	0.171648
1085.097501	0.174690
1085.260092	0.172774
1085.422665	0.173183
1085.585220	0.170407
1085.747756	0.172964
1085.910274	0.173397
1086.072774	0.176754
1086.235256	0.178581
1086.397720	0.174719
1086.560165	0.174599
1086.722592	0.175421
1086.885001	0.174421
1087.047392	0.176026
1087.209764	0.173097
1087.372119	0.173012
1087.534455	0.173196
1087.696772	0.170212
1087.859072	0.176804
1088.021353	0.177177
1088.183616	0.177287
1088.345861	0.179625
1088.508088	0.181158
1088.670296	0.183366
1088.832486	0.185769
1088.994658	0.183155
1089.156812	0.184437
1089.318948	0.182147
1089.481065	0.180150
1089.643164	0.181330
1089.805245	0.180580
1089.967308	0.179743
1090.129352	0.180535
1090.291378	0.178396
1090.453386	0.178375
1090.615376	0.177740
1090.777347	0.171635
1090.939301	0.171852
1091.101236	0.173087
1091.263153	0.173760
1091.425051	0.172694
1091.586932	0.172471
1091.748794	0.173774
1091.910638	0.177713
1092.072463	0.175737
1092.234271	0.180256
1092.396060	0.182140
1092.557831	0.182384
1092.719584	0.179818
1092.881319	0.179365
1093.043035	0.177490
1093.204733	0.174866
1093.366413	0.170018
1093.528075	0.173104
1093.689718	0.171430
1093.851343	0.171934
1094.012950	0.171724
1094.174539	0.168432
1094.336110	0.171553
1094.497662	0.169206
1094.659196	0.170592
1094.820712	0.173485
1094.982210	0.170180
1095.143689	0.174816
1095.305151	0.175510
1095.466594	0.172910
1095.628018	0.178816
1095.789425	0.182159
1095.950813	0.186673
1096.112183	0.184251
1096.273535	0.186142
1096.434869	0.190105
1096.596184	0.188654
1096.757482	0.190574
1096.918761	0.189743
1097.080021	0.185063
1097.241264	0.183870
1097.402488	0.181488
1097.563694	0.182067
1097.724882	0.179288
1097.886052	0.177333
1098.047203	0.175447
1098.208336	0.168797
1098.369451	0.171273
1098.530548	0.175442
1098.691627	0.173361
1098.852687	0.172678
1099.013729	0.175632
1099.174753	0.176013
1099.335758	0.174229
1099.496746	0.172013
1099.657715	0.175166
1099.818666	0.173590
1099.979599	0.172986
1100.140513	0.172253
1100.301409	0.174285
1100.462287	0.172737
1100.623147	0.174367
1100.783989	0.178751
1100.944812	0.181621
1101.105617	0.179193
1101.266404	0.182025
1101.427173	0.183045
1101.587923	0.182835
1101.748656	0.177171
1101.909370	0.180545
1102.070066	0.180573
1102.230743	0.178704
1102.391403	0.178632
1102.552044	0.184361
1102.712667	0.186713
1102.873271	0.182770
1103.033858	0.182891
1103.194426	0.189228
1103.354976	0.187135
1103.515508	0.182934
1103.676021	0.181226
1103.836517	0.181965
1103.996994	0.175290
1104.157453	0.174138
1104.317893	0.177050
1104.478316	0.178636
1104.638720	0.182194
1104.799106	0.184933
1104.959474	0.184614
1105.119823	0.192788
1105.280155	0.195221
1105.440468	0.197022
1105.600763	0.197535
1105.761039	0.198474
1105.921298	0.193396
1106.081538	0.189690
1106.241760	0.185806
1106.401964	0.184267
1106.562149	0.176512
1106.722316	0.174652
1106.882465	0.177789
1107.042596	0.178955
1107.202709	0.179285
1107.362803	0.185300
1107.522879	0.186899
1107.682937	0.188058
1107.842977	0.193201
1108.002999	0.195368
1108.163002	0.195846
1108.322987	0.195776
1108.482954	0.195047
1108.642902	0.198000
1108.802833	0.195166
1108.962745	0.192920
1109.122639	0.191119
1109.282515	0.188146
1109.442372	0.192803
1109.602211	0.191698
1109.762032	0.189755
1109.921835	0.191380
1110.081620	0.190076
1110.241386	0.188084
1110.401134	0.193527
1110.560864	0.195542
1110.720576	0.198379
1110.880269	0.194570
1111.039945	0.192290
1111.199602	0.191468
1111.359240	0.189554
1111.518861	0.190883
1111.678463	0.190832
1111.838047	0.186965
1111.997613	0.184917
1112.157161	0.186503
1112.316690	0.185180
1112.476202	0.190093
1112.635695	0.191842
1112.795169	0.193310
1112.954626	0.187240
1113.114064	0.191467
1113.273484	0.193851
1113.432886	0.194166
1113.592270	0.194688
1113.751635	0.196159
1113.910983	0.190797
1114.070312	0.188007
1114.229622	0.183184
1114.388915	0.192939
1114.548189	0.190661
1114.707445	0.186897
1114.866683	0.191035
1115.025903	0.191897
1115.185104	0.192645
1115.344287	0.199828
1115.503452	0.200757
1115.662599	0.209407
1115.821727	0.203852
1115.980838	0.203165
1116.139930	0.208939
1116.299004	0.207204
1116.458059	0.204009
1116.617097	0.206358
1116.776116	0.205094
1116.935117	0.206122
1117.094099	0.199987
1117.253064	0.197657
1117.412010	0.198731
1117.570938	0.192174
1117.729848	0.191100
1117.888740	0.195080
1118.047613	0.194576
1118.206468	0.194923
1118.365305	0.199177
1118.524124	0.205145
1118.682924	0.204859
1118.841707	0.205719
1119.000471	0.208839
1119.159216	0.208256
1119.317944	0.204857
1119.476653	0.203106
1119.635344	0.209046
1119.794017	0.203110
1119.952672	0.192406
1120.111308	0.201301
1120.269927	0.198137
1120.428527	0.194961
1120.587108	0.195964
1120.745672	0.198677
1120.904217	0.195991
1121.062744	0.186662
1121.221253	0.189894
1121.379744	0.195089
1121.538216	0.190684
1121.696671	0.198701
1121.855107	0.201270
1122.013524	0.202248
1122.171924	0.197466
1122.330305	0.201580
1122.488668	0.202511
1122.647013	0.202261
1122.805340	0.202151
1122.963648	0.198540
1123.121938	0.191632
1123.280210	0.185245
1123.438464	0.187750
1123.596700	0.192543
1123.754917	0.188338
1123.913116	0.190045
1124.071297	0.194464
1124.229459	0.191499
1124.387604	0.189017
1124.545730	0.188528
1124.703838	0.193881
1124.861928	0.189601
1125.019999	0.189352
1125.178052	0.189961
1125.336088	0.196038
1125.494104	0.192203
1125.652103	0.190486
1125.810083	0.198395
1125.968045	0.203925
1126.125989	0.208395
1126.283915	0.214780
1126.441823	0.207526
1126.599712	0.207492
1126.757583	0.202692
1126.915436	0.203967
1127.073270	0.196319
1127.231087	0.195635
1127.388885	0.188634
1127.546665	0.187546
1127.704426	0.182735
1127.862170	0.187903
1128.019895	0.194595
1128.177602	0.197633
1128.335291	0.193649
1128.492961	0.207352
1128.650614	0.201916
1128.808248	0.201835
1128.965864	0.199781
1129.123461	0.204982
1129.281041	0.207377
1129.438602	0.207833
1129.596145	0.202622
1129.753670	0.203623
1129.911176	0.201452
1130.068665	0.197672
1130.226135	0.200245
1130.383587	0.203585
1130.541020	0.194292
1130.698436	0.193105
1130.855833	0.186205
1131.013212	0.189629
1131.170573	0.191293
1131.327915	0.198769
1131.485239	0.207194
1131.642545	0.212325
1131.799833	0.205282
1131.957103	0.210438
1132.114354	0.206636
1132.271588	0.209793
1132.428803	0.204755
1132.585999	0.204592
1132.743178	0.195431
1132.900338	0.194007
1133.057480	0.194683
1133.214604	0.196986
1133.371710	0.192128
1133.528797	0.202649
1133.685866	0.200062
1133.842917	0.207536
1133.999950	0.205955
1134.156964	0.208555
1134.313960	0.205659
1134.470938	0.201046
1134.627898	0.196326
1134.784840	0.200879
1134.941763	0.195008
1135.098668	0.201877
1135.255555	0.189583
1135.412424	0.187727
1135.569274	0.183966
1135.726107	0.183550
1135.882921	0.183947
1136.039716	0.192565
1136.196494	0.191881
1136.353253	0.191784
1136.509995	0.180447
1136.666717	0.179014
1136.823422	0.176764
1136.980109	0.177915
1137.136777	0.176172
1137.293427	0.173187
1137.450059	0.170860
1137.606672	0.181576
1137.763267	0.176011
1137.919844	0.182664
1138.076403	0.198765
1138.232944	0.205112
1138.389466	0.211666
1138.545971	0.224333
1138.702457	0.232181
1138.858924	0.236890
1139.015374	0.227018
1139.171805	0.235793
1139.328218	0.234013
1139.484613	0.221839
1139.640990	0.221125
1139.797348	0.220652
1139.953688	0.218031
1140.110010	0.211328
1140.266314	0.214691
1140.422600	0.206696
1140.578867	0.204576
1140.735116	0.210975
1140.891347	0.219393
1141.047559	0.224350
1141.203754	0.222209
1141.359930	0.212415
1141.516088	0.213668
1141.672228	0.204150
1141.828349	0.215424
1141.984452	0.212311
1142.140537	0.204723
1142.296604	0.205111
1142.452653	0.197568
1142.608683	0.189822
1142.764695	0.194156
1142.920689	0.194325
1143.076665	0.199006
1143.232622	0.192750
1143.388562	0.193491
1143.544483	0.193273
1143.700385	0.189991
1143.856270	0.193487
1144.012136	0.197577
1144.167985	0.200969
1144.323814	0.206078
1144.479626	0.209372
1144.635420	0.210214
1144.791195	0.223119
1144.946952	0.229403
1145.102691	0.225365
1145.258411	0.219662
1145.414113	0.223457
1145.569798	0.220373
1145.725463	0.209779
1145.881111	0.212634
1146.036741	0.218750
1146.192352	0.209393
1146.347945	0.204594
1146.503519	0.205146
1146.659076	0.218298
1146.814614	0.216086
1146.970134	0.215338
1147.125636	0.218230
1147.281120	0.211568
1147.436585	0.208353
1147.592032	0.210181
1147.747461	0.203150
1147.902872	0.209754
1148.058265	0.200220
1148.213639	0.198187
1148.368995	0.197186
1148.524333	0.202930
1148.679653	0.207399
1148.834954	0.209450
1148.990237	0.203313
1149.145502	0.212174
1149.300749	0.203092
1149.455977	0.205064
1149.611188	0.212567
1149.766380	0.213921
1149.921553	0.209615
1150.076709	0.206101
1150.231846	0.194371
1150.386966	0.197155
1150.542066	0.196115
1150.697149	0.211836
1150.852214	0.211651
1151.007260	0.209140
1151.162288	0.205577
1151.317298	0.201115
1151.472289	0.194112
1151.627263	0.196636
1151.782218	0.193217
1151.937155	0.197086
1152.092073	0.179538
1152.246974	0.174667
1152.401856	0.174089
1152.556720	0.179151
1152.711566	0.187829
1152.866393	0.188151
1153.021203	0.192704
1153.175994	0.195093
1153.330767	0.193126
1153.485521	0.198223
1153.640258	0.205241
1153.794976	0.206370
1153.949676	0.206341
1154.104358	0.204958
1154.259021	0.210948
1154.413667	0.213581
1154.568294	0.212656
1154.722903	0.212343
1154.877493	0.215114
1155.032066	0.222025
1155.186620	0.236065
1155.341156	0.236309
1155.495674	0.234002
1155.650173	0.235055
1155.804654	0.222850
1155.959118	0.222731
1156.113562	0.229460
1156.267989	0.225854
1156.422397	0.217336
1156.576788	0.195928
1156.731160	0.184191
1156.885513	0.186734
1157.039849	0.176326
1157.194166	0.184653
1157.348465	0.186967
1157.502746	0.171945
1157.657009	0.160328
1157.811253	0.157568
1157.965479	0.158969
1158.119687	0.158904
1158.273877	0.152006
1158.428048	0.161813
1158.582201	0.167931
1158.736337	0.161426
1158.890453	0.174232
1159.044552	0.183152
1159.198632	0.183610
1159.352694	0.181633
1159.506738	0.194130
1159.660764	0.203447
1159.814771	0.199149
1159.968761	0.190875
1160.122732	0.195268
1160.276685	0.186485
1160.430619	0.179834
1160.584535	0.181512
1160.738434	0.194789
1160.892313	0.193033
1161.046175	0.201053
1161.200019	0.202520
1161.353844	0.217001
1161.507651	0.216912
1161.661440	0.224600
1161.815210	0.229701
1161.968962	0.230988
1162.122697	0.230919
1162.276412	0.244200
1162.430110	0.245388
1162.583789	0.250193
1162.737451	0.233747
1162.891094	0.234418
1163.044718	0.227157
1163.198325	0.227551
1163.351913	0.235262
1163.505483	0.236461
1163.659035	0.219665
1163.812569	0.216535
1163.966084	0.214680
1164.119581	0.215145
1164.273060	0.214782
1164.426521	0.213938
1164.579964	0.209845
1164.733388	0.216435
1164.886794	0.210953
1165.040182	0.217577
1165.193551	0.213965
1165.346903	0.209207
1165.500236	0.208837
1165.653551	0.207865
1165.806848	0.206517
1165.960126	0.214508
1166.113386	0.199944
1166.266628	0.201684
1166.419852	0.194416
1166.573058	0.172411
1166.726245	0.179754
1166.879414	0.183736
1167.032565	0.192967
1167.185698	0.190857
1167.338812	0.192409
1167.491909	0.191826
1167.644987	0.193741
1167.798046	0.189763
1167.951088	0.211011
1168.104111	0.199729
1168.257117	0.204358
1168.410103	0.190538
1168.563072	0.191420
1168.716023	0.191023
1168.868955	0.195808
1169.021869	0.186114
1169.174765	0.186823
1169.327642	0.178753
1169.480501	0.170223
1169.633343	0.161806
1169.786165	0.156401
1169.938970	0.161203
1170.091757	0.165494
1170.244525	0.152409
1170.397275	0.160882
1170.550007	0.164732
1170.702720	0.170754
1170.855415	0.180759
1171.008092	0.176785
1171.160751	0.178140
1171.313392	0.173119
1171.466014	0.182663
1171.618619	0.129067
1171.771205	0.129067
1171.923772	0.129067
