sample name	sample
index	6
start time	 02-11-2021  11:19:07 AM
880	0.011220
Peak Time (s)	82.035
Peak Height 	0.01122
calc peak height	80,83
Baseline Time (s)	8.536
Baseline Value 	-0.003045
subtract baseline	10,4
Abs	0.009517
Peak Time (s)	80.537
Peak Height 	0.009517
calc peak height	80,83
Baseline Time (s)	9.036
Baseline Value 	0.005703
subtract baseline	10,3
PK_550	0.006761
Peak Time (s)	81.538
Peak Height 	0.006761
calc peak height	80,83
Baseline Time (s)	11.536
Baseline Value 	0.00137
subtract baseline	10,2
PK_880	-0.000379
Peak Time (s)	81.538
Peak Height 	-3.7887E-4
calc peak height	80,83
Baseline Time (s)	9.543
Baseline Value 	5.6975E-5
subtract baseline	10,1


Time (s)	A880-A510	A880-A775	A880-A975	A880	I510	I775	I975	I880	
0.039500	0.000702	-0.003377	-0.005603	-0.000535	4342.756632	18220.325401	3146.901099	9891.000892
0.537500	0.001075	-0.000077	-0.001569	0.004980	4324.743545	18142.193956	3145.584401	9801.481032
1.046500	0.000315	-0.000583	-0.002416	0.001146	4335.485289	18259.717456	3148.244393	9863.594402
1.538000	-0.004944	-0.002527	-0.006030	0.004870	4304.305245	18060.071900	3141.741444	9803.245745
2.035500	0.000285	-0.000551	-0.000277	0.001017	4335.833470	18265.442931	3150.276805	9865.695324
2.538500	-0.005252	-0.002071	0.000621	0.001764	4313.948787	18185.232253	3150.412347	9853.546150
3.036000	-0.000182	-0.001181	0.000967	0.003680	4324.893302	18149.085839	3149.004656	9822.484321
3.536000	-0.001942	-0.002682	-0.003845	0.002174	4324.007359	18149.264570	3146.054733	9846.882118
4.036500	-0.001055	-0.001568	-0.003534	0.003132	4323.761058	18154.737119	3145.479741	9831.342195
4.537000	-0.000514	-0.001476	-0.000109	0.002534	4327.726630	18179.039820	3149.066419	9841.034533
5.037000	-0.001286	-0.002935	-0.001161	0.001585	4328.346459	18161.071972	3148.974085	9856.445350
5.537000	0.001332	0.000131	0.001767	0.000337	4341.904089	18313.816081	3152.731988	9876.771372
6.034000	0.001594	-0.001400	-0.006290	-0.000612	4346.172683	18293.118990	3146.358039	9892.254082
6.535500	0.001022	-0.001595	0.004845	0.002285	4333.968894	18183.628915	3153.754469	9845.078422
7.036000	-0.003301	-0.000570	-0.007714	0.003846	4313.494871	18164.732936	3141.161718	9819.787351
7.568000	0.000217	0.000484	-0.006666	0.000311	4338.073797	18327.315299	3145.204682	9877.196231
8.036500	0.001656	-0.001589	-0.007466	-0.001251	4348.651949	18309.118898	3145.880650	9902.705715
8.536000	0.002882	0.000358	0.004272	0.000000	4348.562965	18333.878890	3155.309561	9882.265236
9.036000	0.000658	-0.001683	0.000000	-0.002211	4348.519189	18339.949594	3153.438837	9918.436892
9.542500	0.000000	-0.000310	-0.001613	-0.000473	4340.065699	18326.936085	3150.415049	9889.988409
10.034500	-0.000255	-0.000804	-0.011414	-0.001185	4341.675871	18334.713198	3142.331755	9901.630604
10.534500	-0.003640	0.000039	-0.006677	0.001291	4321.172451	18276.640808	3144.326832	9861.230456
11.035500	-0.002018	0.001175	0.004778	0.002058	4324.148223	18289.742556	3153.899770	9848.768834
11.536000	0.000260	0.000000	0.003163	0.001009	4335.772747	18285.263013	3153.386989	9865.819558
12.038500	-0.000166	-0.001657	0.002197	0.000153	4337.284596	18256.864525	3153.287821	9879.775825
12.536000	-0.002611	-0.001265	-0.005441	0.000353	4328.022340	18263.648320	3146.254740	9876.507354
13.036500	0.001847	-0.000952	0.004022	0.000847	4341.921580	18257.254853	3154.313004	9868.465929
13.536500	-0.000669	-0.000952	0.005183	0.000264	4335.127967	18277.919754	3155.898599	9877.957061
14.036500	-0.001563	-0.001359	0.003119	-0.000547	4334.835913	18292.257619	3154.758307	9891.197621
14.534000	0.002781	0.000062	-0.000047	0.002346	4339.930913	18240.028991	3149.290543	9844.087837
15.034500	-0.002048	-0.002050	-0.001686	-0.000034	4331.343329	18249.563526	3149.955390	9882.826273
15.535000	0.000686	-0.001701	-0.003962	0.000893	4337.675763	18229.086292	3147.090726	9867.707298
16.038000	0.001670	0.000382	-0.001754	0.001399	4339.356293	18284.975939	3148.609910	9859.476245
16.535500	0.001198	0.000176	-0.002995	0.000757	4339.953443	18300.485266	3148.074441	9869.924991
17.035500	0.001731	-0.001161	0.002629	0.000801	4341.671968	18251.447219	3153.091274	9869.200951
17.536000	0.003207	0.000378	-0.000223	0.001464	4344.538745	18282.534997	3149.923682	9858.418249
18.036000	0.001324	-0.000478	0.003096	0.000904	4339.878293	18272.011447	3153.420883	9867.526782
18.536500	0.004605	0.000698	0.000342	0.001942	4347.790365	18276.925045	3150.002263	9850.654589
19.036000	0.003142	-0.001240	-0.000532	0.000758	4346.802492	18250.199822	3150.280489	9869.909288
19.537000	0.002722	-0.000241	-0.000747	0.000678	4345.602460	18288.474432	3150.158994	9871.209885
20.037500	0.004736	-0.001844	-0.000014	-0.001812	4361.584414	18319.972717	3153.064076	9911.883315
20.535000	0.002153	0.000544	0.006821	-0.000849	4348.986840	18370.808690	3158.413513	9896.125338
21.035500	0.005031	-0.000593	0.009296	-0.000638	4358.453450	18322.742757	3160.495433	9892.681858
21.551500	0.000584	-0.001553	0.002150	-0.002097	4347.853114	18340.521528	3155.286494	9916.561785
22.035000	-0.001180	-0.001122	0.000498	-0.002098	4341.631848	18355.941390	3153.787674	9916.584316
22.536000	0.002061	-0.000041	-0.000867	-0.000897	4348.834514	18351.660774	3151.468033	9896.920881
23.036500	0.001329	-0.000637	0.005228	-0.000971	4346.505844	18333.049526	3157.067362	9898.129819
23.544500	0.002447	-0.000241	0.001778	-0.001012	4350.604522	18348.595127	3153.963186	9898.792857
24.040000	-0.000711	-0.001442	0.001398	0.001654	4330.115578	18211.316529	3151.209878	9855.326742
24.537500	-0.001017	-0.000958	-0.003749	-0.001010	4338.377462	18323.014890	3148.981074	9898.764942
25.059500	0.002599	0.000602	-0.000034	0.001673	4341.657738	18283.060495	3149.905573	9855.018144
25.535000	0.002737	-0.000489	0.013276	-0.001001	4351.595359	18339.381743	3164.520511	9898.622721
26.038500	0.003506	0.001121	0.007402	-0.000732	4353.365022	18387.250325	3158.839210	9894.215579
26.535500	-0.000925	-0.000883	-0.006970	-0.001986	4342.135518	18360.454514	3146.976082	9914.741997
27.036500	0.002006	0.000040	0.001495	-0.001331	4350.169826	18370.017889	3153.995565	9904.007305
27.536000	0.001840	-0.000201	0.003298	0.001627	4339.150704	18256.188037	3152.949346	9855.764294
28.036500	0.001064	-0.001498	-0.006693	-0.000084	4342.439429	18270.875197	3145.531055	9883.630898
28.537000	0.003095	-0.000870	-0.002749	0.000513	4347.502412	18272.000717	3148.513065	9873.905381
29.037000	0.000080	-0.000509	-0.012273	0.000674	4336.318019	18279.098321	3139.946977	9871.280816
29.535000	-0.001011	-0.001169	0.002410	-0.000038	4334.987449	18280.961909	3153.653562	9882.891636
30.037500	-0.001180	-0.000294	0.010049	0.001484	4329.072269	18257.983673	3159.235540	9858.095422
30.535000	0.003007	-0.000881	0.004975	0.001016	4345.415844	18253.786591	3155.024966	9865.713944
31.035500	-0.004365	-0.001401	-0.009578	0.000038	4323.010988	18270.024885	3142.871889	9881.652346
31.536000	0.001892	-0.000626	-0.008465	0.000283	4344.067389	18288.816732	3143.637041	9877.653366
32.036000	-0.000087	-0.000047	0.002987	0.000257	4337.196452	18310.329948	3153.909324	9878.078377
32.536000	0.004046	0.000463	0.006119	0.001885	4346.014823	18270.625439	3155.274995	9851.580682
33.036000	-0.000955	-0.001591	-0.006075	-0.000428	4336.550140	18279.790831	3146.384789	9889.244756
33.537000	-0.000022	0.000103	0.008150	0.001441	4333.271098	18273.582137	3157.533184	9858.793746
34.037500	0.000270	0.000369	0.002159	0.001221	4335.066947	18290.862767	3152.287804	9862.375895
34.534500	0.000279	-0.000835	0.002075	0.000758	4336.717832	18264.528313	3152.628826	9869.902430
35.035500	0.002548	0.000546	0.007849	0.001167	4343.264798	18299.064413	3157.509446	9863.258071
35.538000	0.002645	-0.000978	-0.010395	0.000319	4346.598534	18275.057465	3141.905233	9877.065620
36.038500	0.001064	-0.001445	-0.000952	0.000189	4341.482536	18263.114362	3150.414670	9879.189706
36.536000	-0.000249	-0.001107	0.001321	0.000801	4334.717877	18253.355155	3151.909670	9869.205434
37.036500	0.000153	-0.001472	-0.007718	-0.000529	4340.801045	18287.614910	3145.015950	9890.898257
37.536500	0.003709	-0.000595	0.007188	-0.002178	4359.229064	18377.593987	3159.972065	9917.885814
38.036500	0.002053	0.000140	-0.001604	-0.001084	4349.465558	18364.792882	3150.972534	9899.975659
38.534000	0.001672	0.000330	-0.006790	-0.000271	4345.243260	18342.536307	3145.610325	9886.686997
39.035000	0.002425	-0.001192	-0.001232	0.001110	4343.027588	18239.394343	3149.336297	9864.172311
39.534500	0.003229	-0.000652	-0.005996	-0.001684	4355.763456	18357.925187	3147.574364	9909.788260
40.035500	-0.000846	-0.001777	0.001489	-0.002328	4343.618908	18340.786099	3154.895656	9920.349868
40.549000	0.002226	-0.000735	0.006496	-0.002107	4353.703568	18370.082251	3159.270329	9916.730691
41.036000	0.000812	-0.000938	-0.002269	0.002592	4332.159507	18195.983185	3147.084650	9840.095746
41.536000	0.002088	-0.000508	-0.003693	0.001712	4339.726560	18242.337693	3146.601545	9854.393400
42.038000	0.002518	0.000313	0.007539	0.000163	4346.698537	18326.479398	3158.143791	9879.599915
42.540000	-0.000304	-0.001071	0.005615	-0.001314	4341.957746	18329.817234	3157.735222	9903.743708
43.037000	0.005770	-0.000008	0.017239	0.003061	4347.950053	18212.280311	3164.427953	9832.500869
43.537000	0.002810	-0.001571	-0.001373	-0.002573	4357.434697	18356.866061	3152.523874	9924.368820
44.034500	0.006757	0.001377	-0.000993	-0.001715	4368.463800	18431.591665	3152.092841	9910.306038
44.534500	0.000252	-0.003447	0.001321	-0.006495	4362.292338	18430.022037	3158.547402	9989.024033
45.038500	-0.016630	-0.017240	0.032369	0.111425	3948.717458	14357.384765	3086.312314	8278.804076
45.535500	-0.028296	-0.022227	0.047232	0.212242	3689.436477	11871.998582	3027.738348	7143.089517
46.038000	-0.033928	-0.028709	0.011012	0.111970	3902.979263	14043.751665	3070.268650	8271.926922
46.535500	-0.016202	-0.014766	-0.011399	-0.106849	4692.591052	21972.235594	3247.634048	11858.720588
47.036500	-0.021563	-0.014174	-0.023696	-0.155324	4888.827539	24257.992280	3289.986136	12928.827765
47.539000	-0.026451	-0.017783	-0.016863	-0.150561	4843.188606	23849.470571	3292.516302	12818.298154
48.037000	-0.026988	-0.010464	-0.014603	-0.124425	4722.221103	22959.601062	3264.037824	12232.996183
48.534500	-0.030250	-0.005921	-0.019835	-0.121065	4693.319085	23014.398880	3254.165555	12160.267634
49.035000	-0.027900	-0.007236	-0.014766	-0.084172	4549.508374	21317.209471	3219.256546	11397.668218
49.535500	-0.030900	-0.010949	-0.021958	-0.090095	4561.242783	21411.389237	3217.916936	11515.787534
50.035500	-0.025773	-0.007480	-0.009264	-0.084775	4560.464995	21332.492644	3225.756948	11409.628666
50.535500	-0.020216	-0.005193	-0.010741	-0.079251	4560.595878	21195.358059	3218.309961	11300.764410
51.035000	-0.019396	-0.004684	-0.012579	-0.073911	4542.493955	20992.517197	3210.799180	11196.837104
51.536000	-0.018753	-0.003739	-0.011556	-0.049393	4449.951974	20034.717140	3187.064800	10735.747974
52.039000	-0.013110	-0.000874	-0.006678	-0.034788	4416.508035	19576.736659	3177.609207	10473.203893
52.541000	-0.007858	0.001459	-0.010977	-0.032429	4427.228088	19575.699084	3171.256225	10431.607890
53.037500	-0.013278	0.000900	0.000978	-0.026143	4384.280137	19314.313967	3176.658181	10321.892321
53.536500	-0.008013	0.002840	-0.010907	-0.026582	4405.061579	19404.694652	3165.822940	10329.503863
54.034500	-0.008977	0.003146	-0.005966	-0.026004	4399.421160	19394.355619	3169.920144	10319.494593
54.538500	-0.010344	0.003678	-0.012265	-0.025465	4392.470082	19394.103298	3163.518550	10310.162950
55.035500	-0.002987	0.004598	-0.006920	-0.023425	4411.933405	19351.525147	3166.600262	10274.951259
55.536000	-0.007893	0.003539	-0.020758	-0.022276	4389.786264	19267.888634	3152.810879	10255.184739
56.037500	-0.004809	0.005720	-0.001543	-0.017121	4382.280281	19155.928851	3165.732705	10167.172189
56.536500	-0.004194	0.006314	-0.002727	-0.013685	4372.119729	19049.677166	3161.440762	10109.099912
57.036500	-0.008427	0.004677	-0.005136	-0.007434	4334.917388	18758.316919	3153.517349	10004.604504
57.537000	-0.004858	0.005674	-0.000268	-0.011357	4361.412275	18939.410810	3161.562170	10070.008212
58.040500	-0.003464	0.004501	-0.007884	-0.008238	4355.268828	18781.301929	3151.760374	10017.957506
58.535500	-0.005441	0.004158	0.001081	-0.006525	4342.216548	18706.103268	3158.354676	9989.526589
59.038000	-0.003693	0.005120	-0.005518	-0.003573	4337.977649	18633.660054	3149.691675	9940.793356
59.536000	-0.007864	0.003741	-0.000078	-0.004202	4325.589369	18606.484334	3155.174622	9951.152010
60.036000	-0.006420	0.004637	-0.006382	-0.000467	4317.628827	18503.903244	3146.147446	9889.889173
60.535500	-0.007245	0.003837	0.002467	0.000553	4311.248368	18438.484830	3153.169786	9873.255518
61.036000	-0.007599	0.004464	0.002527	0.000621	4309.790028	18458.534382	3153.161971	9872.132488
61.536500	-0.000862	0.003772	0.001136	0.002895	4325.258381	18352.397724	3149.859664	9835.189927
62.037000	-0.005551	0.001842	-0.000847	0.002524	4310.289646	18296.891320	3148.415171	9841.206173
62.537500	-0.005679	0.002234	-0.007468	0.003144	4307.712106	18288.773775	3141.994641	9831.148176
63.034500	-0.006309	0.003976	0.010503	0.010942	4278.975656	18075.157390	3151.045934	9705.970710
63.535000	-0.001453	0.004760	0.000734	0.006284	4311.455735	18267.003788	3146.471564	9780.477024
64.037500	-0.000574	0.004266	-0.001651	0.007705	4309.589825	18199.231042	3143.100746	9757.668390
64.536000	-0.001956	0.003802	-0.009102	0.007044	4307.103888	18206.162036	3137.158880	9768.264351
65.036000	-0.006196	0.004611	0.002866	0.012473	4274.193511	18043.813666	3142.879326	9681.662013
65.536500	0.001169	0.004659	-0.010641	0.007383	4316.721490	18224.483610	3135.532420	9762.823066
66.036500	0.000394	0.005409	0.009528	0.007420	4313.912471	18249.719496	3153.344764	9762.227559
66.537000	0.001105	0.005652	-0.004562	0.006295	4320.276379	18298.269601	3141.779985	9780.306438
67.037000	-0.005346	0.004152	-0.003476	0.011321	4280.945472	18068.047409	3138.331930	9699.940295
67.537500	0.001528	0.005114	0.000845	0.005862	4323.246519	18294.524573	3146.945735	9787.259333
68.035000	-0.004079	0.005316	0.010116	0.005402	4305.447223	18318.070604	3155.712122	9794.672434
68.538000	-0.001175	0.005171	0.003136	0.005792	4314.118752	18299.078036	3149.055746	9788.398578
69.035500	-0.004129	0.004548	0.000406	0.010852	4286.660449	18098.376283	3142.140924	9707.408624
69.535000	-0.001203	0.006353	0.002041	0.005458	4315.177624	18353.032830	3148.374305	9793.781206
70.035500	-0.000541	0.005784	0.002678	0.005081	4318.774263	18346.183300	3149.281299	9799.846242
70.536500	-0.005233	0.006478	0.007238	0.005865	4299.901470	18342.980103	3152.680743	9787.224322
71.036500	-0.007343	0.003356	0.001338	0.009406	4280.669675	18107.290415	3144.238473	9730.452612
71.536500	0.004949	0.005950	0.006588	0.005688	4335.807679	18330.490499	3152.253617	9790.073800
72.037000	-0.000684	0.005745	0.014085	0.004852	4319.072295	18352.950615	3159.850278	9803.542459
72.537500	-0.001550	0.005927	0.001627	0.004302	4317.980516	18379.101688	3149.038774	9812.428248
73.035000	-0.000087	0.005467	-0.004350	0.004556	4322.175294	18353.591745	3143.497369	9808.315864
73.535000	-0.001014	0.005880	-0.003205	0.004478	4319.225955	18371.126893	3144.579203	9809.584575
74.036000	-0.001666	0.005558	0.012998	0.004302	4317.577244	18365.912506	3159.355606	9812.424155
74.535500	0.001178	0.004163	-0.004996	0.006064	4321.330706	18253.618664	3141.601169	9784.016853
75.036500	-0.005293	0.004668	0.005908	0.012951	4275.627492	18029.116013	3145.146224	9674.091860
75.536000	0.000356	0.005631	0.008557	0.008304	4310.730666	18226.278551	3151.669313	9748.070444
76.036500	-0.001575	0.005672	0.008443	0.008580	4303.133721	18217.975573	3151.317395	9743.645583
76.536500	-0.002023	0.004941	0.018104	0.008869	4300.606380	18181.970298	3159.852378	9739.038074
77.037500	-0.006254	0.004550	0.003921	0.013691	4269.903919	17999.168386	3142.735677	9662.370554
77.535000	-0.002839	0.005427	-0.000121	0.007849	4301.306992	18235.170564	3144.325179	9755.359640
78.040000	0.004407	0.006947	0.004092	0.011062	4315.195263	18175.342473	3145.210690	9704.062784
78.535000	-0.001852	0.003413	-0.001021	0.007514	4305.842243	18175.849953	3143.825326	9760.718776
79.036000	-0.002466	0.005124	-0.008944	0.012532	4286.602444	18059.678989	3132.560394	9680.721332
79.536000	0.001087	0.007516	0.004761	0.009701	4308.432778	18243.586261	3147.015226	9725.749114
80.036500	-0.000738	0.005218	-0.006019	0.009952	4301.298247	18153.538117	3137.311257	9721.737860
80.536500	-0.006930	0.004773	0.009517	0.009035	4283.323649	18170.182615	3151.875775	9736.373923
81.037000	-0.004864	0.003856	0.002688	0.011183	4283.043948	18062.506030	3143.860183	9702.134167
81.537500	-0.000379	0.006761	0.006178	0.011002	4298.931088	18170.908652	3147.118234	9705.012370
82.034500	-0.004240	0.005445	-0.001312	0.011220	4285.037629	18116.945123	3140.310618	9701.557159
82.535000	-0.001785	0.006046	0.000489	0.010559	4295.641424	18161.336800	3142.471738	9712.073407
83.035000	-0.004171	0.005865	0.005238	0.010612	4287.334776	18153.109977	3146.628519	9711.229135
83.536000	-0.000581	0.006300	-0.002359	0.010605	4299.600375	18168.648913	3139.932483	9711.337666
84.072500	-0.003130	0.005615	0.005002	0.014886	4276.395744	17994.660920	3142.635819	9643.516708
84.536000	-0.001715	0.005861	0.001836	0.012622	4288.847218	18082.340303	3141.841370	9679.288772
85.061000	-0.002080	0.005571	0.010160	0.012413	4288.318350	18079.500574	3149.416237	9682.609431
85.536500	-0.000839	0.005120	-0.006146	0.011998	4293.958078	18078.247885	3135.428432	9689.197331
86.037000	-0.000294	0.005479	0.008940	0.013166	4291.833366	18049.926264	3147.652050	9670.686553
86.537000	0.001393	0.004481	0.008471	0.012930	4298.399749	18023.334984	3147.444383	9674.423410
87.036000	-0.004107	0.004403	0.002679	0.016786	4266.729277	17886.593548	3138.934119	9613.626431
87.538000	0.000493	0.005294	0.015559	0.013113	4294.699204	18045.310344	3153.651462	9671.525233
