sample name	sample
index	1480
start time	 05-18-2021  12:31:40 PM


Wavelength (nm)	Absorbance
494.344910	-0.063105
494.563924	-0.063105
494.782919	-0.063105
495.001897	-0.077058
495.220856	-0.032718
495.439797	-0.013508
495.658719	0.009731
495.877624	0.013802
496.096510	0.003006
496.315378	0.009648
496.534227	0.007930
496.753059	0.010106
496.971872	-0.022895
497.190667	0.125229
497.409444	0.155475
497.628203	0.162803
497.846943	0.169611
498.065665	0.174561
498.284369	0.174485
498.503055	0.176858
498.721723	0.177791
498.940372	0.180180
499.159003	0.181060
499.377616	0.180906
499.596210	0.181940
499.814787	0.181822
500.033345	0.181780
500.251885	0.181596
500.470406	0.181278
500.688910	0.181590
500.907395	0.181769
501.125862	0.182234
501.344311	0.182648
501.562742	0.183162
501.781154	0.184255
501.999548	0.183753
502.217924	0.183684
502.436282	0.184039
502.654621	0.184576
502.872942	0.184174
503.091245	0.184975
503.309530	0.184886
503.527797	0.183991
503.746045	0.182290
503.964275	0.182418
504.182487	0.183943
504.400681	0.183993
504.618856	0.183645
504.837013	0.183822
505.055152	0.182847
505.273273	0.182165
505.491376	0.182877
505.709460	0.183450
505.927526	0.183836
506.145574	0.183992
506.363604	0.183642
506.581615	0.184633
506.799608	0.185517
507.017583	0.185692
507.235540	0.185988
507.453478	0.186251
507.671399	0.186708
507.889301	0.187119
508.107185	0.186418
508.325050	0.187000
508.542898	0.186705
508.760727	0.185922
508.978538	0.185680
509.196330	0.186331
509.414105	0.185513
509.631861	0.185345
509.849599	0.184347
510.067319	0.184151
510.285021	0.183724
510.502704	0.184162
510.720369	0.184107
510.938016	0.184329
511.155645	0.184983
511.373255	0.185190
511.590848	0.185195
511.808422	0.185720
512.025977	0.185735
512.243515	0.185797
512.461034	0.186058
512.678536	0.186478
512.896018	0.186034
513.113483	0.185711
513.330930	0.186537
513.548358	0.188008
513.765768	0.189454
513.983160	0.190310
514.200533	0.191432
514.417889	0.190873
514.635226	0.190583
514.852545	0.191368
515.069845	0.191637
515.287128	0.191044
515.504392	0.189763
515.721638	0.188831
515.938866	0.188396
516.156075	0.187218
516.373267	0.188041
516.590440	0.188452
516.807594	0.188295
517.024731	0.187938
517.241850	0.187782
517.458950	0.188311
517.676032	0.188562
517.893095	0.189792
518.110141	0.190753
518.327168	0.190525
518.544177	0.190542
518.761168	0.190839
518.978141	0.191745
519.195095	0.193354
519.412031	0.193707
519.628949	0.194305
519.845849	0.194476
520.062731	0.194476
520.279594	0.194942
520.496439	0.195527
520.713266	0.195617
520.930074	0.195190
521.146865	0.195008
521.363637	0.195068
521.580391	0.194799
521.797127	0.194544
522.013844	0.194760
522.230543	0.195111
522.447224	0.195033
522.663887	0.195685
522.880532	0.196760
523.097158	0.195881
523.313766	0.195871
523.530356	0.196559
523.746928	0.197081
523.963481	0.197454
524.180017	0.196884
524.396534	0.197686
524.613032	0.198132
524.829513	0.197918
525.045975	0.198330
525.262420	0.197874
525.478845	0.197970
525.695253	0.197923
525.911643	0.197919
526.128014	0.198615
526.344367	0.198747
526.560702	0.197800
526.777018	0.198120
526.993316	0.199020
527.209597	0.200419
527.425858	0.200991
527.642102	0.200997
527.858328	0.201307
528.074535	0.201385
528.290724	0.201315
528.506894	0.201691
528.723047	0.202200
528.939181	0.202472
529.155297	0.202618
529.371395	0.202609
529.587475	0.203397
529.803536	0.203712
530.019579	0.203812
530.235604	0.203956
530.451611	0.204183
530.667600	0.203988
530.883570	0.203903
531.099522	0.203784
531.315456	0.203828
531.531372	0.203438
531.747269	0.203828
531.963148	0.204643
532.179009	0.205138
532.394852	0.205699
532.610676	0.205876
532.826482	0.205814
533.042271	0.206739
533.258040	0.207183
533.473792	0.207588
533.689525	0.207201
533.905240	0.207189
534.120937	0.207526
534.336616	0.207313
534.552277	0.207897
534.767919	0.208630
534.983543	0.208595
535.199149	0.208227
535.414736	0.208869
535.630306	0.210043
535.845857	0.210153
536.061390	0.210242
536.276904	0.211019
536.492401	0.210648
536.707879	0.211196
536.923339	0.211411
537.138781	0.212344
537.354204	0.211495
537.569610	0.211194
537.784997	0.211433
538.000366	0.211320
538.215716	0.211442
538.431049	0.211988
538.646363	0.211726
538.861659	0.211413
539.076937	0.210919
539.292196	0.211301
539.507438	0.211303
539.722661	0.211500
539.937866	0.211978
540.153052	0.212585
540.368221	0.213144
540.583371	0.213542
540.798503	0.213676
541.013617	0.214446
541.228712	0.215651
541.443789	0.216064
541.658848	0.216821
541.873889	0.216848
542.088912	0.217222
542.303916	0.217230
542.518902	0.217348
542.733870	0.218563
542.948820	0.218892
543.163752	0.219057
543.378665	0.219420
543.593560	0.219893
543.808437	0.220279
544.023295	0.220152
544.238136	0.220732
544.452958	0.220932
544.667762	0.220446
544.882548	0.220625
545.097315	0.220127
545.312064	0.220108
545.526795	0.219728
545.741508	0.219969
545.956203	0.220421
546.170879	0.220289
546.385537	0.220869
546.600177	0.221569
546.814799	0.221666
547.029402	0.222531
547.243988	0.222691
547.458555	0.222951
547.673103	0.222942
547.887634	0.223232
548.102146	0.223051
548.316640	0.222959
548.531116	0.222881
548.745574	0.223092
548.960013	0.222842
549.174435	0.223528
549.388838	0.223730
549.603222	0.224343
549.817589	0.224709
550.031937	0.225128
550.246267	0.225335
550.460579	0.225764
550.674873	0.225984
550.889148	0.226212
551.103405	0.226050
551.317644	0.226598
551.531865	0.226658
551.746068	0.226399
551.960252	0.226479
552.174418	0.226644
552.388566	0.226779
552.602696	0.227162
552.816807	0.227437
553.030900	0.227923
553.244975	0.228023
553.459032	0.228112
553.673070	0.228352
553.887091	0.228805
554.101093	0.229257
554.315077	0.229206
554.529042	0.229350
554.742990	0.229553
554.956919	0.229451
555.170830	0.229318
555.384722	0.229499
555.598597	0.229794
555.812453	0.230116
556.026291	0.230392
556.240111	0.230289
556.453913	0.230280
556.667696	0.230525
556.881461	0.230898
557.095208	0.230966
557.308937	0.230749
557.522647	0.230833
557.736339	0.231225
557.950013	0.230818
558.163669	0.231419
558.377307	0.231298
558.590926	0.231515
558.804527	0.231900
559.018110	0.231873
559.231675	0.232527
559.445221	0.231838
559.658749	0.231311
559.872259	0.231781
560.085751	0.231605
560.299225	0.232043
560.512680	0.231990
560.726117	0.231631
560.939536	0.232417
561.152937	0.232559
561.366319	0.233314
561.579683	0.233348
561.793029	0.233786
562.006357	0.233883
562.219667	0.233946
562.432958	0.234024
562.646231	0.234014
562.859486	0.234032
563.072723	0.234150
563.285941	0.234490
563.499141	0.234874
563.712323	0.234582
563.925487	0.235349
564.138632	0.235729
564.351760	0.236381
564.564869	0.236933
564.777960	0.237008
564.991032	0.237563
565.204087	0.237393
565.417123	0.237918
565.630141	0.238355
565.843140	0.238069
566.056122	0.238072
566.269085	0.237888
566.482030	0.238121
566.694957	0.237891
566.907866	0.237836
567.120756	0.238442
567.333628	0.238156
567.546482	0.238170
567.759318	0.238417
567.972135	0.238751
568.184935	0.239209
568.397716	0.238968
568.610478	0.239431
568.823223	0.239022
569.035949	0.239110
569.248657	0.239535
569.461347	0.239713
569.674019	0.239797
569.886672	0.239986
570.099308	0.239782
570.311925	0.240389
570.524523	0.241013
570.737104	0.241404
570.949666	0.241645
571.162210	0.242023
571.374736	0.242464
571.587244	0.243036
571.799733	0.243138
572.012205	0.243379
572.224658	0.243525
572.437092	0.243330
572.649509	0.243530
572.861907	0.243513
573.074287	0.243376
573.286649	0.243158
573.498993	0.242871
573.711318	0.243007
573.923625	0.243747
574.135914	0.243911
574.348185	0.244115
574.560438	0.244663
574.772672	0.244532
574.984888	0.244793
575.197086	0.245193
575.409266	0.245555
575.621427	0.245394
575.833570	0.244910
576.045695	0.245129
576.257802	0.244971
576.469890	0.245016
576.681961	0.245082
576.894013	0.245048
577.106046	0.245150
577.318062	0.245247
577.530059	0.245555
577.742039	0.245646
577.954000	0.245768
578.165942	0.246049
578.377867	0.246477
578.589773	0.247075
578.801661	0.247105
579.013531	0.246778
579.225382	0.247202
579.437216	0.247060
579.649031	0.247133
579.860828	0.247296
580.072606	0.247401
580.284367	0.247154
580.496109	0.247325
580.707833	0.247320
580.919539	0.247854
581.131227	0.247681
581.342896	0.248353
581.554547	0.248625
581.766180	0.248851
581.977795	0.249157
582.189391	0.249249
582.400969	0.248987
582.612529	0.249145
582.824071	0.249360
583.035595	0.249627
583.247100	0.249661
583.458587	0.249662
583.670056	0.249324
583.881506	0.249198
584.092939	0.249232
584.304353	0.249805
584.515749	0.250014
584.727127	0.249947
584.938486	0.249376
585.149828	0.249423
585.361151	0.249583
585.572456	0.249629
585.783742	0.249713
585.995011	0.249816
586.206261	0.249527
586.417493	0.250121
586.628706	0.250228
586.839902	0.251028
587.051079	0.250877
587.262238	0.250684
587.473379	0.250984
587.684502	0.251463
587.895606	0.251564
588.106692	0.251904
588.317760	0.251995
588.528810	0.251914
588.739841	0.251995
588.950855	0.252436
589.161850	0.253102
589.372827	0.253325
589.583785	0.252926
589.794726	0.253089
590.005648	0.253383
590.216552	0.253207
590.427437	0.253534
590.638305	0.253681
590.849154	0.253678
591.059985	0.253967
591.270798	0.254149
591.481592	0.254634
591.692369	0.254749
591.903127	0.255067
592.113867	0.255243
592.324588	0.255055
592.535292	0.255233
592.745977	0.255535
592.956644	0.255441
593.167293	0.255731
593.377923	0.255470
593.588536	0.255334
593.799130	0.254727
594.009706	0.254958
594.220263	0.255742
594.430803	0.255628
594.641324	0.255773
594.851827	0.255892
595.062312	0.255607
595.272778	0.256127
595.483227	0.256537
595.693657	0.257042
595.904069	0.257016
596.114462	0.257277
596.324838	0.257452
596.535195	0.257656
596.745534	0.257759
596.955855	0.258083
597.166157	0.258274
597.376441	0.258405
597.586707	0.258678
597.796955	0.259292
598.007185	0.259143
598.217396	0.259500
598.427589	0.259559
598.637764	0.260053
598.847921	0.260334
599.058060	0.260433
599.268180	0.260904
599.478282	0.261009
599.688366	0.260752
599.898431	0.260997
600.108479	0.261062
600.318508	0.261075
600.528519	0.261192
600.738511	0.261107
600.948486	0.261505
601.158442	0.261486
601.368380	0.261655
601.578300	0.261984
601.788202	0.262053
601.998085	0.262022
602.207950	0.262104
602.417797	0.262359
602.627626	0.262350
602.837436	0.262328
603.047228	0.262399
603.257002	0.262427
603.466758	0.262539
603.676496	0.262592
603.886215	0.262709
604.095916	0.263161
604.305599	0.262796
604.515264	0.263094
604.724910	0.263131
604.934538	0.263487
605.144148	0.263716
605.353740	0.264000
605.563314	0.264193
605.772869	0.264638
605.982406	0.264344
606.191925	0.264622
606.401425	0.264882
606.610908	0.265248
606.820372	0.264865
607.029818	0.265127
607.239246	0.264925
607.448655	0.264819
607.658047	0.264779
607.867420	0.264954
608.076775	0.264863
608.286111	0.264761
608.495430	0.264738
608.704730	0.265112
608.914012	0.265046
609.123275	0.265046
609.332521	0.265128
609.541748	0.265096
609.750957	0.265173
609.960148	0.265829
610.169321	0.265958
610.378475	0.266046
610.587611	0.265891
610.796729	0.265988
611.005829	0.266250
611.214910	0.266299
611.423974	0.266557
611.633019	0.266862
611.842045	0.266683
612.051054	0.267310
612.260044	0.267631
612.469017	0.268186
612.677970	0.268301
612.886906	0.268536
613.095824	0.269126
613.304723	0.269164
613.513604	0.269444
613.722467	0.269270
613.931311	0.268978
614.140138	0.269040
614.348946	0.268987
614.557736	0.269405
614.766507	0.269547
614.975261	0.269328
615.183996	0.269706
615.392713	0.269700
615.601412	0.270075
615.810092	0.270094
616.018754	0.269930
616.227399	0.270522
616.436024	0.270178
616.644632	0.269795
616.853222	0.270188
617.061793	0.270093
617.270346	0.270093
617.478880	0.270256
617.687397	0.270395
617.895895	0.270494
618.104375	0.270153
618.312837	0.270199
618.521281	0.270713
618.729706	0.270595
618.938113	0.270893
619.146502	0.271131
619.354873	0.271082
619.563226	0.271263
619.771560	0.271385
619.979876	0.271468
620.188174	0.271714
620.396453	0.272093
620.604715	0.272373
620.812958	0.272434
621.021183	0.272338
621.229390	0.272432
621.437578	0.272606
621.645748	0.272813
621.853900	0.272867
622.062034	0.273123
622.270150	0.273200
622.478247	0.273526
622.686326	0.273441
622.894387	0.273758
623.102430	0.273825
623.310454	0.273638
623.518461	0.273644
623.726449	0.274133
623.934418	0.274135
624.142370	0.274082
624.350303	0.274210
624.558218	0.274407
624.766115	0.274748
624.973994	0.274796
625.181855	0.275386
625.389697	0.275631
625.597521	0.275223
625.805327	0.275430
626.013114	0.275561
626.220883	0.275465
626.428634	0.275513
626.636367	0.275326
626.844082	0.275702
627.051778	0.275733
627.259457	0.275857
627.467117	0.276255
627.674758	0.276364
627.882382	0.276288
628.089987	0.276565
628.297574	0.276857
628.505143	0.277024
628.712694	0.277535
628.920226	0.277736
629.127740	0.278073
629.335236	0.278288
629.542714	0.278561
629.750174	0.278973
629.957615	0.279020
630.165038	0.279380
630.372443	0.279618
630.579829	0.279446
630.787198	0.279768
630.994548	0.279746
631.201880	0.280135
631.409194	0.280190
631.616489	0.280567
631.823766	0.280492
632.031025	0.280627
632.238266	0.280719
632.445489	0.280803
632.652693	0.280830
632.859879	0.281146
633.067047	0.280921
633.274197	0.281305
633.481329	0.281140
633.688442	0.281358
633.895537	0.281586
634.102614	0.281928
634.309672	0.282274
634.516713	0.282381
634.723735	0.282628
634.930739	0.282974
635.137724	0.283096
635.344692	0.283105
635.551641	0.283177
635.758572	0.282903
635.965485	0.282886
636.172379	0.282676
636.379256	0.282591
636.586114	0.282454
636.792954	0.282445
636.999775	0.282627
637.206579	0.282896
637.413364	0.283207
637.620131	0.283570
637.826880	0.283728
638.033610	0.284055
638.240323	0.284285
638.447017	0.284393
638.653692	0.284509
638.860350	0.284479
639.066990	0.284808
639.273611	0.284872
639.480214	0.284805
639.686798	0.284935
639.893365	0.284957
640.099913	0.285211
640.306443	0.285543
640.512955	0.285482
640.719449	0.285575
640.925924	0.285740
641.132381	0.286021
641.338820	0.286232
641.545241	0.286415
641.751644	0.286803
641.958028	0.287075
642.164394	0.286963
642.370742	0.287464
642.577071	0.287597
642.783383	0.287659
642.989676	0.287838
643.195951	0.288025
643.402207	0.288347
643.608446	0.288300
643.814666	0.288344
644.020868	0.288283
644.227052	0.288265
644.433218	0.288376
644.639365	0.288593
644.845494	0.288465
645.051605	0.288793
645.257698	0.288739
645.463772	0.289043
645.669828	0.289136
645.875866	0.289784
646.081886	0.290138
646.287888	0.290460
646.493871	0.290365
646.699836	0.290755
646.905783	0.290589
647.111712	0.290920
647.317622	0.290969
647.523514	0.291155
647.729388	0.291110
647.935244	0.291204
648.141082	0.291296
648.346901	0.291768
648.552702	0.292159
648.758485	0.292563
648.964250	0.292734
649.169996	0.293164
649.375724	0.293454
649.581434	0.293804
649.787126	0.293895
649.992800	0.293999
650.198455	0.294289
650.404092	0.294425
650.609711	0.294610
650.815311	0.294408
651.020894	0.294422
651.226458	0.294297
651.432004	0.294339
651.637532	0.294565
651.843041	0.294927
652.048532	0.294806
652.254006	0.294571
652.459460	0.294767
652.664897	0.295242
652.870315	0.295531
653.075716	0.295728
653.281097	0.295840
653.486461	0.296201
653.691807	0.296370
653.897134	0.296654
654.102443	0.297020
654.307734	0.297019
654.513006	0.297251
654.718261	0.297400
654.923497	0.297516
655.128715	0.297737
655.333915	0.297875
655.539096	0.297782
655.744259	0.297856
655.949404	0.298091
656.154531	0.298236
656.359640	0.298183
656.564730	0.298399
656.769802	0.298958
656.974856	0.299423
657.179892	0.299602
657.384909	0.299824
657.589908	0.300060
657.794889	0.300249
657.999852	0.300506
658.204797	0.301032
658.409723	0.301171
658.614631	0.301152
658.819521	0.301220
659.024393	0.301250
659.229246	0.301737
659.434081	0.302109
659.638898	0.302244
659.843697	0.302276
660.048478	0.302236
660.253240	0.302412
660.457984	0.302907
660.662710	0.303014
660.867417	0.303125
661.072107	0.303160
661.276778	0.303187
661.481431	0.303422
661.686066	0.303902
661.890682	0.303976
662.095281	0.304196
662.299861	0.304008
662.504422	0.304034
662.708966	0.304258
662.913491	0.304334
663.117999	0.304413
663.322488	0.304549
663.526958	0.304629
663.731411	0.304945
663.935845	0.304872
664.140261	0.305026
664.344659	0.305150
664.549038	0.305252
664.753400	0.305385
664.957743	0.305728
665.162068	0.305843
665.366375	0.306025
665.570663	0.305943
665.774933	0.306095
665.979185	0.306280
666.183419	0.306661
666.387635	0.306809
666.591832	0.306880
666.796011	0.307086
667.000172	0.307334
667.204315	0.307434
667.408439	0.307994
667.612545	0.308366
667.816634	0.308715
668.020703	0.309062
668.224755	0.309303
668.428788	0.309727
668.632803	0.309832
668.836800	0.309902
669.040779	0.309961
669.244739	0.310079
669.448681	0.310478
669.652605	0.310456
669.856511	0.310428
670.060399	0.310583
670.264268	0.310473
670.468119	0.310528
670.671952	0.310647
670.875767	0.310880
671.079563	0.311102
671.283341	0.311055
671.487101	0.311526
671.690843	0.311915
671.894567	0.312221
672.098272	0.312734
672.301959	0.313097
672.505628	0.313578
672.709278	0.314038
672.912911	0.313947
673.116525	0.314180
673.320121	0.314125
673.523699	0.314113
673.727258	0.314418
673.930799	0.314619
674.134322	0.314605
674.337827	0.314616
674.541314	0.314799
674.744782	0.315248
674.948232	0.315242
675.151664	0.315703
675.355078	0.316075
675.558474	0.315987
675.761851	0.316114
675.965210	0.316352
676.168551	0.316372
676.371873	0.316695
676.575178	0.316469
676.778464	0.316895
676.981732	0.317133
677.184981	0.316921
677.388213	0.317522
677.591426	0.317817
677.794621	0.318100
677.997798	0.318557
678.200956	0.318655
678.404097	0.319403
678.607219	0.319472
678.810323	0.319538
679.013408	0.320113
679.216476	0.320085
679.419525	0.320097
679.622556	0.320369
679.825569	0.320742
680.028563	0.320868
680.231540	0.320797
680.434498	0.321026
680.637438	0.321127
680.840359	0.321186
681.043263	0.321338
681.246148	0.321666
681.449015	0.321753
681.651864	0.321723
681.854694	0.321572
682.057506	0.321879
682.260301	0.322024
682.463076	0.322164
682.665834	0.322408
682.868573	0.322843
683.071295	0.322740
683.273998	0.322970
683.476682	0.323123
683.679349	0.323278
683.881997	0.323122
684.084627	0.323366
684.287239	0.323419
684.489833	0.323358
684.692408	0.323240
684.894965	0.323403
685.097504	0.323636
685.300025	0.323663
685.502527	0.324154
685.705012	0.324547
685.907478	0.324591
686.109925	0.324795
686.312355	0.325095
686.514766	0.325242
686.717159	0.325754
686.919534	0.325630
687.121891	0.325944
687.324230	0.326187
687.526550	0.326245
687.728852	0.326540
687.931136	0.326770
688.133401	0.326982
688.335649	0.327042
688.537878	0.327138
688.740089	0.327230
688.942281	0.327223
689.144456	0.327298
689.346612	0.327660
689.548750	0.327880
689.750870	0.328127
689.952971	0.327916
690.155055	0.328303
690.357120	0.328483
690.559167	0.328815
690.761195	0.329156
690.963206	0.329155
691.165198	0.329217
691.367172	0.329181
691.569128	0.329336
691.771065	0.329644
691.972984	0.329559
692.174885	0.329413
692.376768	0.329469
692.578633	0.329562
692.780479	0.329864
692.982308	0.329924
693.184118	0.330174
693.385909	0.330249
693.587683	0.330481
693.789438	0.330733
693.991175	0.330905
694.192894	0.331075
694.394595	0.331341
694.596277	0.331398
694.797941	0.331289
694.999587	0.331273
695.201215	0.331349
695.402824	0.331537
695.604416	0.331674
695.805989	0.331876
696.007543	0.331842
696.209080	0.331779
696.410598	0.331944
696.612099	0.332305
696.813580	0.332512
697.015044	0.332835
697.216490	0.332817
697.417917	0.333081
697.619326	0.333210
697.820717	0.333270
698.022089	0.333295
698.223444	0.333647
698.424780	0.333657
698.626098	0.333772
698.827397	0.333776
699.028679	0.334072
699.229942	0.333945
699.431187	0.333965
699.632414	0.334284
699.833622	0.334494
700.034813	0.334141
700.235985	0.334360
700.437139	0.334500
700.638274	0.334574
700.839392	0.334751
701.040491	0.334886
701.241572	0.335296
701.442635	0.335397
701.643679	0.335687
701.844706	0.336099
702.045714	0.336184
702.246704	0.336140
702.447675	0.336235
702.648629	0.336150
702.849564	0.336319
703.050481	0.336267
703.251380	0.336118
703.452260	0.336028
703.653122	0.335813
703.853966	0.335800
704.054792	0.336013
704.255600	0.336110
704.456389	0.336021
704.657160	0.336030
704.857913	0.336019
705.058648	0.336437
705.259365	0.336521
705.460063	0.336488
705.660743	0.336578
705.861405	0.336597
706.062048	0.336535
706.262674	0.336528
706.463281	0.336436
706.663870	0.336433
706.864441	0.336212
707.064993	0.335907
707.265527	0.335980
707.466043	0.335988
707.666541	0.335927
707.867021	0.335634
708.067482	0.335828
708.267925	0.336166
708.468350	0.336120
708.668757	0.336094
708.869145	0.336331
709.069516	0.336498
709.269868	0.336539
709.470201	0.336775
709.670517	0.337154
709.870814	0.336991
710.071093	0.336702
710.271354	0.336778
710.471597	0.336861
710.671821	0.336862
710.872028	0.336869
711.072216	0.336866
711.272385	0.336554
711.472537	0.336608
711.672670	0.336693
711.872785	0.336703
712.072882	0.336644
712.272961	0.336401
712.473021	0.336317
712.673063	0.335999
712.873087	0.335706
713.073093	0.335585
713.273081	0.335228
713.473050	0.335292
713.673001	0.334915
713.872934	0.335081
714.072849	0.335526
714.272745	0.335496
714.472623	0.335607
714.672483	0.335720
714.872325	0.335701
715.072148	0.335659
715.271954	0.335610
715.471741	0.335779
715.671509	0.335293
715.871260	0.334807
716.070992	0.334762
716.270707	0.334404
716.470403	0.334560
716.670080	0.334508
716.869740	0.334401
717.069381	0.333987
717.269004	0.333730
717.468609	0.333612
717.668195	0.333552
717.867764	0.333309
718.067314	0.333358
718.266846	0.332908
718.466360	0.332741
718.665855	0.332494
718.865332	0.332379
719.064791	0.332275
719.264232	0.332200
719.463655	0.332060
719.663059	0.331861
719.862445	0.331812
720.061813	0.331843
720.261163	0.331451
720.460494	0.331589
720.659807	0.331489
720.859102	0.331582
721.058379	0.331257
721.257638	0.331111
721.456878	0.331180
721.656100	0.330929
721.855304	0.330868
722.054490	0.331163
722.253657	0.330909
722.452806	0.331133
722.651937	0.331064
722.851050	0.331261
723.050145	0.331597
723.249221	0.331567
723.448279	0.331770
723.647319	0.331849
723.846340	0.331673
724.045344	0.331897
724.244329	0.331720
724.443296	0.331307
724.642245	0.331639
724.841175	0.331477
725.040088	0.331268
725.238982	0.331304
725.437857	0.330959
725.636715	0.331011
725.835554	0.330824
726.034376	0.330742
726.233179	0.331120
726.431963	0.330927
726.630730	0.330670
726.829478	0.330792
727.028208	0.330526
727.226920	0.330707
727.425614	0.330561
727.624289	0.330524
727.822946	0.330615
728.021585	0.330442
728.220206	0.330197
728.418808	0.329964
728.617392	0.329813
728.815958	0.329803
729.014506	0.329686
729.213036	0.329503
729.411547	0.329410
729.610040	0.329111
729.808515	0.329211
730.006972	0.329173
730.205410	0.329286
730.403831	0.329115
730.602233	0.328942
730.800616	0.328634
730.998982	0.328627
731.197329	0.328416
731.395658	0.328288
731.593969	0.327846
731.792262	0.327516
731.990536	0.327186
732.188793	0.326852
732.387031	0.326603
732.585250	0.326187
732.783452	0.325772
732.981635	0.325432
733.179800	0.325073
733.377947	0.324822
733.576076	0.324490
733.774186	0.324123
733.972278	0.324013
734.170352	0.323760
734.368408	0.323717
734.566446	0.323474
734.764465	0.323519
734.962466	0.323307
735.160449	0.323212
735.358413	0.323062
735.556360	0.323007
735.754288	0.322831
735.952198	0.322591
736.150090	0.322441
736.347963	0.322503
736.545818	0.322163
736.743655	0.322076
736.941474	0.321599
737.139275	0.321715
737.337057	0.321678
737.534821	0.321564
737.732567	0.321546
737.930295	0.321317
738.128005	0.321040
738.325696	0.320855
738.523369	0.320533
738.721024	0.320569
738.918660	0.320040
739.116279	0.319536
739.313879	0.319178
739.511461	0.318638
739.709024	0.318523
739.906570	0.318238
740.104097	0.317814
740.301606	0.317700
740.499097	0.317717
740.696569	0.317559
740.894024	0.317756
741.091460	0.317477
741.288878	0.317688
741.486277	0.317358
741.683659	0.317196
741.881022	0.317035
742.078367	0.316993
742.275694	0.316474
742.473002	0.316183
742.670293	0.315864
742.867565	0.315829
743.064819	0.315468
743.262054	0.315315
743.459272	0.315050
743.656471	0.315125
743.853652	0.315070
744.050815	0.315237
744.247959	0.315340
744.445085	0.315016
744.642194	0.314826
744.839283	0.314532
745.036355	0.314591
745.233408	0.314581
745.430444	0.314135
745.627461	0.313709
745.824459	0.313442
746.021440	0.313020
746.218402	0.313062
746.415346	0.312758
746.612272	0.312826
746.809180	0.312346
747.006069	0.312072
747.202940	0.312217
747.399793	0.312020
747.596628	0.311851
747.793444	0.311936
747.990243	0.311922
748.187023	0.311524
748.383784	0.311199
748.580528	0.311014
748.777253	0.310854
748.973960	0.310513
749.170649	0.310228
749.367320	0.309883
749.563973	0.309596
749.760607	0.309001
749.957223	0.309281
750.153821	0.309139
750.350400	0.309087
750.546962	0.309196
750.743505	0.309089
750.940030	0.309029
751.136536	0.308766
751.333025	0.308713
751.529495	0.308656
751.725947	0.308414
751.922381	0.308640
752.118796	0.308458
752.315194	0.308096
752.511573	0.308180
752.707934	0.308176
752.904276	0.308051
753.100601	0.307780
753.296907	0.307572
753.493195	0.307407
753.689465	0.306773
753.885716	0.306541
754.081949	0.306327
754.278164	0.305888
754.474361	0.305220
754.670540	0.305006
754.866700	0.304819
755.062843	0.304457
755.258967	0.304308
755.455072	0.304322
755.651160	0.304384
755.847229	0.304138
756.043280	0.304105
756.239313	0.304280
756.435328	0.304220
756.631324	0.304265
756.827302	0.304416
757.023262	0.304310
757.219204	0.304075
757.415127	0.303725
757.611033	0.303570
757.806920	0.303218
758.002788	0.303292
758.198639	0.303436
758.394471	0.303104
758.590286	0.302735
758.786081	0.302571
758.981859	0.302563
759.177619	0.302740
759.373360	0.302699
759.569083	0.302751
759.764788	0.302517
759.960474	0.301964
760.156143	0.301634
760.351793	0.301763
760.547425	0.301396
760.743038	0.301183
760.938634	0.300848
761.134211	0.300911
761.329770	0.300664
761.525311	0.300645
761.720833	0.300729
761.916338	0.300692
762.111824	0.300476
762.307292	0.300224
762.502741	0.299993
762.698173	0.299596
762.893586	0.299356
763.088981	0.299173
763.284358	0.298785
763.479716	0.298265
763.675057	0.298242
763.870379	0.298112
764.065683	0.298339
764.260968	0.298441
764.456236	0.298605
764.651485	0.298095
764.846716	0.298155
765.041929	0.298153
765.237123	0.298534
765.432299	0.298421
765.627457	0.298150
765.822597	0.297989
766.017719	0.297698
766.212822	0.297444
766.407907	0.297615
766.602974	0.297450
766.798023	0.297352
766.993054	0.297062
767.188066	0.296852
767.383060	0.297063
767.578036	0.297219
767.772993	0.297095
767.967933	0.296979
768.162854	0.297220
768.357757	0.296979
768.552642	0.296777
768.747508	0.296787
768.942356	0.296953
769.137186	0.296566
769.331998	0.296382
769.526792	0.296409
769.721567	0.296431
769.916324	0.296072
770.111063	0.295934
770.305784	0.296059
770.500486	0.295970
770.695171	0.295826
770.889837	0.295966
771.084484	0.295903
771.279114	0.296129
771.473725	0.295968
771.668318	0.295939
771.862893	0.296012
772.057450	0.295673
772.251988	0.295771
772.446509	0.295795
772.641011	0.295582
772.835494	0.295559
773.029960	0.295357
773.224407	0.295368
773.418836	0.295408
773.613247	0.295510
773.807640	0.295752
774.002014	0.295754
774.196370	0.295784
774.390708	0.295877
774.585028	0.295618
774.779330	0.295124
774.973613	0.295280
775.167878	0.295420
775.362125	0.295235
775.556354	0.294860
775.750564	0.294701
775.944756	0.294636
776.138930	0.294454
776.333086	0.294433
776.527223	0.294553
776.721343	0.294316
776.915444	0.294028
777.109526	0.294174
777.303591	0.294268
777.497637	0.294273
777.691666	0.294045
777.885676	0.294425
778.079667	0.294646
778.273641	0.294812
778.467596	0.295039
778.661533	0.295338
778.855452	0.295286
779.049352	0.295423
779.243235	0.295568
779.437099	0.295988
779.630945	0.295949
779.824773	0.295884
780.018582	0.296192
780.212373	0.296030
780.406146	0.295761
780.599901	0.295838
780.793638	0.295933
780.987356	0.295731
781.181056	0.295553
781.374738	0.295600
781.568402	0.295532
781.762047	0.295119
781.955674	0.295356
782.149283	0.295248
782.342874	0.295288
782.536447	0.295427
782.730001	0.295470
782.923537	0.295405
783.117055	0.295104
783.310555	0.295275
783.504036	0.295395
783.697499	0.295233
783.890944	0.295350
784.084371	0.294819
784.277780	0.294450
784.471170	0.294593
784.664542	0.294636
784.857896	0.294835
785.051231	0.294820
785.244549	0.294824
785.437848	0.294473
785.631129	0.294532
785.824392	0.294995
786.017636	0.295123
786.210863	0.295126
786.404071	0.295381
786.597260	0.295343
786.790432	0.295441
786.983585	0.295754
787.176721	0.296307
787.369838	0.296714
787.562936	0.297091
787.756017	0.297504
787.949079	0.297742
788.142123	0.297768
788.335149	0.298181
788.528156	0.298232
788.721146	0.298277
788.914117	0.298680
789.107070	0.298647
789.300005	0.298766
789.492921	0.298547
789.685819	0.298658
789.878699	0.298697
790.071561	0.298651
790.264405	0.298676
790.457230	0.298873
790.650037	0.298810
790.842826	0.298994
791.035597	0.299232
791.228349	0.299501
791.421084	0.299374
791.613800	0.299534
791.806497	0.299981
791.999177	0.300186
792.191838	0.300387
792.384481	0.300258
792.577106	0.300163
792.769713	0.300085
792.962301	0.300348
793.154871	0.300929
793.347423	0.301010
793.539957	0.300930
793.732473	0.301098
793.924970	0.301171
794.117449	0.301729
794.309910	0.302027
794.502353	0.301913
794.694777	0.301968
794.887183	0.302064
795.079571	0.302336
795.271941	0.302433
795.464293	0.303124
795.656626	0.303241
795.848941	0.303302
796.041238	0.303930
796.233516	0.304499
796.425777	0.304918
796.618019	0.304927
796.810243	0.305065
797.002449	0.305582
797.194636	0.305322
797.386805	0.305606
797.578956	0.305566
797.771089	0.305321
797.963204	0.305407
798.155300	0.305401
798.347378	0.305777
798.539438	0.306200
798.731480	0.306301
798.923503	0.306412
799.115509	0.306793
799.307496	0.307246
799.499465	0.307469
799.691415	0.307477
799.883348	0.307751
800.075262	0.307915
800.267158	0.307926
800.459035	0.307985
800.650895	0.308293
800.842736	0.308145
801.034559	0.308352
801.226364	0.308629
801.418150	0.308931
801.609919	0.309190
801.801669	0.309304
801.993401	0.309517
802.185114	0.309711
802.376810	0.309852
802.568487	0.310011
802.760146	0.310251
802.951787	0.310363
803.143409	0.310412
803.335014	0.310585
803.526600	0.310761
803.718168	0.310859
803.909717	0.311145
804.101249	0.311297
804.292762	0.311625
804.484257	0.311686
804.675734	0.312071
804.867192	0.312611
805.058632	0.313110
805.250054	0.313513
805.441458	0.313716
805.632844	0.313991
805.824211	0.314446
806.015561	0.314789
806.206891	0.315172
806.398204	0.315501
806.589499	0.315801
806.780775	0.315658
806.972033	0.315769
807.163273	0.316345
807.354495	0.316506
807.545698	0.316972
807.736883	0.317473
807.928050	0.317874
808.119199	0.317890
808.310329	0.318330
808.501441	0.319139
808.692535	0.319497
808.883611	0.319867
809.074669	0.320109
809.265708	0.320432
809.456729	0.320757
809.647732	0.321111
809.838717	0.321707
810.029683	0.321775
810.220632	0.321942
810.411562	0.322429
810.602474	0.322600
810.793367	0.323135
810.984242	0.323315
811.175100	0.323683
811.365938	0.323882
811.556759	0.324017
811.747562	0.324483
811.938346	0.324804
812.129112	0.324965
812.319860	0.325193
812.510589	0.325563
812.701300	0.325990
812.891994	0.326129
813.082668	0.326535
813.273325	0.327072
813.463964	0.327456
813.654584	0.327957
813.845186	0.328161
814.035769	0.328696
814.226335	0.328906
814.416882	0.329222
814.607411	0.329541
814.797922	0.329637
814.988415	0.329797
815.178889	0.330347
815.369345	0.330669
815.559783	0.331126
815.750203	0.331176
815.940605	0.331580
816.130988	0.331742
816.321353	0.332091
816.511700	0.332564
816.702028	0.332859
816.892339	0.332878
817.082631	0.333036
817.272905	0.333689
817.463161	0.334293
817.653398	0.334702
817.843617	0.335174
818.033819	0.335402
818.224001	0.335873
818.414166	0.336106
818.604312	0.336672
818.794440	0.336695
818.984550	0.336645
819.174642	0.336960
819.364716	0.336954
819.554771	0.337096
819.744808	0.337457
819.934827	0.337927
820.124827	0.338329
820.314810	0.338139
820.504774	0.338858
820.694720	0.339230
820.884647	0.339326
821.074557	0.339859
821.264448	0.340423
821.454321	0.340776
821.644176	0.340743
821.834012	0.341497
822.023831	0.341906
822.213631	0.342358
822.403413	0.342565
822.593176	0.342925
822.782922	0.343348
822.972649	0.343654
823.162358	0.344004
823.352049	0.344561
823.541721	0.344570
823.731376	0.345287
823.921012	0.345486
824.110629	0.346130
824.300229	0.346548
824.489811	0.347264
824.679374	0.347942
824.868919	0.348489
825.058445	0.348938
825.247954	0.349492
825.437444	0.349732
825.626916	0.350269
825.816370	0.350769
826.005806	0.351502
826.195223	0.351942
826.384622	0.352206
826.574003	0.352343
826.763366	0.352728
826.952711	0.353123
827.142037	0.353591
827.331345	0.354038
827.520635	0.354595
827.709906	0.354851
827.899160	0.354936
828.088395	0.355192
828.277612	0.356159
828.466810	0.356432
828.655991	0.356877
828.845153	0.357332
829.034297	0.357592
829.223423	0.357987
829.412531	0.358404
829.601620	0.358882
829.790691	0.359591
829.979744	0.359681
830.168779	0.360363
830.357795	0.360893
830.546793	0.361398
830.735773	0.361956
830.924735	0.362068
831.113679	0.362838
831.302604	0.363517
831.491511	0.363979
831.680400	0.364605
831.869271	0.364873
832.058123	0.365435
832.246957	0.365906
832.435773	0.366488
832.624571	0.367000
832.813351	0.367592
833.002112	0.368015
833.190855	0.368260
833.379580	0.368758
833.568287	0.369598
833.756975	0.370218
833.945645	0.370652
834.134297	0.371454
834.322931	0.372308
834.511547	0.372647
834.700144	0.373317
834.888723	0.373872
835.077284	0.374682
835.265826	0.375185
835.454351	0.375625
835.642857	0.376297
835.831345	0.376351
836.019815	0.376792
836.208266	0.377573
836.396699	0.378042
836.585114	0.379034
836.773511	0.379387
836.961890	0.379909
837.150250	0.380336
837.338592	0.380975
837.526916	0.381418
837.715222	0.382182
837.903510	0.382806
838.091779	0.383653
838.280030	0.383860
838.468263	0.384299
838.656477	0.384923
838.844674	0.385677
839.032852	0.386326
839.221012	0.387309
839.409153	0.387916
839.597277	0.388066
839.785382	0.388065
839.973469	0.388732
840.161538	0.389271
840.349589	0.389571
840.537621	0.389660
840.725635	0.389628
840.913631	0.389856
841.101609	0.389839
841.289568	0.390226
841.477509	0.390683
841.665432	0.391150
841.853337	0.391677
842.041224	0.391851
842.229092	0.392376
842.416942	0.393328
842.604774	0.393634
842.792588	0.393944
842.980383	0.394443
843.168160	0.395056
843.355919	0.395328
843.543660	0.395682
843.731382	0.396828
843.919087	0.397590
844.106773	0.397852
844.294441	0.398326
844.482090	0.399051
844.669722	0.399564
844.857335	0.400040
845.044930	0.400538
845.232507	0.401214
845.420065	0.400926
845.607605	0.401082
845.795127	0.401617
845.982631	0.402349
846.170117	0.402711
846.357584	0.403349
846.545033	0.403843
846.732464	0.404648
846.919877	0.405401
847.107272	0.406570
847.294648	0.407500
847.482006	0.408211
847.669346	0.408567
847.856667	0.409392
848.043971	0.409536
848.231256	0.410011
848.418523	0.410086
848.605771	0.410086
848.793002	0.410494
848.980214	0.410769
849.167408	0.410880
849.354584	0.411337
849.541742	0.411944
849.728881	0.412823
849.916002	0.413680
850.103105	0.414491
850.290190	0.415243
850.477256	0.415899
850.664304	0.416413
850.851334	0.417283
851.038346	0.417854
851.225340	0.418017
851.412315	0.418651
851.599272	0.418764
851.786211	0.419099
851.973132	0.419039
852.160034	0.419111
852.346918	0.419378
852.533784	0.420034
852.720632	0.420460
852.907462	0.421243
853.094273	0.421305
853.281066	0.422061
853.467841	0.422489
853.654598	0.423398
853.841336	0.423786
854.028056	0.424350
854.214758	0.424151
854.401442	0.424980
854.588107	0.425569
854.774755	0.425892
854.961384	0.425823
855.147995	0.426043
855.334587	0.426683
855.521162	0.427366
855.707718	0.427695
855.894256	0.427924
856.080775	0.427966
856.267277	0.428173
856.453760	0.429140
856.640225	0.429505
856.826672	0.430178
857.013101	0.430076
857.199511	0.430139
857.385903	0.430472
857.572277	0.431291
857.758633	0.431728
857.944970	0.432188
858.131290	0.432472
858.317591	0.433110
858.503873	0.433648
858.690138	0.434451
858.876384	0.435424
859.062612	0.436444
859.248822	0.437015
859.435014	0.437767
859.621188	0.438092
859.807343	0.438424
859.993480	0.438961
860.179599	0.439382
860.365699	0.439855
860.551781	0.439580
860.737846	0.439853
860.923891	0.440070
861.109919	0.440656
861.295929	0.441546
861.481920	0.441832
861.667893	0.442327
861.853848	0.442600
862.039784	0.442838
862.225702	0.443617
862.411603	0.444134
862.597484	0.444665
862.783348	0.444508
862.969193	0.444547
863.155021	0.445152
863.340830	0.445725
863.526620	0.445999
863.712393	0.446839
863.898147	0.447396
864.083883	0.447580
864.269601	0.447700
864.455301	0.448140
864.640982	0.448287
864.826645	0.448265
865.012290	0.448159
865.197917	0.448512
865.383526	0.448521
865.569116	0.448540
865.754688	0.448987
865.940242	0.449590
866.125777	0.450092
866.311295	0.450290
866.496794	0.450951
866.682275	0.451431
866.867737	0.451712
867.053182	0.451931
867.238608	0.452586
867.424016	0.452838
867.609406	0.453122
867.794778	0.453377
867.980131	0.454044
868.165466	0.454396
868.350783	0.455138
868.536082	0.455486
868.721362	0.456341
868.906625	0.456538
869.091869	0.457436
869.277094	0.458586
869.462302	0.458933
869.647491	0.459235
869.832662	0.459853
870.017815	0.459785
870.202950	0.460670
870.388066	0.460722
870.573165	0.461321
870.758245	0.461190
870.943306	0.461283
871.128350	0.461955
871.313375	0.462481
871.498382	0.462722
871.683371	0.463654
871.868342	0.463821
872.053294	0.463994
872.238229	0.464063
872.423144	0.464364
872.608042	0.464916
872.792922	0.464785
872.977783	0.464799
873.162626	0.464776
873.347451	0.464523
873.532258	0.464504
873.717046	0.465050
873.901816	0.465527
874.086568	0.465775
874.271302	0.465359
874.456017	0.465764
874.640715	0.465983
874.825394	0.466368
875.010055	0.466856
875.194697	0.467204
875.379322	0.467373
875.563928	0.467614
875.748516	0.468030
875.933085	0.468617
876.117637	0.468470
876.302170	0.468714
876.486685	0.468805
876.671182	0.468428
876.855661	0.468861
877.040121	0.468979
877.224563	0.468836
877.408987	0.468799
877.593393	0.468522
877.777780	0.468894
877.962150	0.468674
878.146501	0.469007
878.330833	0.469910
878.515148	0.469705
878.699444	0.469677
878.883722	0.470418
879.067982	0.470849
879.252224	0.470879
879.436447	0.471501
879.620653	0.472162
879.804840	0.472504
879.989008	0.472066
880.173159	0.472197
880.357291	0.472597
880.541405	0.472505
880.725501	0.472542
880.909579	0.473023
881.093638	0.472953
881.277680	0.473027
881.461703	0.473116
881.645707	0.473247
881.829694	0.473599
882.013662	0.473817
882.197612	0.473914
882.381544	0.473729
882.565458	0.474063
882.749353	0.473955
882.933230	0.474385
883.117089	0.474079
883.300930	0.474879
883.484753	0.475351
883.668557	0.475189
883.852343	0.475205
884.036111	0.475285
884.219861	0.474854
884.403592	0.475135
884.587305	0.475415
884.771000	0.475884
884.954677	0.475453
885.138335	0.475199
885.321976	0.475698
885.505598	0.475706
885.689201	0.476327
885.872787	0.476454
886.056354	0.476627
886.239904	0.476618
886.423434	0.476585
886.606947	0.476755
886.790442	0.476780
886.973918	0.476394
887.157376	0.476690
887.340816	0.476267
887.524237	0.476116
887.707641	0.476093
887.891026	0.476211
888.074393	0.476097
888.257741	0.476567
888.441072	0.476309
888.624384	0.476323
888.807678	0.476195
888.990954	0.476282
889.174211	0.476526
889.357451	0.476533
889.540672	0.475978
889.723875	0.476213
889.907059	0.476100
890.090226	0.476389
890.273374	0.476647
890.456504	0.476594
890.639616	0.476423
890.822709	0.476466
891.005785	0.476247
891.188842	0.476199
891.371881	0.475940
891.554901	0.475841
891.737904	0.475505
891.920888	0.475280
892.103854	0.475452
892.286802	0.475630
892.469731	0.475467
892.652643	0.475206
892.835536	0.475395
893.018410	0.475233
893.201267	0.474283
893.384106	0.474738
893.566926	0.474024
893.749728	0.473238
893.932511	0.472877
894.115277	0.472785
894.298024	0.472608
894.480753	0.472526
894.663464	0.472264
894.846157	0.472780
895.028831	0.472024
895.211487	0.472588
895.394125	0.473078
895.576745	0.473006
895.759346	0.472810
895.941930	0.473113
896.124495	0.473052
896.307041	0.472599
896.489570	0.472089
896.672080	0.472263
896.854573	0.472438
897.037046	0.472180
897.219502	0.471921
897.401940	0.471954
897.584359	0.471844
897.766760	0.471376
897.949143	0.471914
898.131507	0.471806
898.313854	0.471919
898.496182	0.470720
898.678492	0.469996
898.860783	0.469917
899.043057	0.469608
899.225312	0.468840
899.407549	0.468310
899.589768	0.467934
899.771968	0.467704
899.954151	0.467313
900.136315	0.466811
900.318461	0.466614
900.500588	0.465532
900.682698	0.464494
900.864789	0.464536
901.046862	0.464631
901.228917	0.464249
901.410953	0.464027
901.592971	0.462817
901.774972	0.462445
901.956953	0.461800
902.138917	0.461977
902.320862	0.461424
902.502790	0.460935
902.684699	0.460123
902.866589	0.458742
903.048462	0.457897
903.230316	0.457609
903.412152	0.457590
903.593970	0.457874
903.775770	0.457781
903.957551	0.458191
904.139314	0.457782
904.321059	0.457736
904.502786	0.458433
904.684494	0.458272
904.866185	0.458490
905.047857	0.458338
905.229510	0.457808
905.411146	0.457453
905.592763	0.456751
905.774363	0.456750
905.955943	0.456234
906.137506	0.455657
906.319051	0.455220
906.500577	0.455316
906.682085	0.454825
906.863575	0.454443
907.045046	0.454139
907.226500	0.454396
907.407935	0.453729
907.589352	0.452613
907.770750	0.451990
907.952131	0.451779
908.133493	0.450845
908.314837	0.450392
908.496163	0.450582
908.677470	0.449903
908.858760	0.449053
909.040031	0.449245
909.221284	0.450104
909.402518	0.449569
909.583735	0.448664
909.764933	0.448139
909.946113	0.447230
910.127275	0.445412
910.308418	0.444869
910.489544	0.444763
910.670651	0.443137
910.851740	0.442038
911.032810	0.441590
911.213863	0.441435
911.394897	0.440407
911.575913	0.439709
911.756911	0.439536
911.937890	0.438422
912.118851	0.437167
912.299794	0.436701
912.480719	0.435675
912.661626	0.435173
912.842514	0.434319
913.023384	0.433781
913.204236	0.433733
913.385070	0.433528
913.565886	0.433142
913.746683	0.432473
913.927462	0.431992
914.108223	0.431336
914.288965	0.430578
914.469690	0.429831
914.650396	0.429335
914.831084	0.428912
915.011754	0.428121
915.192405	0.427688
915.373038	0.427180
915.553653	0.426290
915.734250	0.425719
915.914829	0.425509
916.095389	0.424547
916.275931	0.424272
916.456455	0.422869
916.636961	0.422374
916.817448	0.421842
916.997917	0.421335
917.178368	0.420633
917.358801	0.419843
917.539216	0.418548
917.719612	0.418188
917.899990	0.416963
918.080350	0.416271
918.260692	0.415772
918.441015	0.415667
918.621320	0.414158
918.801607	0.413741
918.981876	0.412967
919.162127	0.412698
919.342359	0.412208
919.522573	0.412343
919.702769	0.411731
919.882947	0.410036
920.063106	0.408631
920.243247	0.408022
920.423370	0.407847
920.603475	0.407614
920.783562	0.406837
920.963630	0.405801
921.143680	0.403591
921.323712	0.402660
921.503725	0.402105
921.683721	0.401039
921.863698	0.400832
922.043657	0.398516
922.223598	0.396903
922.403520	0.396091
922.583424	0.395179
922.763311	0.395501
922.943178	0.395475
923.123028	0.393835
923.302859	0.392586
923.482673	0.391672
923.662467	0.391087
923.842244	0.390536
924.022003	0.389382
924.201743	0.388793
924.381465	0.387080
924.561169	0.385651
924.740854	0.385772
924.920522	0.384967
925.100171	0.383372
925.279802	0.383799
925.459414	0.382922
925.639009	0.381746
925.818585	0.380803
925.998143	0.379216
926.177683	0.378244
926.357205	0.377272
926.536708	0.376761
926.716193	0.376649
926.895660	0.374465
927.075109	0.374344
927.254539	0.373900
927.433951	0.372412
927.613345	0.372933
927.792721	0.372485
927.972079	0.371427
928.151418	0.370255
928.330739	0.369141
928.510042	0.368377
928.689327	0.366490
928.868593	0.364061
929.047841	0.363816
929.227071	0.362620
929.406283	0.361207
929.585476	0.359808
929.764652	0.358935
929.943809	0.357439
930.122948	0.357331
930.302068	0.356793
930.481171	0.357332
930.660255	0.355338
930.839321	0.353792
931.018369	0.352437
931.197398	0.352160
931.376409	0.351660
931.555402	0.350935
931.734377	0.348944
931.913334	0.347778
932.092272	0.346153
932.271192	0.344996
932.450094	0.345042
932.628978	0.344345
932.807844	0.343610
932.986691	0.342568
933.165520	0.342035
933.344331	0.341827
933.523123	0.340644
933.701898	0.339799
933.880654	0.339433
934.059392	0.337486
934.238111	0.337006
934.416813	0.335515
934.595496	0.334657
934.774161	0.334105
934.952808	0.332321
935.131437	0.331897
935.310047	0.330885
935.488639	0.329603
935.667213	0.328328
935.845769	0.326895
936.024306	0.326213
936.202825	0.324352
936.381326	0.322134
936.559809	0.320027
936.738274	0.318438
936.916720	0.317748
937.095148	0.317818
937.273558	0.316231
937.451950	0.314556
937.630323	0.312873
937.808678	0.312011
937.987015	0.311462
938.165334	0.310977
938.343635	0.309483
938.521917	0.308567
938.700181	0.306175
938.878427	0.306462
939.056655	0.304979
939.234864	0.304435
939.413055	0.302551
939.591228	0.302351
939.769383	0.300656
939.947519	0.300268
940.125638	0.298922
940.303738	0.299591
940.481820	0.297224
940.659883	0.297260
940.837929	0.296190
941.015956	0.295290
941.193965	0.292596
941.371955	0.292666
941.549928	0.291224
941.727882	0.289583
941.905818	0.286316
942.083736	0.285613
942.261636	0.283587
942.439517	0.281037
942.617380	0.280736
942.795225	0.281081
942.973052	0.278788
943.150860	0.277025
943.328651	0.276153
943.506423	0.275666
943.684176	0.274549
943.861912	0.274092
944.039629	0.273733
944.217328	0.270556
944.395009	0.269199
944.572672	0.269403
944.750317	0.268805
944.927943	0.267098
945.105551	0.266837
945.283141	0.264838
945.460712	0.263633
945.638265	0.260845
945.815801	0.261985
945.993317	0.259267
946.170816	0.257777
946.348297	0.256542
946.525759	0.255356
946.703203	0.253791
946.880629	0.252894
947.058036	0.252341
947.235425	0.254357
947.412797	0.251678
947.590149	0.250593
947.767484	0.248078
947.944800	0.247492
948.122099	0.246565
948.299379	0.243265
948.476640	0.241974
948.653884	0.240000
948.831109	0.237619
949.008316	0.236534
949.185505	0.234917
949.362676	0.237095
949.539828	0.234931
949.716962	0.232151
949.894078	0.232084
950.071176	0.231123
950.248256	0.229600
950.425317	0.227156
950.602360	0.225310
950.779385	0.225516
950.956391	0.222731
951.133380	0.221554
951.310350	0.222046
951.487302	0.222594
951.664235	0.223087
951.841151	0.222296
952.018048	0.223180
952.194927	0.222993
952.371788	0.221151
952.548631	0.220857
952.725455	0.219349
952.902261	0.220364
953.079049	0.219470
953.255819	0.218015
953.432570	0.218533
953.609303	0.216597
953.786018	0.215840
953.962715	0.215065
954.139394	0.211619
954.316054	0.211053
954.492696	0.208409
954.669320	0.203832
954.845926	0.202589
955.022513	0.199284
955.199083	0.198164
955.375634	0.198773
955.552166	0.197341
955.728681	0.197581
955.905177	0.197966
956.081655	0.198400
956.258115	0.201405
956.434557	0.200674
956.610980	0.201402
956.787385	0.200265
956.963772	0.196523
957.140141	0.197627
957.316492	0.197719
957.492824	0.197180
957.669138	0.197511
957.845434	0.193560
958.021712	0.193476
958.197971	0.193544
958.374212	0.191418
958.550435	0.192316
958.726640	0.192635
958.902826	0.190800
959.078995	0.190313
959.255145	0.185375
959.431277	0.186711
959.607390	0.187802
959.783486	0.186215
959.959563	0.189163
960.135622	0.188995
960.311662	0.186229
960.487685	0.187252
960.663689	0.187121
960.839675	0.188491
961.015643	0.188999
961.191593	0.185529
961.367524	0.183967
961.543437	0.182067
961.719332	0.181767
961.895209	0.181053
962.071067	0.180199
962.246907	0.177773
962.422730	0.178496
962.598533	0.176593
962.774319	0.176306
962.950086	0.177278
963.125835	0.177533
963.301566	0.178103
963.477279	0.177559
963.652973	0.175584
963.828650	0.175443
964.004308	0.172975
964.179947	0.173567
964.355569	0.171968
964.531172	0.172416
964.706757	0.170286
964.882324	0.168108
965.057873	0.168486
965.233403	0.170254
965.408916	0.170567
965.584410	0.171146
965.759885	0.172225
965.935343	0.172374
966.110782	0.170581
966.286203	0.169501
966.461606	0.171118
966.636991	0.170047
966.812357	0.166850
966.987705	0.168012
967.163035	0.168106
967.338347	0.167709
967.513641	0.171448
967.688916	0.173386
967.864173	0.174046
968.039412	0.172894
968.214632	0.175232
968.389835	0.179233
968.565019	0.177895
968.740185	0.179267
968.915333	0.178580
969.090462	0.175986
969.265573	0.174814
969.440667	0.176090
969.615741	0.176187
969.790798	0.174119
969.965836	0.174169
970.140856	0.173300
970.315858	0.172873
970.490842	0.173083
970.665808	0.172920
970.840755	0.172140
971.015684	0.173616
971.190595	0.174486
971.365487	0.175614
971.540362	0.174425
971.715218	0.173742
971.890056	0.172821
972.064875	0.170831
972.239677	0.169459
972.414460	0.170012
972.589225	0.170166
972.763972	0.169520
972.938700	0.169964
973.113411	0.166724
973.288103	0.166641
973.462777	0.166867
973.637432	0.165759
973.812070	0.169270
973.986689	0.169564
974.161290	0.166170
974.335873	0.164209
974.510437	0.163153
974.684984	0.164281
974.859512	0.166560
975.034022	0.169012
975.208513	0.170152
975.382987	0.167308
975.557442	0.167702
975.731879	0.170683
975.906298	0.170988
976.080698	0.173324
976.255080	0.175074
976.429445	0.173905
976.603790	0.170604
976.778118	0.172485
976.952427	0.174425
977.126719	0.173095
977.300992	0.170426
977.475246	0.170612
977.649483	0.167697
977.823701	0.167637
977.997901	0.169042
978.172083	0.167461
978.346247	0.166750
978.520392	0.166950
978.694519	0.168868
978.868628	0.169799
979.042719	0.171538
979.216791	0.171809
979.390845	0.173461
979.564882	0.174723
979.738899	0.177014
979.912899	0.179097
980.086880	0.177047
980.260843	0.176014
980.434788	0.177686
980.608715	0.177340
980.782623	0.177930
980.956514	0.175827
981.130386	0.173507
981.304240	0.175341
981.478075	0.173604
981.651892	0.173400
981.825692	0.172147
981.999472	0.168820
982.173235	0.168281
982.346980	0.169138
982.520706	0.167884
982.694414	0.169222
982.868104	0.165683
983.041775	0.163602
983.215428	0.165214
983.389064	0.165695
983.562680	0.166434
983.736279	0.164155
983.909860	0.163999
984.083422	0.164970
984.256966	0.161965
984.430491	0.163327
984.603999	0.166157
984.777488	0.165692
984.950959	0.165102
985.124412	0.166291
985.297847	0.168164
985.471263	0.166265
985.644661	0.165981
985.818041	0.166386
985.991403	0.165235
986.164747	0.164975
986.338072	0.164540
986.511379	0.166685
986.684668	0.166443
986.857938	0.167084
987.031191	0.167874
987.204425	0.168839
987.377641	0.169942
987.550839	0.171768
987.724018	0.171149
987.897179	0.173685
988.070322	0.173478
988.243447	0.173557
988.416554	0.172841
988.589642	0.172391
988.762712	0.169550
988.935764	0.167006
989.108798	0.166636
989.281813	0.167194
989.454811	0.165647
989.627790	0.166241
989.800751	0.167011
989.973693	0.167201
990.146617	0.169756
990.319524	0.171241
990.492412	0.174274
990.665281	0.173426
990.838133	0.172685
991.010966	0.171806
991.183781	0.168212
991.356578	0.167923
991.529356	0.168203
991.702117	0.166231
991.874859	0.169411
992.047583	0.168814
992.220288	0.170205
992.392976	0.170106
992.565645	0.171906
992.738296	0.173071
992.910929	0.170895
993.083543	0.169527
993.256139	0.170142
993.428718	0.167949
993.601277	0.170066
993.773819	0.170750
993.946342	0.172427
994.118848	0.170517
994.291335	0.170941
994.463803	0.172599
994.636254	0.173552
994.808686	0.173172
994.981100	0.172911
995.153496	0.172057
995.325874	0.169809
995.498233	0.168773
995.670574	0.170403
995.842897	0.168689
996.015202	0.170164
996.187488	0.171493
996.359757	0.171070
996.532007	0.171689
996.704239	0.171277
996.876452	0.170679
997.048648	0.170823
997.220825	0.170480
997.392984	0.172939
997.565124	0.172132
997.737247	0.172451
997.909351	0.173090
998.081437	0.173681
998.253505	0.173330
998.425554	0.174823
998.597586	0.174184
998.769599	0.171598
998.941594	0.172589
999.113571	0.170647
999.285529	0.171864
999.457469	0.171290
999.629391	0.169323
999.801295	0.169247
999.973181	0.169481
1000.145048	0.170267
1000.316897	0.173370
1000.488728	0.169601
1000.660541	0.171308
1000.832335	0.169009
1001.004111	0.168996
1001.175869	0.169420
1001.347609	0.167825
1001.519331	0.167151
1001.691034	0.166046
1001.862719	0.164811
1002.034386	0.166884
1002.206035	0.166142
1002.377665	0.165889
1002.549277	0.165539
1002.720871	0.166272
1002.892447	0.166078
1003.064004	0.164515
1003.235544	0.164711
1003.407065	0.165349
1003.578568	0.166273
1003.750052	0.168560
1003.921519	0.169193
1004.092967	0.170191
1004.264397	0.168261
1004.435809	0.169162
1004.607202	0.171624
1004.778577	0.170983
1004.949934	0.169845
1005.121273	0.168113
1005.292594	0.166499
1005.463896	0.167404
1005.635180	0.168612
1005.806446	0.170031
1005.977694	0.170795
1006.148923	0.170941
1006.320135	0.169524
1006.491328	0.170089
1006.662503	0.171828
1006.833659	0.171932
1007.004798	0.167963
1007.175918	0.165780
1007.347020	0.166038
1007.518103	0.165609
1007.689169	0.165768
1007.860216	0.167347
1008.031245	0.167003
1008.202256	0.165972
1008.373248	0.165367
1008.544223	0.170039
1008.715179	0.171841
1008.886117	0.171128
1009.057036	0.171864
1009.227938	0.169409
1009.398821	0.169801
1009.569686	0.168585
1009.740533	0.169456
1009.911361	0.169847
1010.082172	0.168957
1010.252964	0.167580
1010.423738	0.166997
1010.594493	0.168149
1010.765231	0.169352
1010.935950	0.169516
1011.106651	0.171560
1011.277334	0.169724
1011.447998	0.169719
1011.618645	0.169700
1011.789273	0.169236
1011.959882	0.170704
1012.130474	0.168737
1012.301048	0.168639
1012.471603	0.167547
1012.642140	0.165950
1012.812658	0.166493
1012.983159	0.166151
1013.153641	0.163525
1013.324105	0.165455
1013.494551	0.165737
1013.664979	0.168170
1013.835388	0.169614
1014.005779	0.168774
1014.176152	0.169172
1014.346507	0.170742
1014.516843	0.170215
1014.687162	0.170899
1014.857462	0.167506
1015.027744	0.167142
1015.198007	0.163176
1015.368252	0.161984
1015.538480	0.163099
1015.708689	0.165456
1015.878879	0.162212
1016.049052	0.160840
1016.219206	0.162359
1016.389342	0.163569
1016.559460	0.164898
1016.729559	0.164963
1016.899641	0.164558
1017.069704	0.163955
1017.239749	0.161225
1017.409775	0.162021
1017.579784	0.163850
1017.749774	0.162676
1017.919746	0.162433
1018.089700	0.161396
1018.259635	0.164176
1018.429553	0.162846
1018.599452	0.163555
1018.769333	0.165009
1018.939195	0.167848
1019.109040	0.165752
1019.278866	0.166581
1019.448674	0.166154
1019.618464	0.164956
1019.788235	0.163759
1019.957989	0.164165
1020.127724	0.163900
1020.297441	0.162450
1020.467139	0.161526
1020.636820	0.163798
1020.806482	0.163153
1020.976126	0.163315
1021.145752	0.164669
1021.315359	0.164253
1021.484948	0.163784
1021.654519	0.162762
1021.824072	0.163981
1021.993607	0.163371
1022.163123	0.164051
1022.332621	0.164295
1022.502101	0.164448
1022.671563	0.163695
1022.841007	0.163033
1023.010432	0.163811
1023.179839	0.164789
1023.349228	0.163021
1023.518598	0.161710
1023.687951	0.159876
1023.857285	0.158856
1024.026601	0.160404
1024.195899	0.158217
1024.365178	0.159001
1024.534439	0.158125
1024.703682	0.159399
1024.872907	0.162362
1025.042114	0.162077
1025.211302	0.161719
1025.380472	0.162267
1025.549624	0.161290
1025.718758	0.165079
1025.887873	0.165504
1026.056970	0.167423
1026.226049	0.166251
1026.395110	0.166029
1026.564153	0.168009
1026.733177	0.169141
1026.902183	0.170124
1027.071171	0.168173
1027.240141	0.165956
1027.409092	0.165608
1027.578026	0.165921
1027.746940	0.165473
1027.915837	0.163923
1028.084716	0.163293
1028.253576	0.162850
1028.422418	0.161928
1028.591242	0.162519
1028.760048	0.164117
1028.928835	0.163247
1029.097604	0.162675
1029.266355	0.163627
1029.435088	0.163166
1029.603803	0.161900
1029.772499	0.162991
1029.941177	0.161947
1030.109837	0.162947
1030.278478	0.161856
1030.447102	0.160904
1030.615707	0.159303
1030.784294	0.158474
1030.952863	0.157188
1031.121413	0.158392
1031.289945	0.159007
1031.458460	0.159461
1031.626955	0.160121
1031.795433	0.159915
1031.963892	0.161393
1032.132334	0.161095
1032.300756	0.162919
1032.469161	0.164166
1032.637548	0.164649
1032.805916	0.161682
1032.974266	0.161857
1033.142598	0.162696
1033.310911	0.162215
1033.479207	0.163239
1033.647484	0.165639
1033.815743	0.163955
1033.983983	0.163669
1034.152206	0.162232
1034.320410	0.162849
1034.488596	0.163895
1034.656764	0.163165
1034.824914	0.162625
1034.993045	0.160847
1035.161158	0.157546
1035.329253	0.157968
1035.497330	0.158798
1035.665388	0.160723
1035.833428	0.160235
1036.001450	0.158375
1036.169454	0.157660
1036.337440	0.157696
1036.505407	0.158245
1036.673356	0.160155
1036.841287	0.160125
1037.009200	0.160008
1037.177094	0.158924
1037.344970	0.158685
1037.512828	0.161015
1037.680668	0.158561
1037.848489	0.159856
1038.016293	0.158366
1038.184078	0.158261
1038.351845	0.158253
1038.519593	0.156793
1038.687324	0.157342
1038.855036	0.158581
1039.022730	0.157066
1039.190406	0.158985
1039.358063	0.158258
1039.525702	0.161435
1039.693323	0.162592
1039.860926	0.163480
1040.028511	0.164037
1040.196077	0.163931
1040.363625	0.163083
1040.531155	0.164844
1040.698667	0.164877
1040.866161	0.165589
1041.033636	0.164390
1041.201093	0.164472
1041.368532	0.161776
1041.535952	0.163290
1041.703355	0.162794
1041.870739	0.164805
1042.038105	0.162166
1042.205452	0.162120
1042.372782	0.161864
1042.540093	0.163268
1042.707386	0.161805
1042.874661	0.164337
1043.041918	0.164421
1043.209156	0.164515
1043.376376	0.163873
1043.543578	0.164823
1043.710762	0.164480
1043.877927	0.163375
1044.045074	0.160567
1044.212203	0.162080
1044.379314	0.160745
1044.546407	0.160466
1044.713481	0.160484
1044.880537	0.159914
1045.047575	0.158208
1045.214595	0.160826
1045.381596	0.159706
1045.548579	0.160658
1045.715544	0.161604
1045.882491	0.162689
1046.049420	0.161908
1046.216330	0.161245
1046.383222	0.161259
1046.550096	0.162656
1046.716951	0.160591
1046.883789	0.163491
1047.050608	0.162140
1047.217409	0.163347
1047.384192	0.163204
1047.550956	0.163477
1047.717703	0.164699
1047.884431	0.163695
1048.051140	0.162673
1048.217832	0.163650
1048.384505	0.163677
1048.551161	0.163606
1048.717798	0.161048
1048.884416	0.159163
1049.051017	0.158558
1049.217599	0.158474
1049.384163	0.158841
1049.550709	0.159571
1049.717237	0.159915
1049.883746	0.158554
1050.050237	0.158560
1050.216710	0.158704
1050.383165	0.157430
1050.549601	0.158134
1050.716019	0.156753
1050.882420	0.157780
1051.048801	0.158722
1051.215165	0.158160
1051.381510	0.158525
1051.547837	0.161916
1051.714146	0.160111
1051.880437	0.162871
1052.046709	0.160313
1052.212964	0.158295
1052.379200	0.158036
1052.545417	0.159211
1052.711617	0.158474
1052.877798	0.159004
1053.043961	0.157077
1053.210106	0.159797
1053.376233	0.159872
1053.542341	0.162138
1053.708432	0.166900
1053.874504	0.166068
1054.040557	0.164426
1054.206593	0.164514
1054.372610	0.163721
1054.538609	0.166529
1054.704590	0.166399
1054.870553	0.165944
1055.036497	0.163386
1055.202424	0.160950
1055.368331	0.161348
1055.534221	0.163076
1055.700093	0.163612
1055.865946	0.162377
1056.031781	0.160629
1056.197598	0.159803
1056.363397	0.160720
1056.529177	0.162690
1056.694939	0.163060
1056.860683	0.162794
1057.026409	0.162572
1057.192116	0.161322
1057.357806	0.162242
1057.523477	0.160850
1057.689130	0.163168
1057.854764	0.162587
1058.020381	0.162893
1058.185979	0.162520
1058.351559	0.161559
1058.517120	0.161336
1058.682664	0.163541
1058.848189	0.162332
1059.013696	0.162126
1059.179185	0.157570
1059.344656	0.158929
1059.510108	0.158334
1059.675542	0.157021
1059.840958	0.158192
1060.006356	0.157100
1060.171735	0.154541
1060.337096	0.155964
1060.502439	0.155095
1060.667764	0.156951
1060.833071	0.155263
1060.998359	0.156875
1061.163629	0.157345
1061.328881	0.156057
1061.494115	0.157822
1061.659330	0.157230
1061.824527	0.157665
1061.989706	0.158396
1062.154867	0.156693
1062.320010	0.157322
1062.485134	0.158937
1062.650240	0.158740
1062.815328	0.160762
1062.980398	0.159989
1063.145449	0.164192
1063.310482	0.162968
1063.475497	0.161802
1063.640494	0.160911
1063.805473	0.160760
1063.970433	0.157719
1064.135375	0.159864
1064.300299	0.160736
1064.465204	0.159662
1064.630092	0.157526
1064.794961	0.158031
1064.959812	0.159020
1065.124645	0.161203
1065.289459	0.161479
1065.454256	0.162198
1065.619034	0.161382
1065.783793	0.161031
1065.948535	0.162605
1066.113258	0.163312
1066.277964	0.164302
1066.442651	0.163236
1066.607319	0.164294
1066.771970	0.164529
1066.936602	0.162467
1067.101216	0.164172
1067.265812	0.163340
1067.430389	0.164762
1067.594949	0.164937
1067.759490	0.163590
1067.924013	0.167165
1068.088518	0.165533
1068.253004	0.163727
1068.417472	0.165158
1068.581922	0.163849
1068.746354	0.163562
1068.910768	0.158589
1069.075163	0.158975
1069.239540	0.159155
1069.403899	0.154529
1069.568240	0.156072
1069.732562	0.158018
1069.896866	0.158163
1070.061152	0.156754
1070.225420	0.158236
1070.389670	0.161641
1070.553901	0.160872
1070.718114	0.161673
1070.882309	0.164939
1071.046486	0.164576
1071.210644	0.162777
1071.374784	0.162873
1071.538906	0.163931
1071.703010	0.162565
1071.867096	0.160537
1072.031163	0.162381
1072.195212	0.162789
1072.359243	0.162294
1072.523256	0.162163
1072.687250	0.165116
1072.851226	0.165434
1073.015184	0.166985
1073.179124	0.167214
1073.343045	0.166628
1073.506949	0.160816
1073.670834	0.161200
1073.834701	0.162305
1073.998549	0.162634
1074.162380	0.161513
1074.326192	0.160817
1074.489986	0.163458
1074.653761	0.160339
1074.817519	0.162180
1074.981258	0.164873
1075.144979	0.163968
1075.308682	0.163471
1075.472367	0.161384
1075.636033	0.160744
1075.799681	0.160483
1075.963311	0.157291
1076.126923	0.161851
1076.290516	0.161815
1076.454092	0.162814
1076.617649	0.161345
1076.781187	0.160756
1076.944708	0.159913
1077.108210	0.159144
1077.271695	0.162405
1077.435160	0.162722
1077.598608	0.160792
1077.762038	0.163054
1077.925449	0.164789
1078.088842	0.167737
1078.252217	0.170112
1078.415573	0.173810
1078.578912	0.175023
1078.742232	0.171640
1078.905534	0.170326
1079.068817	0.170004
1079.232083	0.166886
1079.395330	0.164072
1079.558559	0.162210
1079.721770	0.158781
1079.884962	0.155447
1080.048136	0.153982
1080.211293	0.155459
1080.374430	0.156828
1080.537550	0.158242
1080.700651	0.157102
1080.863735	0.155541
1081.026800	0.154726
1081.189846	0.155986
1081.352875	0.158921
1081.515885	0.157960
1081.678877	0.159333
1081.841851	0.156660
1082.004807	0.157742
1082.167744	0.160410
1082.330663	0.159886
1082.493564	0.160031
1082.656447	0.158492
1082.819312	0.159661
1082.982158	0.163804
1083.144986	0.161424
1083.307796	0.159594
1083.470587	0.158057
1083.633361	0.157190
1083.796116	0.162441
1083.958853	0.165332
1084.121571	0.167602
1084.284272	0.165849
1084.446954	0.165865
1084.609618	0.165996
1084.772264	0.172013
1084.934892	0.171985
1085.097501	0.172180
1085.260092	0.169176
1085.422665	0.167793
1085.585220	0.168062
1085.747756	0.169089
1085.910274	0.167286
1086.072774	0.170485
1086.235256	0.169103
1086.397720	0.168561
1086.560165	0.169550
1086.722592	0.170374
1086.885001	0.173330
1087.047392	0.170900
1087.209764	0.167740
1087.372119	0.167845
1087.534455	0.165335
1087.696772	0.165113
1087.859072	0.169537
1088.021353	0.167263
1088.183616	0.167726
1088.345861	0.163481
1088.508088	0.164368
1088.670296	0.166843
1088.832486	0.164879
1088.994658	0.163526
1089.156812	0.162904
1089.318948	0.159051
1089.481065	0.157445
1089.643164	0.155828
1089.805245	0.157752
1089.967308	0.158465
1090.129352	0.155502
1090.291378	0.158873
1090.453386	0.160553
1090.615376	0.161338
1090.777347	0.162394
1090.939301	0.166086
1091.101236	0.169793
1091.263153	0.169181
1091.425051	0.170713
1091.586932	0.176032
1091.748794	0.174934
1091.910638	0.177182
1092.072463	0.178887
1092.234271	0.181343
1092.396060	0.176832
1092.557831	0.175255
1092.719584	0.175922
1092.881319	0.172134
1093.043035	0.170747
1093.204733	0.169255
1093.366413	0.169925
1093.528075	0.169751
1093.689718	0.165777
1093.851343	0.168806
1094.012950	0.169035
1094.174539	0.165180
1094.336110	0.166940
1094.497662	0.165922
1094.659196	0.165757
1094.820712	0.164923
1094.982210	0.164193
1095.143689	0.165892
1095.305151	0.162459
1095.466594	0.158439
1095.628018	0.161757
1095.789425	0.163702
1095.950813	0.162932
1096.112183	0.163456
1096.273535	0.158386
1096.434869	0.157447
1096.596184	0.158768
1096.757482	0.163672
1096.918761	0.167031
1097.080021	0.168710
1097.241264	0.168904
1097.402488	0.169863
1097.563694	0.172249
1097.724882	0.171314
1097.886052	0.169816
1098.047203	0.166060
1098.208336	0.166393
1098.369451	0.164958
1098.530548	0.162562
1098.691627	0.167206
1098.852687	0.168928
1099.013729	0.167976
1099.174753	0.173028
1099.335758	0.174933
1099.496746	0.176547
1099.657715	0.170721
1099.818666	0.171237
1099.979599	0.175157
1100.140513	0.170815
1100.301409	0.169666
1100.462287	0.166465
1100.623147	0.167341
1100.783989	0.166538
1100.944812	0.166228
1101.105617	0.168488
1101.266404	0.169302
1101.427173	0.166091
1101.587923	0.163419
1101.748656	0.160590
1101.909370	0.162734
1102.070066	0.157234
1102.230743	0.155002
1102.391403	0.153834
1102.552044	0.156722
1102.712667	0.156451
1102.873271	0.156575
1103.033858	0.155516
1103.194426	0.156562
1103.354976	0.153743
1103.515508	0.160733
1103.676021	0.166087
1103.836517	0.167922
1103.996994	0.167462
1104.157453	0.166969
1104.317893	0.167230
1104.478316	0.168766
1104.638720	0.173489
1104.799106	0.176762
1104.959474	0.171806
1105.119823	0.167881
1105.280155	0.171844
1105.440468	0.174178
1105.600763	0.176425
1105.761039	0.179900
1105.921298	0.178658
1106.081538	0.172287
1106.241760	0.178413
1106.401964	0.187039
1106.562149	0.186519
1106.722316	0.180365
1106.882465	0.180008
1107.042596	0.180552
1107.202709	0.176836
1107.362803	0.176674
1107.522879	0.178190
1107.682937	0.172321
1107.842977	0.167408
1108.002999	0.167522
1108.163002	0.169259
1108.322987	0.167118
1108.482954	0.164633
1108.642902	0.162955
1108.802833	0.167615
1108.962745	0.168907
1109.122639	0.168902
1109.282515	0.167786
1109.442372	0.169472
1109.602211	0.173242
1109.762032	0.170949
1109.921835	0.174622
1110.081620	0.174657
1110.241386	0.171639
1110.401134	0.172163
1110.560864	0.173368
1110.720576	0.175162
1110.880269	0.175178
1111.039945	0.168114
1111.199602	0.168908
1111.359240	0.166116
1111.518861	0.167314
1111.678463	0.166153
1111.838047	0.167180
1111.997613	0.169712
1112.157161	0.167926
1112.316690	0.175898
1112.476202	0.179037
1112.635695	0.179509
1112.795169	0.177496
1112.954626	0.181744
1113.114064	0.179197
1113.273484	0.175337
1113.432886	0.172242
1113.592270	0.168900
1113.751635	0.158295
1113.910983	0.151251
1114.070312	0.152125
1114.229622	0.151768
1114.388915	0.142468
1114.548189	0.144960
1114.707445	0.145480
1114.866683	0.140663
1115.025903	0.142564
1115.185104	0.145022
1115.344287	0.149383
1115.503452	0.150290
1115.662599	0.151825
1115.821727	0.160968
1115.980838	0.157185
1116.139930	0.155373
1116.299004	0.160425
1116.458059	0.160348
1116.617097	0.153881
1116.776116	0.157187
1116.935117	0.160428
1117.094099	0.164373
1117.253064	0.156759
1117.412010	0.163313
1117.570938	0.168422
1117.729848	0.169400
1117.888740	0.175088
1118.047613	0.183086
1118.206468	0.178082
1118.365305	0.170397
1118.524124	0.161526
1118.682924	0.168484
1118.841707	0.165723
1119.000471	0.158091
1119.159216	0.155244
1119.317944	0.149710
1119.476653	0.145794
1119.635344	0.150613
1119.794017	0.151936
1119.952672	0.157494
1120.111308	0.157770
1120.269927	0.161223
1120.428527	0.163796
1120.587108	0.155859
1120.745672	0.163670
1120.904217	0.169746
1121.062744	0.170400
1121.221253	0.172704
1121.379744	0.175655
1121.538216	0.165837
1121.696671	0.160458
1121.855107	0.158791
1122.013524	0.165748
1122.171924	0.158342
1122.330305	0.154730
1122.488668	0.151601
1122.647013	0.153130
1122.805340	0.144753
1122.963648	0.145925
1123.121938	0.148142
1123.280210	0.153628
1123.438464	0.155236
1123.596700	0.153494
1123.754917	0.148966
1123.913116	0.150579
1124.071297	0.149086
1124.229459	0.159309
1124.387604	0.164900
1124.545730	0.168655
1124.703838	0.162977
1124.861928	0.159304
1125.019999	0.156677
1125.178052	0.167167
1125.336088	0.160353
1125.494104	0.157991
1125.652103	0.152713
1125.810083	0.152517
1125.968045	0.157067
1126.125989	0.166836
1126.283915	0.170168
1126.441823	0.170595
1126.599712	0.162480
1126.757583	0.166295
1126.915436	0.169892
1127.073270	0.170756
1127.231087	0.164628
1127.388885	0.161682
1127.546665	0.157094
1127.704426	0.153376
1127.862170	0.158841
1128.019895	0.162166
1128.177602	0.167941
1128.335291	0.161652
1128.492961	0.155223
1128.650614	0.159310
1128.808248	0.157847
1128.965864	0.158678
1129.123461	0.158850
1129.281041	0.152722
1129.438602	0.142535
1129.596145	0.144512
1129.753670	0.147086
1129.911176	0.156180
1130.068665	0.158777
1130.226135	0.157521
1130.383587	0.155021
1130.541020	0.159502
1130.698436	0.159619
1130.855833	0.171900
1131.013212	0.169365
1131.170573	0.170450
1131.327915	0.166326
1131.485239	0.171020
1131.642545	0.173255
1131.799833	0.172687
1131.957103	0.180476
1132.114354	0.180485
1132.271588	0.178295
1132.428803	0.174036
1132.585999	0.177223
1132.743178	0.181390
1132.900338	0.177921
1133.057480	0.169443
1133.214604	0.169532
1133.371710	0.164649
1133.528797	0.168084
1133.685866	0.166190
1133.842917	0.167282
1133.999950	0.166672
1134.156964	0.161667
1134.313960	0.163852
1134.470938	0.175642
1134.627898	0.181931
1134.784840	0.172128
1134.941763	0.183936
1135.098668	0.186370
1135.255555	0.190116
1135.412424	0.185419
1135.569274	0.184332
1135.726107	0.181502
1135.882921	0.167955
1136.039716	0.167078
1136.196494	0.169208
1136.353253	0.163821
1136.509995	0.160086
1136.666717	0.158331
1136.823422	0.165289
1136.980109	0.166648
1137.136777	0.166251
1137.293427	0.168360
1137.450059	0.172037
1137.606672	0.173666
1137.763267	0.161766
1137.919844	0.167506
1138.076403	0.162458
1138.232944	0.151128
1138.389466	0.151517
1138.545971	0.142354
1138.702457	0.149476
1138.858924	0.140628
1139.015374	0.146767
1139.171805	0.156124
1139.328218	0.156246
1139.484613	0.156526
1139.640990	0.162967
1139.797348	0.161661
1139.953688	0.176020
1140.110010	0.170391
1140.266314	0.176360
1140.422600	0.171701
1140.578867	0.168919
1140.735116	0.163529
1140.891347	0.165553
1141.047559	0.166462
1141.203754	0.170248
1141.359930	0.158337
1141.516088	0.167385
1141.672228	0.164982
1141.828349	0.169409
1141.984452	0.167082
1142.140537	0.175227
1142.296604	0.179333
1142.452653	0.182837
1142.608683	0.191740
1142.764695	0.191663
1142.920689	0.192828
1143.076665	0.188158
1143.232622	0.176488
1143.388562	0.170174
1143.544483	0.158077
1143.700385	0.154043
1143.856270	0.147936
1144.012136	0.134332
1144.167985	0.136862
1144.323814	0.133796
1144.479626	0.138723
1144.635420	0.141023
1144.791195	0.151713
1144.946952	0.155799
1145.102691	0.149060
1145.258411	0.147864
1145.414113	0.161546
1145.569798	0.165560
1145.725463	0.161161
1145.881111	0.159828
1146.036741	0.175365
1146.192352	0.168843
1146.347945	0.171012
1146.503519	0.181057
1146.659076	0.185339
1146.814614	0.170371
1146.970134	0.166156
1147.125636	0.160001
1147.281120	0.155854
1147.436585	0.149589
1147.592032	0.161333
1147.747461	0.154927
1147.902872	0.151900
1148.058265	0.154441
1148.213639	0.150085
1148.368995	0.158471
1148.524333	0.178029
1148.679653	0.181080
1148.834954	0.182743
1148.990237	0.169350
1149.145502	0.181070
1149.300749	0.189291
1149.455977	0.178959
1149.611188	0.187359
1149.766380	0.194337
1149.921553	0.176190
1150.076709	0.171565
1150.231846	0.167159
1150.386966	0.173610
1150.542066	0.162504
1150.697149	0.164590
1150.852214	0.174717
1151.007260	0.170166
1151.162288	0.164354
1151.317298	0.168616
1151.472289	0.180848
1151.627263	0.173106
1151.782218	0.168971
1151.937155	0.172433
1152.092073	0.160853
1152.246974	0.162224
1152.401856	0.168670
1152.556720	0.167934
1152.711566	0.168055
1152.866393	0.157629
1153.021203	0.152614
1153.175994	0.150528
1153.330767	0.143166
1153.485521	0.151322
1153.640258	0.150086
1153.794976	0.146028
1153.949676	0.140057
1154.104358	0.137823
1154.259021	0.149549
1154.413667	0.155673
1154.568294	0.150659
1154.722903	0.159273
1154.877493	0.146147
1155.032066	0.141739
1155.186620	0.146851
1155.341156	0.145060
1155.495674	0.144263
1155.650173	0.136006
1155.804654	0.135361
1155.959118	0.136392
1156.113562	0.133339
1156.267989	0.134234
1156.422397	0.114252
1156.576788	0.112727
1156.731160	0.114615
1156.885513	0.109743
1157.039849	0.108097
1157.194166	0.101613
1157.348465	0.099663
1157.502746	0.109048
1157.657009	0.113846
1157.811253	0.133288
1157.965479	0.131396
1158.119687	0.132849
1158.273877	0.133717
1158.428048	0.128561
1158.582201	0.121430
1158.736337	0.115092
1158.890453	0.106303
1159.044552	0.098361
1159.198632	0.099446
1159.352694	0.086119
1159.506738	0.079660
1159.660764	0.082100
1159.814771	0.083923
1159.968761	0.090575
1160.122732	0.112035
1160.276685	0.106217
1160.430619	0.107026
1160.584535	0.098178
1160.738434	0.099526
1160.892313	0.116801
1161.046175	0.120413
1161.200019	0.123688
1161.353844	0.128540
1161.507651	0.121808
1161.661440	0.137421
1161.815210	0.138717
1161.968962	0.151202
1162.122697	0.153257
1162.276412	0.140309
1162.430110	0.140275
1162.583789	0.141200
1162.737451	0.151024
1162.891094	0.146908
1163.044718	0.150482
1163.198325	0.150772
1163.351913	0.149469
1163.505483	0.165259
1163.659035	0.159948
1163.812569	0.154633
1163.966084	0.161381
1164.119581	0.153985
1164.273060	0.157322
1164.426521	0.139367
1164.579964	0.139453
1164.733388	0.132993
1164.886794	0.134565
1165.040182	0.135267
1165.193551	0.122206
1165.346903	0.113293
1165.500236	0.115693
1165.653551	0.114230
1165.806848	0.110368
1165.960126	0.104822
1166.113386	0.104487
1166.266628	0.096767
1166.419852	0.087977
1166.573058	0.101826
1166.726245	0.122705
1166.879414	0.121836
1167.032565	0.104704
1167.185698	0.111957
1167.338812	0.117620
1167.491909	0.121228
1167.644987	0.119681
1167.798046	0.117807
1167.951088	0.117012
1168.104111	0.083548
1168.257117	0.079032
1168.410103	0.086968
1168.563072	0.089053
1168.716023	0.103119
1168.868955	0.107460
1169.021869	0.108736
1169.174765	0.114597
1169.327642	0.109952
1169.480501	0.128226
1169.633343	0.140492
1169.786165	0.151991
1169.938970	0.156626
1170.091757	0.142540
1170.244525	0.132010
1170.397275	0.122892
1170.550007	0.144547
1170.702720	0.146340
1170.855415	0.148254
1171.008092	0.148247
1171.160751	0.152244
1171.313392	0.151625
1171.466014	0.189038
1171.618619	0.196661
1171.771205	0.196661
1171.923772	0.196661
