sample name	sample
index	984
start time	 04-14-2021  03:27:23 PM


Wavelength (nm)	Absorbance
494.344910	0.032385
494.563924	0.032385
494.782919	0.032385
495.001897	0.072178
495.220856	0.029854
495.439797	0.027888
495.658719	0.018860
495.877624	0.005089
496.096510	-0.006455
496.315378	-0.006774
496.534227	0.019613
496.753059	-0.003394
496.971872	0.025489
497.190667	0.116696
497.409444	0.147128
497.628203	0.161667
497.846943	0.170892
498.065665	0.173460
498.284369	0.175192
498.503055	0.175731
498.721723	0.178530
498.940372	0.177740
499.159003	0.177922
499.377616	0.177591
499.596210	0.177588
499.814787	0.177484
500.033345	0.179755
500.251885	0.179067
500.470406	0.180676
500.688910	0.181164
500.907395	0.182546
501.125862	0.183722
501.344311	0.185409
501.562742	0.185645
501.781154	0.187194
501.999548	0.185699
502.217924	0.186396
502.436282	0.185981
502.654621	0.186343
502.872942	0.186968
503.091245	0.186385
503.309530	0.187139
503.527797	0.187566
503.746045	0.186402
503.964275	0.186980
504.182487	0.188207
504.400681	0.187566
504.618856	0.187767
504.837013	0.186577
505.055152	0.185535
505.273273	0.185530
505.491376	0.185964
505.709460	0.186653
505.927526	0.187538
506.145574	0.187008
506.363604	0.187555
506.581615	0.186419
506.799608	0.187509
507.017583	0.188968
507.235540	0.188714
507.453478	0.188953
507.671399	0.188642
507.889301	0.188181
508.107185	0.188191
508.325050	0.188668
508.542898	0.189960
508.760727	0.188975
508.978538	0.189065
509.196330	0.189635
509.414105	0.189632
509.631861	0.189438
509.849599	0.189335
510.067319	0.189776
510.285021	0.190074
510.502704	0.190362
510.720369	0.191783
510.938016	0.192550
511.155645	0.191722
511.373255	0.191440
511.590848	0.192723
511.808422	0.193766
512.025977	0.194655
512.243515	0.194415
512.461034	0.194187
512.678536	0.193836
512.896018	0.193824
513.113483	0.193860
513.330930	0.193402
513.548358	0.192976
513.765768	0.192615
513.983160	0.191732
514.200533	0.192012
514.417889	0.191895
514.635226	0.191893
514.852545	0.192113
515.069845	0.193493
515.287128	0.194593
515.504392	0.195108
515.721638	0.195766
515.938866	0.197318
516.156075	0.197635
516.373267	0.198334
516.590440	0.199206
516.807594	0.198720
517.024731	0.198306
517.241850	0.198886
517.458950	0.198967
517.676032	0.198869
517.893095	0.197916
518.110141	0.198335
518.327168	0.198662
518.544177	0.199291
518.761168	0.200092
518.978141	0.200143
519.195095	0.200550
519.412031	0.201398
519.628949	0.201996
519.845849	0.202623
520.062731	0.202374
520.279594	0.202885
520.496439	0.202425
520.713266	0.202614
520.930074	0.203618
521.146865	0.203829
521.363637	0.204056
521.580391	0.204424
521.797127	0.204956
522.013844	0.205324
522.230543	0.206061
522.447224	0.206923
522.663887	0.207590
522.880532	0.207221
523.097158	0.207088
523.313766	0.207314
523.530356	0.208190
523.746928	0.207171
523.963481	0.208696
524.180017	0.208604
524.396534	0.208953
524.613032	0.209585
524.829513	0.210223
525.045975	0.211087
525.262420	0.211107
525.478845	0.210855
525.695253	0.212542
525.911643	0.212867
526.128014	0.213096
526.344367	0.213522
526.560702	0.213330
526.777018	0.214490
526.993316	0.214663
527.209597	0.214681
527.425858	0.215430
527.642102	0.215977
527.858328	0.215037
528.074535	0.215722
528.290724	0.216401
528.506894	0.216509
528.723047	0.217092
528.939181	0.217697
529.155297	0.218328
529.371395	0.217782
529.587475	0.217720
529.803536	0.218384
530.019579	0.217348
530.235604	0.217423
530.451611	0.218046
530.667600	0.217314
530.883570	0.217435
531.099522	0.217417
531.315456	0.218244
531.531372	0.219010
531.747269	0.219538
531.963148	0.221154
532.179009	0.221829
532.394852	0.223180
532.610676	0.224305
532.826482	0.224692
533.042271	0.224852
533.258040	0.225394
533.473792	0.225677
533.689525	0.225905
533.905240	0.225769
534.120937	0.225471
534.336616	0.225223
534.552277	0.225396
534.767919	0.225449
534.983543	0.226622
535.199149	0.226455
535.414736	0.226701
535.630306	0.227357
535.845857	0.228021
536.061390	0.228497
536.276904	0.228518
536.492401	0.228881
536.707879	0.229460
536.923339	0.229610
537.138781	0.230672
537.354204	0.230278
537.569610	0.230663
537.784997	0.231473
538.000366	0.231842
538.215716	0.232237
538.431049	0.231822
538.646363	0.232964
538.861659	0.233232
539.076937	0.233216
539.292196	0.233856
539.507438	0.233908
539.722661	0.233787
539.937866	0.234064
540.153052	0.234638
540.368221	0.235623
540.583371	0.234512
540.798503	0.235203
541.013617	0.235266
541.228712	0.235812
541.443789	0.236295
541.658848	0.236652
541.873889	0.237202
542.088912	0.237853
542.303916	0.238368
542.518902	0.239846
542.733870	0.240016
542.948820	0.240706
543.163752	0.241063
543.378665	0.241608
543.593560	0.242674
543.808437	0.242538
544.023295	0.242394
544.238136	0.242764
544.452958	0.242611
544.667762	0.242944
544.882548	0.243089
545.097315	0.243145
545.312064	0.243397
545.526795	0.243063
545.741508	0.243618
545.956203	0.244172
546.170879	0.244069
546.385537	0.244580
546.600177	0.245163
546.814799	0.245403
547.029402	0.246388
547.243988	0.246481
547.458555	0.246782
547.673103	0.247385
547.887634	0.247898
548.102146	0.248149
548.316640	0.248530
548.531116	0.248413
548.745574	0.248921
548.960013	0.249010
549.174435	0.249391
549.388838	0.249407
549.603222	0.249569
549.817589	0.249375
550.031937	0.249731
550.246267	0.250052
550.460579	0.250407
550.674873	0.250809
550.889148	0.251388
551.103405	0.251955
551.317644	0.252413
551.531865	0.253080
551.746068	0.253703
551.960252	0.253553
552.174418	0.253595
552.388566	0.253906
552.602696	0.253676
552.816807	0.253711
553.030900	0.254113
553.244975	0.254699
553.459032	0.254629
553.673070	0.254399
553.887091	0.255226
554.101093	0.255621
554.315077	0.255493
554.529042	0.255821
554.742990	0.256006
554.956919	0.255794
555.170830	0.255755
555.384722	0.256007
555.598597	0.256438
555.812453	0.257260
556.026291	0.257565
556.240111	0.257938
556.453913	0.258661
556.667696	0.258674
556.881461	0.259192
557.095208	0.259432
557.308937	0.259523
557.522647	0.259887
557.736339	0.259749
557.950013	0.259916
558.163669	0.260021
558.377307	0.260245
558.590926	0.260345
558.804527	0.260391
559.018110	0.260386
559.231675	0.260279
559.445221	0.260202
559.658749	0.259826
559.872259	0.259631
560.085751	0.259808
560.299225	0.260314
560.512680	0.260813
560.726117	0.261662
560.939536	0.261691
561.152937	0.262037
561.366319	0.262677
561.579683	0.262920
561.793029	0.263584
562.006357	0.264198
562.219667	0.264103
562.432958	0.264126
562.646231	0.263886
562.859486	0.264520
563.072723	0.265001
563.285941	0.265154
563.499141	0.266138
563.712323	0.266077
563.925487	0.266388
564.138632	0.266355
564.351760	0.266894
564.564869	0.266742
564.777960	0.266731
564.991032	0.266596
565.204087	0.266357
565.417123	0.265926
565.630141	0.266355
565.843140	0.266131
566.056122	0.266313
566.269085	0.266507
566.482030	0.266851
566.694957	0.267304
566.907866	0.267684
567.120756	0.267898
567.333628	0.268268
567.546482	0.268344
567.759318	0.268971
567.972135	0.269298
568.184935	0.269492
568.397716	0.270104
568.610478	0.270494
568.823223	0.270930
569.035949	0.271347
569.248657	0.271442
569.461347	0.272076
569.674019	0.271968
569.886672	0.271872
570.099308	0.271774
570.311925	0.271654
570.524523	0.271531
570.737104	0.271409
570.949666	0.271080
571.162210	0.271387
571.374736	0.270938
571.587244	0.271354
571.799733	0.271787
572.012205	0.272353
572.224658	0.272348
572.437092	0.272501
572.649509	0.272753
572.861907	0.273750
573.074287	0.273989
573.286649	0.274621
573.498993	0.275061
573.711318	0.275026
573.923625	0.275010
574.135914	0.275298
574.348185	0.275314
574.560438	0.275735
574.772672	0.275810
574.984888	0.275386
575.197086	0.275205
575.409266	0.275020
575.621427	0.275710
575.833570	0.275945
576.045695	0.276698
576.257802	0.277108
576.469890	0.277105
576.681961	0.276876
576.894013	0.277850
577.106046	0.278373
577.318062	0.278429
577.530059	0.278254
577.742039	0.278227
577.954000	0.277713
578.165942	0.278091
578.377867	0.278214
578.589773	0.278013
578.801661	0.278089
579.013531	0.278027
579.225382	0.278367
579.437216	0.278681
579.649031	0.279054
579.860828	0.279229
580.072606	0.279226
580.284367	0.279396
580.496109	0.280427
580.707833	0.280435
580.919539	0.280625
581.131227	0.280808
581.342896	0.280635
581.554547	0.281233
581.766180	0.281784
581.977795	0.282081
582.189391	0.282280
582.400969	0.281881
582.612529	0.282027
582.824071	0.282408
583.035595	0.282430
583.247100	0.283057
583.458587	0.282871
583.670056	0.282645
583.881506	0.282561
584.092939	0.282879
584.304353	0.283065
584.515749	0.283575
584.727127	0.283345
584.938486	0.284000
585.149828	0.284077
585.361151	0.284027
585.572456	0.284304
585.783742	0.284953
585.995011	0.285180
586.206261	0.285730
586.417493	0.285484
586.628706	0.285777
586.839902	0.285901
587.051079	0.285589
587.262238	0.285884
587.473379	0.285971
587.684502	0.286027
587.895606	0.285842
588.106692	0.286238
588.317760	0.286636
588.528810	0.286833
588.739841	0.287229
588.950855	0.287901
589.161850	0.287944
589.372827	0.288509
589.583785	0.288581
589.794726	0.289240
590.005648	0.289240
590.216552	0.289463
590.427437	0.289637
590.638305	0.289121
590.849154	0.289301
591.059985	0.289004
591.270798	0.288879
591.481592	0.288974
591.692369	0.289261
591.903127	0.289577
592.113867	0.289585
592.324588	0.290180
592.535292	0.290611
592.745977	0.290889
592.956644	0.291878
593.167293	0.292147
593.377923	0.292564
593.588536	0.292688
593.799130	0.292517
594.009706	0.292976
594.220263	0.292967
594.430803	0.293369
594.641324	0.293248
594.851827	0.293175
595.062312	0.293222
595.272778	0.293264
595.483227	0.293403
595.693657	0.293941
595.904069	0.294023
596.114462	0.294200
596.324838	0.294022
596.535195	0.294076
596.745534	0.294586
596.955855	0.295105
597.166157	0.295263
597.376441	0.295609
597.586707	0.295987
597.796955	0.296367
598.007185	0.296457
598.217396	0.296785
598.427589	0.297370
598.637764	0.297156
598.847921	0.297253
599.058060	0.297612
599.268180	0.297419
599.478282	0.297075
599.688366	0.296631
599.898431	0.296782
600.108479	0.296753
600.318508	0.296642
600.528519	0.296642
600.738511	0.296677
600.948486	0.296287
601.158442	0.296545
601.368380	0.296839
601.578300	0.297465
601.788202	0.297308
601.998085	0.297675
602.207950	0.297618
602.417797	0.297573
602.627626	0.297683
602.837436	0.298055
603.047228	0.298346
603.257002	0.298593
603.466758	0.298565
603.676496	0.299180
603.886215	0.299278
604.095916	0.299886
604.305599	0.300427
604.515264	0.300773
604.724910	0.301068
604.934538	0.301171
605.144148	0.301081
605.353740	0.301410
605.563314	0.301383
605.772869	0.301662
605.982406	0.301751
606.191925	0.302356
606.401425	0.302623
606.610908	0.302787
606.820372	0.302618
607.029818	0.302998
607.239246	0.302856
607.448655	0.303277
607.658047	0.303020
607.867420	0.303022
608.076775	0.302717
608.286111	0.302993
608.495430	0.303287
608.704730	0.303671
608.914012	0.303861
609.123275	0.304057
609.332521	0.304053
609.541748	0.304659
609.750957	0.305009
609.960148	0.305260
610.169321	0.305163
610.378475	0.305563
610.587611	0.305852
610.796729	0.305783
611.005829	0.305985
611.214910	0.306406
611.423974	0.306446
611.633019	0.306280
611.842045	0.306464
612.051054	0.306617
612.260044	0.306382
612.469017	0.306449
612.677970	0.306594
612.886906	0.306845
613.095824	0.306579
613.304723	0.306740
613.513604	0.307330
613.722467	0.307594
613.931311	0.307581
614.140138	0.307692
614.348946	0.307660
614.557736	0.307648
614.766507	0.307937
614.975261	0.308275
615.183996	0.308405
615.392713	0.308565
615.601412	0.308540
615.810092	0.308641
616.018754	0.308629
616.227399	0.309164
616.436024	0.309459
616.644632	0.309473
616.853222	0.309942
617.061793	0.310245
617.270346	0.310242
617.478880	0.310706
617.687397	0.310995
617.895895	0.311348
618.104375	0.311330
618.312837	0.311645
618.521281	0.311775
618.729706	0.311209
618.938113	0.311250
619.146502	0.311331
619.354873	0.311128
619.563226	0.311320
619.771560	0.311569
619.979876	0.311759
620.188174	0.312151
620.396453	0.312314
620.604715	0.312793
620.812958	0.312930
621.021183	0.313135
621.229390	0.313452
621.437578	0.313580
621.645748	0.313430
621.853900	0.313715
622.062034	0.313677
622.270150	0.313894
622.478247	0.314010
622.686326	0.314179
622.894387	0.314353
623.102430	0.314487
623.310454	0.314941
623.518461	0.315435
623.726449	0.315548
623.934418	0.315497
624.142370	0.315553
624.350303	0.315683
624.558218	0.316037
624.766115	0.316339
624.973994	0.316489
625.181855	0.316316
625.389697	0.316324
625.597521	0.316387
625.805327	0.316829
626.013114	0.317057
626.220883	0.317045
626.428634	0.317015
626.636367	0.317079
626.844082	0.317369
627.051778	0.317755
627.259457	0.317724
627.467117	0.317954
627.674758	0.318030
627.882382	0.318260
628.089987	0.318802
628.297574	0.319322
628.505143	0.319557
628.712694	0.319581
628.920226	0.319613
629.127740	0.319883
629.335236	0.319748
629.542714	0.319711
629.750174	0.320067
629.957615	0.320242
630.165038	0.320393
630.372443	0.320325
630.579829	0.320899
630.787198	0.321492
630.994548	0.321889
631.201880	0.322220
631.409194	0.322722
631.616489	0.322633
631.823766	0.322547
632.031025	0.322824
632.238266	0.322969
632.445489	0.322726
632.652693	0.322517
632.859879	0.322635
633.067047	0.323097
633.274197	0.323197
633.481329	0.323432
633.688442	0.323909
633.895537	0.323728
634.102614	0.323884
634.309672	0.324279
634.516713	0.324547
634.723735	0.324693
634.930739	0.324532
635.137724	0.324177
635.344692	0.324313
635.551641	0.324499
635.758572	0.324667
635.965485	0.324887
636.172379	0.325079
636.379256	0.324974
636.586114	0.325261
636.792954	0.325425
636.999775	0.326320
637.206579	0.326534
637.413364	0.326576
637.620131	0.326501
637.826880	0.326944
638.033610	0.326865
638.240323	0.327074
638.447017	0.327234
638.653692	0.327359
638.860350	0.327500
639.066990	0.327708
639.273611	0.328067
639.480214	0.328377
639.686798	0.328608
639.893365	0.329069
640.099913	0.329593
640.306443	0.329976
640.512955	0.330308
640.719449	0.330420
640.925924	0.330740
641.132381	0.330967
641.338820	0.331381
641.545241	0.331343
641.751644	0.331565
641.958028	0.331802
642.164394	0.331697
642.370742	0.332174
642.577071	0.332253
642.783383	0.332142
642.989676	0.332408
643.195951	0.332606
643.402207	0.333109
643.608446	0.333176
643.814666	0.332821
644.020868	0.333456
644.227052	0.333440
644.433218	0.333747
644.639365	0.334283
644.845494	0.334405
645.051605	0.334528
645.257698	0.334415
645.463772	0.334550
645.669828	0.335038
645.875866	0.334832
646.081886	0.335147
646.287888	0.335294
646.493871	0.335637
646.699836	0.335895
646.905783	0.336059
647.111712	0.336118
647.317622	0.336222
647.523514	0.336462
647.729388	0.336787
647.935244	0.336938
648.141082	0.337347
648.346901	0.337212
648.552702	0.337034
648.758485	0.337353
648.964250	0.337791
649.169996	0.338059
649.375724	0.338081
649.581434	0.338301
649.787126	0.338626
649.992800	0.338637
650.198455	0.338954
650.404092	0.339213
650.609711	0.339273
650.815311	0.339384
651.020894	0.339694
651.226458	0.340213
651.432004	0.340627
651.637532	0.340891
651.843041	0.341311
652.048532	0.341540
652.254006	0.341823
652.459460	0.342008
652.664897	0.342580
652.870315	0.342735
653.075716	0.343253
653.281097	0.343470
653.486461	0.343752
653.691807	0.344036
653.897134	0.344537
654.102443	0.344957
654.307734	0.345276
654.513006	0.345004
654.718261	0.345384
654.923497	0.345169
655.128715	0.345290
655.333915	0.345192
655.539096	0.345279
655.744259	0.345030
655.949404	0.345064
656.154531	0.345198
656.359640	0.345829
656.564730	0.345978
656.769802	0.346385
656.974856	0.346573
657.179892	0.347010
657.384909	0.347164
657.589908	0.347367
657.794889	0.347834
657.999852	0.348273
658.204797	0.348563
658.409723	0.348701
658.614631	0.348844
658.819521	0.349162
659.024393	0.349265
659.229246	0.349648
659.434081	0.350018
659.638898	0.350229
659.843697	0.350421
660.048478	0.350699
660.253240	0.350871
660.457984	0.351151
660.662710	0.350845
660.867417	0.350951
661.072107	0.351148
661.276778	0.351402
661.481431	0.351283
661.686066	0.351312
661.890682	0.351210
662.095281	0.351597
662.299861	0.351958
662.504422	0.352573
662.708966	0.353136
662.913491	0.353186
663.117999	0.353347
663.322488	0.354006
663.526958	0.354403
663.731411	0.354681
663.935845	0.354910
664.140261	0.354946
664.344659	0.355236
664.549038	0.355036
664.753400	0.355302
664.957743	0.355620
665.162068	0.355503
665.366375	0.355894
665.570663	0.356424
665.774933	0.356684
665.979185	0.357026
666.183419	0.357293
666.387635	0.357774
666.591832	0.358388
666.796011	0.358873
667.000172	0.359361
667.204315	0.359548
667.408439	0.359686
667.612545	0.360061
667.816634	0.360306
668.020703	0.360560
668.224755	0.361078
668.428788	0.360893
668.632803	0.361028
668.836800	0.361267
669.040779	0.361469
669.244739	0.361667
669.448681	0.361891
669.652605	0.361951
669.856511	0.362572
670.060399	0.362685
670.264268	0.363011
670.468119	0.362925
670.671952	0.363223
670.875767	0.363223
671.079563	0.363535
671.283341	0.363677
671.487101	0.364061
671.690843	0.363705
671.894567	0.363722
672.098272	0.364257
672.301959	0.364828
672.505628	0.365257
672.709278	0.365872
672.912911	0.366195
673.116525	0.366726
673.320121	0.366962
673.523699	0.367414
673.727258	0.367816
673.930799	0.368002
674.134322	0.368183
674.337827	0.368105
674.541314	0.368271
674.744782	0.368423
674.948232	0.368480
675.151664	0.368751
675.355078	0.368760
675.558474	0.369061
675.761851	0.369099
675.965210	0.369208
676.168551	0.369024
676.371873	0.369224
676.575178	0.369268
676.778464	0.369508
676.981732	0.369679
677.184981	0.370100
677.388213	0.370300
677.591426	0.370631
677.794621	0.370953
677.997798	0.371747
678.200956	0.371807
678.404097	0.372343
678.607219	0.372386
678.810323	0.372790
679.013408	0.372769
679.216476	0.372909
679.419525	0.373094
679.622556	0.373445
679.825569	0.373719
680.028563	0.374246
680.231540	0.374250
680.434498	0.374687
680.637438	0.374723
680.840359	0.375149
681.043263	0.375545
681.246148	0.375924
681.449015	0.376238
681.651864	0.376385
681.854694	0.376446
682.057506	0.376922
682.260301	0.377096
682.463076	0.377507
682.665834	0.378048
682.868573	0.378231
683.071295	0.378188
683.273998	0.378345
683.476682	0.378549
683.679349	0.378667
683.881997	0.378762
684.084627	0.379127
684.287239	0.379030
684.489833	0.378888
684.692408	0.379184
684.894965	0.379665
685.097504	0.380049
685.300025	0.380249
685.502527	0.380644
685.705012	0.381000
685.907478	0.381297
686.109925	0.381871
686.312355	0.382252
686.514766	0.382241
686.717159	0.382622
686.919534	0.382706
687.121891	0.382651
687.324230	0.383090
687.526550	0.383315
687.728852	0.383390
687.931136	0.383729
688.133401	0.384034
688.335649	0.384455
688.537878	0.384478
688.740089	0.384762
688.942281	0.385199
689.144456	0.385208
689.346612	0.385307
689.548750	0.385416
689.750870	0.385410
689.952971	0.385453
690.155055	0.385458
690.357120	0.385655
690.559167	0.385686
690.761195	0.386263
690.963206	0.386312
691.165198	0.386550
691.367172	0.386803
691.569128	0.386866
691.771065	0.387242
691.972984	0.387589
692.174885	0.387951
692.376768	0.388256
692.578633	0.388328
692.780479	0.388780
692.982308	0.389071
693.184118	0.389359
693.385909	0.389633
693.587683	0.389917
693.789438	0.390132
693.991175	0.389897
694.192894	0.390228
694.394595	0.390227
694.596277	0.390283
694.797941	0.390249
694.999587	0.390195
695.201215	0.390260
695.402824	0.390274
695.604416	0.390462
695.805989	0.390857
696.007543	0.390723
696.209080	0.390618
696.410598	0.390732
696.612099	0.391017
696.813580	0.390890
697.015044	0.391255
697.216490	0.391332
697.417917	0.391369
697.619326	0.391200
697.820717	0.391111
698.022089	0.391524
698.223444	0.391917
698.424780	0.392016
698.626098	0.392466
698.827397	0.392572
699.028679	0.392714
699.229942	0.392661
699.431187	0.393073
699.632414	0.393651
699.833622	0.393707
700.034813	0.393653
700.235985	0.393472
700.437139	0.394050
700.638274	0.394093
700.839392	0.394221
701.040491	0.394455
701.241572	0.394638
701.442635	0.394545
701.643679	0.394682
701.844706	0.394910
702.045714	0.395258
702.246704	0.395028
702.447675	0.395104
702.648629	0.395363
702.849564	0.395408
703.050481	0.395277
703.251380	0.395343
703.452260	0.395473
703.653122	0.395505
703.853966	0.395436
704.054792	0.395469
704.255600	0.395541
704.456389	0.395500
704.657160	0.395482
704.857913	0.395769
705.058648	0.395965
705.259365	0.395889
705.460063	0.395772
705.660743	0.395952
705.861405	0.395868
706.062048	0.395876
706.262674	0.395745
706.463281	0.396073
706.663870	0.396004
706.864441	0.395968
707.064993	0.395966
707.265527	0.396033
707.466043	0.396035
707.666541	0.395888
707.867021	0.396083
708.067482	0.396340
708.267925	0.396363
708.468350	0.396593
708.668757	0.396684
708.869145	0.397069
709.069516	0.397106
709.269868	0.397236
709.470201	0.397575
709.670517	0.397745
709.870814	0.397615
710.071093	0.397829
710.271354	0.397740
710.471597	0.397767
710.671821	0.397796
710.872028	0.397504
711.072216	0.397408
711.272385	0.397428
711.472537	0.397598
711.672670	0.397626
711.872785	0.397179
712.072882	0.396956
712.272961	0.396774
712.473021	0.396354
712.673063	0.396365
712.873087	0.396315
713.073093	0.396448
713.273081	0.396138
713.473050	0.395942
713.673001	0.395907
713.872934	0.395755
714.072849	0.395698
714.272745	0.395638
714.472623	0.395699
714.672483	0.395697
714.872325	0.395507
715.072148	0.395199
715.271954	0.395378
715.471741	0.395482
715.671509	0.395695
715.871260	0.395737
716.070992	0.395835
716.270707	0.395875
716.470403	0.395931
716.670080	0.395529
716.869740	0.395378
717.069381	0.395119
717.269004	0.394993
717.468609	0.394953
717.668195	0.394871
717.867764	0.394912
718.067314	0.394729
718.266846	0.394506
718.466360	0.394626
718.665855	0.394767
718.865332	0.394743
719.064791	0.394732
719.264232	0.394368
719.463655	0.394162
719.663059	0.394072
719.862445	0.394149
720.061813	0.394048
720.261163	0.393870
720.460494	0.393876
720.659807	0.393735
720.859102	0.393805
721.058379	0.394038
721.257638	0.394340
721.456878	0.394260
721.656100	0.394235
721.855304	0.394391
722.054490	0.394579
722.253657	0.394539
722.452806	0.394577
722.651937	0.394502
722.851050	0.394549
723.050145	0.394045
723.249221	0.393960
723.448279	0.393730
723.647319	0.393360
723.846340	0.393058
724.045344	0.392711
724.244329	0.392368
724.443296	0.391964
724.642245	0.391266
724.841175	0.391080
725.040088	0.390729
725.238982	0.390788
725.437857	0.390677
725.636715	0.390554
725.835554	0.390539
726.034376	0.390643
726.233179	0.390750
726.431963	0.390962
726.630730	0.391265
726.829478	0.391175
727.028208	0.390765
727.226920	0.390767
727.425614	0.390844
727.624289	0.390643
727.822946	0.390397
728.021585	0.390145
728.220206	0.389859
728.418808	0.389450
728.617392	0.389518
728.815958	0.389491
729.014506	0.389185
729.213036	0.388824
729.411547	0.388537
729.610040	0.388493
729.808515	0.388515
730.006972	0.388463
730.205410	0.388100
730.403831	0.387876
730.602233	0.387820
730.800616	0.387572
730.998982	0.387464
731.197329	0.387319
731.395658	0.386861
731.593969	0.386558
731.792262	0.385984
731.990536	0.386046
732.188793	0.385703
732.387031	0.385206
732.585250	0.385022
732.783452	0.384622
732.981635	0.384542
733.179800	0.384482
733.377947	0.384324
733.576076	0.384096
733.774186	0.383739
733.972278	0.383578
734.170352	0.383697
734.368408	0.383322
734.566446	0.383278
734.764465	0.382863
734.962466	0.382855
735.160449	0.382575
735.358413	0.382721
735.556360	0.382573
735.754288	0.382419
735.952198	0.382009
736.150090	0.382474
736.347963	0.381956
736.545818	0.381756
736.743655	0.381418
736.941474	0.381200
737.139275	0.380822
737.337057	0.380623
737.534821	0.380147
737.732567	0.379846
737.930295	0.378903
738.128005	0.378969
738.325696	0.378625
738.523369	0.378371
738.721024	0.377933
738.918660	0.377835
739.116279	0.377589
739.313879	0.377222
739.511461	0.376984
739.709024	0.377011
739.906570	0.376468
740.104097	0.376517
740.301606	0.376238
740.499097	0.375913
740.696569	0.375652
740.894024	0.375130
741.091460	0.375140
741.288878	0.374853
741.486277	0.374295
741.683659	0.374063
741.881022	0.373862
742.078367	0.373652
742.275694	0.373478
742.473002	0.373459
742.670293	0.373383
742.867565	0.373120
743.064819	0.373049
743.262054	0.373215
743.459272	0.373037
743.656471	0.372657
743.853652	0.372263
744.050815	0.372063
744.247959	0.371558
744.445085	0.371345
744.642194	0.371001
744.839283	0.370471
745.036355	0.370018
745.233408	0.369641
745.430444	0.369422
745.627461	0.369179
745.824459	0.368795
746.021440	0.368518
746.218402	0.368126
746.415346	0.367781
746.612272	0.367665
746.809180	0.367517
747.006069	0.367198
747.202940	0.366776
747.399793	0.366751
747.596628	0.366388
747.793444	0.366094
747.990243	0.365861
748.187023	0.365633
748.383784	0.365371
748.580528	0.364880
748.777253	0.364856
748.973960	0.364696
749.170649	0.364268
749.367320	0.364091
749.563973	0.364002
749.760607	0.363778
749.957223	0.363609
750.153821	0.363273
750.350400	0.363353
750.546962	0.363104
750.743505	0.362894
750.940030	0.362575
751.136536	0.362514
751.333025	0.362337
751.529495	0.362279
751.725947	0.362125
751.922381	0.362075
752.118796	0.361785
752.315194	0.361520
752.511573	0.361470
752.707934	0.361524
752.904276	0.361272
753.100601	0.361077
753.296907	0.360897
753.493195	0.360772
753.689465	0.360470
753.885716	0.360526
754.081949	0.360575
754.278164	0.360120
754.474361	0.359850
754.670540	0.359307
754.866700	0.358872
755.062843	0.358544
755.258967	0.358300
755.455072	0.358208
755.651160	0.357658
755.847229	0.357600
756.043280	0.357556
756.239313	0.357436
756.435328	0.357562
756.631324	0.357618
756.827302	0.357436
757.023262	0.357388
757.219204	0.356825
757.415127	0.356500
757.611033	0.355995
757.806920	0.355953
758.002788	0.355584
758.198639	0.355543
758.394471	0.354919
758.590286	0.354800
758.786081	0.354552
758.981859	0.354753
759.177619	0.354753
759.373360	0.354251
759.569083	0.353913
759.764788	0.353640
759.960474	0.353468
760.156143	0.353416
760.351793	0.353303
760.547425	0.353016
760.743038	0.352795
760.938634	0.352461
761.134211	0.352509
761.329770	0.352403
761.525311	0.352305
761.720833	0.351788
761.916338	0.351798
762.111824	0.351641
762.307292	0.351606
762.502741	0.351181
762.698173	0.351297
762.893586	0.351136
763.088981	0.350906
763.284358	0.350756
763.479716	0.350796
763.675057	0.350486
763.870379	0.349986
764.065683	0.349645
764.260968	0.350099
764.456236	0.349859
764.651485	0.349776
764.846716	0.349389
765.041929	0.349184
765.237123	0.348921
765.432299	0.348953
765.627457	0.348865
765.822597	0.348742
766.017719	0.348068
766.212822	0.347606
766.407907	0.347651
766.602974	0.347510
766.798023	0.347580
766.993054	0.347218
767.188066	0.346962
767.383060	0.347106
767.578036	0.347168
767.772993	0.347500
767.967933	0.347499
768.162854	0.347559
768.357757	0.347474
768.552642	0.347234
768.747508	0.347559
768.942356	0.347664
769.137186	0.347519
769.331998	0.347185
769.526792	0.346944
769.721567	0.347238
769.916324	0.346907
770.111063	0.347133
770.305784	0.347059
770.500486	0.346931
770.695171	0.346531
770.889837	0.346162
771.084484	0.346242
771.279114	0.345828
771.473725	0.345390
771.668318	0.345346
771.862893	0.344907
772.057450	0.344600
772.251988	0.344570
772.446509	0.344543
772.641011	0.344810
772.835494	0.344671
773.029960	0.344732
773.224407	0.344763
773.418836	0.344673
773.613247	0.344743
773.807640	0.344618
774.002014	0.344114
774.196370	0.344004
774.390708	0.343735
774.585028	0.343550
774.779330	0.343675
774.973613	0.343472
775.167878	0.343465
775.362125	0.343322
775.556354	0.343593
775.750564	0.343867
775.944756	0.343968
776.138930	0.343786
776.333086	0.343512
776.527223	0.343204
776.721343	0.343047
776.915444	0.342869
777.109526	0.342952
777.303591	0.342804
777.497637	0.342871
777.691666	0.342890
777.885676	0.342843
778.079667	0.343103
778.273641	0.342871
778.467596	0.343257
778.661533	0.343020
778.855452	0.342725
779.049352	0.342711
779.243235	0.342696
779.437099	0.342588
779.630945	0.342987
779.824773	0.343236
780.018582	0.343446
780.212373	0.343187
780.406146	0.343482
780.599901	0.343693
780.793638	0.343907
780.987356	0.343888
781.181056	0.344202
781.374738	0.343920
781.568402	0.343835
781.762047	0.344144
781.955674	0.344306
782.149283	0.344466
782.342874	0.344802
782.536447	0.344677
782.730001	0.344840
782.923537	0.344901
783.117055	0.345031
783.310555	0.345013
783.504036	0.345040
783.697499	0.345223
783.890944	0.345190
784.084371	0.345158
784.277780	0.345138
784.471170	0.344907
784.664542	0.344737
784.857896	0.344726
785.051231	0.344609
785.244549	0.344683
785.437848	0.344666
785.631129	0.344386
785.824392	0.344481
786.017636	0.344655
786.210863	0.344750
786.404071	0.344545
786.597260	0.344851
786.790432	0.345154
786.983585	0.344909
787.176721	0.344828
787.369838	0.345296
787.562936	0.345315
787.756017	0.345326
787.949079	0.345601
788.142123	0.346126
788.335149	0.346058
788.528156	0.346058
788.721146	0.346413
788.914117	0.346609
789.107070	0.346659
789.300005	0.346656
789.492921	0.346882
789.685819	0.346981
789.878699	0.347136
790.071561	0.347430
790.264405	0.347782
790.457230	0.347974
790.650037	0.348456
790.842826	0.348552
791.035597	0.349011
791.228349	0.349286
791.421084	0.349696
791.613800	0.349671
791.806497	0.349909
791.999177	0.350065
792.191838	0.350269
792.384481	0.350325
792.577106	0.350757
792.769713	0.350621
792.962301	0.350891
793.154871	0.350916
793.347423	0.351145
793.539957	0.351488
793.732473	0.351971
793.924970	0.352262
794.117449	0.352299
794.309910	0.352454
794.502353	0.352757
794.694777	0.352697
794.887183	0.352862
795.079571	0.353303
795.271941	0.353353
795.464293	0.353238
795.656626	0.353327
795.848941	0.353345
796.041238	0.353282
796.233516	0.353518
796.425777	0.353769
796.618019	0.353917
796.810243	0.353866
797.002449	0.353998
797.194636	0.353935
797.386805	0.354110
797.578956	0.354611
797.771089	0.355076
797.963204	0.355155
798.155300	0.355365
798.347378	0.355432
798.539438	0.355584
798.731480	0.355939
798.923503	0.355729
799.115509	0.355937
799.307496	0.356026
799.499465	0.356277
799.691415	0.356562
799.883348	0.356960
800.075262	0.357351
800.267158	0.357776
800.459035	0.357860
800.650895	0.358621
800.842736	0.358865
801.034559	0.359371
801.226364	0.359457
801.418150	0.359989
801.609919	0.360260
801.801669	0.360604
801.993401	0.360856
802.185114	0.361236
802.376810	0.361538
802.568487	0.361895
802.760146	0.361961
802.951787	0.362398
803.143409	0.362434
803.335014	0.362695
803.526600	0.363170
803.718168	0.363478
803.909717	0.363677
804.101249	0.363820
804.292762	0.363938
804.484257	0.364316
804.675734	0.364739
804.867192	0.364924
805.058632	0.365068
805.250054	0.365268
805.441458	0.365641
805.632844	0.366046
805.824211	0.366624
806.015561	0.367036
806.206891	0.367383
806.398204	0.367544
806.589499	0.368046
806.780775	0.368426
806.972033	0.368679
807.163273	0.369136
807.354495	0.369366
807.545698	0.369843
807.736883	0.370151
807.928050	0.370642
808.119199	0.370811
808.310329	0.371427
808.501441	0.371852
808.692535	0.372520
808.883611	0.372735
809.074669	0.373512
809.265708	0.374073
809.456729	0.374469
809.647732	0.374423
809.838717	0.374997
810.029683	0.375028
810.220632	0.375568
810.411562	0.375825
810.602474	0.376192
810.793367	0.376290
810.984242	0.376380
811.175100	0.376970
811.365938	0.377628
811.556759	0.377791
811.747562	0.378549
811.938346	0.378800
812.129112	0.378979
812.319860	0.379290
812.510589	0.379675
812.701300	0.379970
812.891994	0.380444
813.082668	0.380910
813.273325	0.381643
813.463964	0.381963
813.654584	0.382271
813.845186	0.382603
814.035769	0.382967
814.226335	0.383378
814.416882	0.383969
814.607411	0.384176
814.797922	0.384697
814.988415	0.385303
815.178889	0.385404
815.369345	0.385964
815.559783	0.386509
815.750203	0.386660
815.940605	0.386742
816.130988	0.387056
816.321353	0.387578
816.511700	0.388091
816.702028	0.387977
816.892339	0.388520
817.082631	0.388783
817.272905	0.389468
817.463161	0.390111
817.653398	0.390767
817.843617	0.391027
818.033819	0.391341
818.224001	0.391656
818.414166	0.392150
818.604312	0.392827
818.794440	0.393495
818.984550	0.393330
819.174642	0.394452
819.364716	0.394908
819.554771	0.395408
819.744808	0.395992
819.934827	0.396061
820.124827	0.396323
820.314810	0.396708
820.504774	0.397050
820.694720	0.398124
820.884647	0.397930
821.074557	0.398992
821.264448	0.399814
821.454321	0.400791
821.644176	0.401509
821.834012	0.402623
822.023831	0.403042
822.213631	0.403597
822.403413	0.403967
822.593176	0.404786
822.782922	0.404900
822.972649	0.405280
823.162358	0.405310
823.352049	0.405781
823.541721	0.406202
823.731376	0.406918
823.921012	0.407519
824.110629	0.407810
824.300229	0.408375
824.489811	0.408687
824.679374	0.409179
824.868919	0.409670
825.058445	0.410323
825.247954	0.410631
825.437444	0.411171
825.626916	0.411838
825.816370	0.412410
826.005806	0.412976
826.195223	0.413369
826.384622	0.413762
826.574003	0.414425
826.763366	0.415040
826.952711	0.415781
827.142037	0.415930
827.331345	0.416028
827.520635	0.416454
827.709906	0.416821
827.899160	0.417501
828.088395	0.417945
828.277612	0.418311
828.466810	0.418804
828.655991	0.419330
828.845153	0.419895
829.034297	0.420742
829.223423	0.421431
829.412531	0.421711
829.601620	0.422525
829.790691	0.423421
829.979744	0.424121
830.168779	0.424683
830.357795	0.424682
830.546793	0.425633
830.735773	0.426119
830.924735	0.426450
831.113679	0.426810
831.302604	0.426934
831.491511	0.427250
831.680400	0.427607
831.869271	0.428253
832.058123	0.429138
832.246957	0.429251
832.435773	0.429727
832.624571	0.430632
832.813351	0.431926
833.002112	0.432750
833.190855	0.433538
833.379580	0.434456
833.568287	0.435110
833.756975	0.435449
833.945645	0.436312
834.134297	0.437131
834.322931	0.437533
834.511547	0.437310
834.700144	0.437816
834.888723	0.438281
835.077284	0.438448
835.265826	0.438858
835.454351	0.439615
835.642857	0.440063
835.831345	0.440290
836.019815	0.441097
836.208266	0.442153
836.396699	0.442643
836.585114	0.443297
836.773511	0.444014
836.961890	0.444667
837.150250	0.445285
837.338592	0.445799
837.526916	0.446384
837.715222	0.446849
837.903510	0.447187
838.091779	0.447848
838.280030	0.448348
838.468263	0.448678
838.656477	0.449297
838.844674	0.449833
839.032852	0.450215
839.221012	0.450712
839.409153	0.451143
839.597277	0.451511
839.785382	0.451804
839.973469	0.452655
840.161538	0.453023
840.349589	0.453204
840.537621	0.453526
840.725635	0.454386
840.913631	0.455290
841.101609	0.456040
841.289568	0.457110
841.477509	0.458098
841.665432	0.458429
841.853337	0.459357
842.041224	0.459754
842.229092	0.461060
842.416942	0.461828
842.604774	0.462542
842.792588	0.462944
842.980383	0.463963
843.168160	0.465139
843.355919	0.465984
843.543660	0.466890
843.731382	0.467840
843.919087	0.468029
844.106773	0.468631
844.294441	0.468924
844.482090	0.469606
844.669722	0.469383
844.857335	0.469111
845.044930	0.469597
845.232507	0.469606
845.420065	0.470185
845.607605	0.470897
845.795127	0.471086
845.982631	0.472221
846.170117	0.472706
846.357584	0.473740
846.545033	0.474545
846.732464	0.474756
846.919877	0.475845
847.107272	0.476665
847.294648	0.477072
847.482006	0.477748
847.669346	0.477877
847.856667	0.478468
848.043971	0.478856
848.231256	0.479566
848.418523	0.480324
848.605771	0.480592
848.793002	0.481047
848.980214	0.481851
849.167408	0.482532
849.354584	0.482699
849.541742	0.483161
849.728881	0.484355
849.916002	0.484521
850.103105	0.485445
850.290190	0.485964
850.477256	0.486486
850.664304	0.486912
850.851334	0.486869
851.038346	0.487924
851.225340	0.488885
851.412315	0.488791
851.599272	0.489654
851.786211	0.490034
851.973132	0.491072
852.160034	0.491792
852.346918	0.492641
852.533784	0.493598
852.720632	0.494495
852.907462	0.494744
853.094273	0.495532
853.281066	0.496540
853.467841	0.496853
853.654598	0.497275
853.841336	0.498152
854.028056	0.498667
854.214758	0.499821
854.401442	0.499864
854.588107	0.500834
854.774755	0.501101
854.961384	0.501167
855.147995	0.501813
855.334587	0.502292
855.521162	0.502325
855.707718	0.502549
855.894256	0.502699
856.080775	0.503394
856.267277	0.503688
856.453760	0.504771
856.640225	0.505311
856.826672	0.506278
857.013101	0.507257
857.199511	0.507277
857.385903	0.507885
857.572277	0.508589
857.758633	0.508876
857.944970	0.509440
858.131290	0.509707
858.317591	0.510317
858.503873	0.510328
858.690138	0.510583
858.876384	0.511631
859.062612	0.512257
859.248822	0.512813
859.435014	0.513901
859.621188	0.514621
859.807343	0.515274
859.993480	0.515992
860.179599	0.516529
860.365699	0.516821
860.551781	0.517812
860.737846	0.518715
860.923891	0.519163
861.109919	0.519235
861.295929	0.519913
861.481920	0.520347
861.667893	0.520744
861.853848	0.521756
862.039784	0.522520
862.225702	0.522697
862.411603	0.522911
862.597484	0.522996
862.783348	0.523687
862.969193	0.523965
863.155021	0.524338
863.340830	0.524886
863.526620	0.525351
863.712393	0.525686
863.898147	0.526355
864.083883	0.526814
864.269601	0.528313
864.455301	0.528930
864.640982	0.529647
864.826645	0.530207
865.012290	0.530695
865.197917	0.530728
865.383526	0.531122
865.569116	0.531548
865.754688	0.532109
865.940242	0.532325
866.125777	0.533107
866.311295	0.533165
866.496794	0.533624
866.682275	0.534322
866.867737	0.534843
867.053182	0.535069
867.238608	0.535213
867.424016	0.535526
867.609406	0.535850
867.794778	0.535572
867.980131	0.536255
868.165466	0.536598
868.350783	0.536526
868.536082	0.537040
868.721362	0.537742
868.906625	0.537846
869.091869	0.537920
869.277094	0.538089
869.462302	0.538443
869.647491	0.539174
869.832662	0.539966
870.017815	0.540090
870.202950	0.540870
870.388066	0.541549
870.573165	0.542720
870.758245	0.543841
870.943306	0.544183
871.128350	0.544919
871.313375	0.545353
871.498382	0.545205
871.683371	0.545961
871.868342	0.545870
872.053294	0.546096
872.238229	0.546316
872.423144	0.546506
872.608042	0.546522
872.792922	0.546985
872.977783	0.546763
873.162626	0.547315
873.347451	0.547845
873.532258	0.548339
873.717046	0.548300
873.901816	0.548125
874.086568	0.547858
874.271302	0.548350
874.456017	0.548387
874.640715	0.549141
874.825394	0.549169
875.010055	0.549208
875.194697	0.549915
875.379322	0.550148
875.563928	0.550460
875.748516	0.550956
875.933085	0.551401
876.117637	0.551675
876.302170	0.550812
876.486685	0.551227
876.671182	0.551316
876.855661	0.551369
877.040121	0.551803
877.224563	0.552886
877.408987	0.553275
877.593393	0.553098
877.777780	0.553710
877.962150	0.554721
878.146501	0.554831
878.330833	0.555040
878.515148	0.554503
878.699444	0.555087
878.883722	0.555049
879.067982	0.555203
879.252224	0.555910
879.436447	0.555898
879.620653	0.556224
879.804840	0.556880
879.989008	0.557355
880.173159	0.557926
880.357291	0.557501
880.541405	0.557577
880.725501	0.558615
880.909579	0.559029
881.093638	0.559002
881.277680	0.559202
881.461703	0.559313
881.645707	0.559573
881.829694	0.560617
882.013662	0.560919
882.197612	0.560917
882.381544	0.560517
882.565458	0.560622
882.749353	0.561309
882.933230	0.561585
883.117089	0.561293
883.300930	0.561354
883.484753	0.560678
883.668557	0.561399
883.852343	0.561492
884.036111	0.561129
884.219861	0.561422
884.403592	0.561398
884.587305	0.561314
884.771000	0.561509
884.954677	0.561402
885.138335	0.561824
885.321976	0.561696
885.505598	0.561593
885.689201	0.562750
885.872787	0.562169
886.056354	0.562161
886.239904	0.561983
886.423434	0.561754
886.606947	0.562370
886.790442	0.562605
886.973918	0.562421
887.157376	0.562490
887.340816	0.561616
887.524237	0.562183
887.707641	0.561917
887.891026	0.562447
888.074393	0.562786
888.257741	0.562390
888.441072	0.561447
888.624384	0.561974
888.807678	0.562264
888.990954	0.562395
889.174211	0.562120
889.357451	0.562483
889.540672	0.562498
889.723875	0.562083
889.907059	0.561967
890.090226	0.562755
890.273374	0.563098
890.456504	0.563246
890.639616	0.563572
890.822709	0.564476
891.005785	0.564708
891.188842	0.564842
891.371881	0.564763
891.554901	0.564815
891.737904	0.564325
891.920888	0.563212
892.103854	0.562817
892.286802	0.562768
892.469731	0.561849
892.652643	0.561146
892.835536	0.560448
893.018410	0.560926
893.201267	0.560733
893.384106	0.560614
893.566926	0.560497
893.749728	0.560765
893.932511	0.560299
894.115277	0.559652
894.298024	0.559523
894.480753	0.559297
894.663464	0.559318
894.846157	0.559499
895.028831	0.560155
895.211487	0.561135
895.394125	0.560211
895.576745	0.560409
895.759346	0.560608
895.941930	0.560877
896.124495	0.561504
896.307041	0.561676
896.489570	0.561161
896.672080	0.560503
896.854573	0.559881
897.037046	0.560413
897.219502	0.559631
897.401940	0.559789
897.584359	0.558571
897.766760	0.557049
897.949143	0.556251
898.131507	0.556022
898.313854	0.555845
898.496182	0.555222
898.678492	0.554879
898.860783	0.554657
899.043057	0.553923
899.225312	0.554494
899.407549	0.554792
899.589768	0.554797
899.771968	0.554436
899.954151	0.554008
900.136315	0.553326
900.318461	0.552582
900.500588	0.552767
900.682698	0.552658
900.864789	0.551604
901.046862	0.551064
901.228917	0.550589
901.410953	0.549886
901.592971	0.549429
901.774972	0.548350
901.956953	0.547158
902.138917	0.546813
902.320862	0.546293
902.502790	0.545667
902.684699	0.545467
902.866589	0.545096
903.048462	0.544972
903.230316	0.544670
903.412152	0.545165
903.593970	0.545554
903.775770	0.544473
903.957551	0.544623
904.139314	0.544795
904.321059	0.544331
904.502786	0.544010
904.684494	0.544402
904.866185	0.543307
905.047857	0.542598
905.229510	0.541861
905.411146	0.541892
905.592763	0.540913
905.774363	0.540501
905.955943	0.540185
906.137506	0.539383
906.319051	0.538058
906.500577	0.537999
906.682085	0.537961
906.863575	0.537857
907.045046	0.537225
907.226500	0.537166
907.407935	0.536968
907.589352	0.536687
907.770750	0.536114
907.952131	0.535805
908.133493	0.534952
908.314837	0.533792
908.496163	0.532723
908.677470	0.531653
908.858760	0.530797
909.040031	0.529404
909.221284	0.528388
909.402518	0.527924
909.583735	0.527280
909.764933	0.527409
909.946113	0.527705
910.127275	0.527182
910.308418	0.527392
910.489544	0.526229
910.670651	0.526172
910.851740	0.525592
911.032810	0.524909
911.213863	0.524009
911.394897	0.523074
911.575913	0.521379
911.756911	0.521709
911.937890	0.520685
912.118851	0.520051
912.299794	0.519496
912.480719	0.518923
912.661626	0.516988
912.842514	0.516058
913.023384	0.514935
913.204236	0.513958
913.385070	0.513051
913.565886	0.512436
913.746683	0.511343
913.927462	0.509874
914.108223	0.508263
914.288965	0.509112
914.469690	0.508440
914.650396	0.507395
914.831084	0.507678
915.011754	0.506641
915.192405	0.505113
915.373038	0.504921
915.553653	0.503723
915.734250	0.503150
915.914829	0.502154
916.095389	0.501276
916.275931	0.500516
916.456455	0.498793
916.636961	0.497465
916.817448	0.496964
916.997917	0.495635
917.178368	0.495106
917.358801	0.495116
917.539216	0.493514
917.719612	0.493374
917.899990	0.493120
918.080350	0.492821
918.260692	0.492607
918.441015	0.491743
918.621320	0.491479
918.801607	0.490633
918.981876	0.488752
919.162127	0.488680
919.342359	0.487887
919.522573	0.486300
919.702769	0.485011
919.882947	0.483397
920.063106	0.481385
920.243247	0.480451
920.423370	0.480037
920.603475	0.479459
920.783562	0.477862
920.963630	0.475746
921.143680	0.474872
921.323712	0.474041
921.503725	0.473244
921.683721	0.473146
921.863698	0.472547
922.043657	0.471669
922.223598	0.470903
922.403520	0.470667
922.583424	0.470198
922.763311	0.469445
922.943178	0.468350
923.123028	0.466652
923.302859	0.465667
923.482673	0.463971
923.662467	0.462206
923.842244	0.460699
924.022003	0.459091
924.201743	0.457962
924.381465	0.456919
924.561169	0.456095
924.740854	0.455535
924.920522	0.454975
925.100171	0.454491
925.279802	0.453898
925.459414	0.453060
925.639009	0.452129
925.818585	0.452109
925.998143	0.450835
926.177683	0.449753
926.357205	0.448922
926.536708	0.447452
926.716193	0.445909
926.895660	0.444744
927.075109	0.442884
927.254539	0.441645
927.433951	0.439201
927.613345	0.438521
927.792721	0.437372
927.972079	0.435239
928.151418	0.433340
928.330739	0.431787
928.510042	0.430931
928.689327	0.429916
928.868593	0.428186
929.047841	0.427763
929.227071	0.426517
929.406283	0.425086
929.585476	0.425235
929.764652	0.424694
929.943809	0.423546
930.122948	0.421545
930.302068	0.420597
930.481171	0.420091
930.660255	0.417960
930.839321	0.416282
931.018369	0.415348
931.197398	0.413265
931.376409	0.412250
931.555402	0.411333
931.734377	0.410672
931.913334	0.410200
932.092272	0.408460
932.271192	0.407876
932.450094	0.406009
932.628978	0.404359
932.807844	0.402642
932.986691	0.400376
933.165520	0.398279
933.344331	0.396824
933.523123	0.395196
933.701898	0.394003
933.880654	0.392882
934.059392	0.391658
934.238111	0.390375
934.416813	0.389425
934.595496	0.388050
934.774161	0.386535
934.952808	0.385868
935.131437	0.384343
935.310047	0.382678
935.488639	0.381565
935.667213	0.380799
935.845769	0.378997
936.024306	0.377825
936.202825	0.376803
936.381326	0.375757
936.559809	0.374055
936.738274	0.372228
936.916720	0.371626
937.095148	0.369631
937.273558	0.368575
937.451950	0.367384
937.630323	0.365206
937.808678	0.364183
937.987015	0.362623
938.165334	0.360754
938.343635	0.359509
938.521917	0.357524
938.700181	0.355593
938.878427	0.354609
939.056655	0.353531
939.234864	0.353897
939.413055	0.352614
939.591228	0.351890
939.769383	0.350890
939.947519	0.349644
940.125638	0.348946
940.303738	0.346853
940.481820	0.344954
940.659883	0.343396
940.837929	0.340289
941.015956	0.339335
941.193965	0.338811
941.371955	0.337646
941.549928	0.336471
941.727882	0.333762
941.905818	0.334273
942.083736	0.332180
942.261636	0.330337
942.439517	0.329437
942.617380	0.327795
942.795225	0.324785
942.973052	0.321795
943.150860	0.320139
943.328651	0.319801
943.506423	0.317460
943.684176	0.316335
943.861912	0.316483
944.039629	0.316133
944.217328	0.314939
944.395009	0.313102
944.572672	0.311898
944.750317	0.309503
944.927943	0.308564
945.105551	0.306358
945.283141	0.304868
945.460712	0.301233
945.638265	0.297705
945.815801	0.294391
945.993317	0.293600
946.170816	0.291249
946.348297	0.290532
946.525759	0.286866
946.703203	0.285564
946.880629	0.283034
947.058036	0.282277
947.235425	0.281391
947.412797	0.280583
947.590149	0.277872
947.767484	0.276812
947.944800	0.275306
948.122099	0.275977
948.299379	0.273809
948.476640	0.271562
948.653884	0.271512
948.831109	0.270218
949.008316	0.270859
949.185505	0.270830
949.362676	0.269953
949.539828	0.268837
949.716962	0.267417
949.894078	0.266471
950.071176	0.265299
950.248256	0.262531
950.425317	0.261056
950.602360	0.257541
950.779385	0.254297
950.956391	0.253530
951.133380	0.250788
951.310350	0.246217
951.487302	0.244581
951.664235	0.244072
951.841151	0.241211
952.018048	0.239652
952.194927	0.241057
952.371788	0.239521
952.548631	0.237196
952.725455	0.235469
952.902261	0.236679
953.079049	0.236489
953.255819	0.234981
953.432570	0.234540
953.609303	0.234365
953.786018	0.231132
953.962715	0.231717
954.139394	0.230620
954.316054	0.229188
954.492696	0.226291
954.669320	0.226936
954.845926	0.225388
955.022513	0.224542
955.199083	0.220912
955.375634	0.218913
955.552166	0.217763
955.728681	0.215581
955.905177	0.215023
956.081655	0.212522
956.258115	0.208443
956.434557	0.209647
956.610980	0.208870
956.787385	0.209430
956.963772	0.207071
957.140141	0.204007
957.316492	0.204445
957.492824	0.204529
957.669138	0.205157
957.845434	0.205820
958.021712	0.201536
958.197971	0.200172
958.374212	0.196227
958.550435	0.195512
958.726640	0.195978
958.902826	0.195190
959.078995	0.195302
959.255145	0.193631
959.431277	0.191770
959.607390	0.191276
959.783486	0.189747
959.959563	0.193257
960.135622	0.194382
960.311662	0.193445
960.487685	0.192482
960.663689	0.191409
960.839675	0.191260
961.015643	0.189805
961.191593	0.190614
961.367524	0.190533
961.543437	0.189871
961.719332	0.188840
961.895209	0.188114
962.071067	0.186354
962.246907	0.183886
962.422730	0.185867
962.598533	0.184207
962.774319	0.184233
962.950086	0.182852
963.125835	0.180208
963.301566	0.177286
963.477279	0.178948
963.652973	0.178852
963.828650	0.179407
964.004308	0.176432
964.179947	0.178151
964.355569	0.176060
964.531172	0.177126
964.706757	0.178763
964.882324	0.177933
965.057873	0.177241
965.233403	0.175469
965.408916	0.174384
965.584410	0.175142
965.759885	0.171022
965.935343	0.171152
966.110782	0.170472
966.286203	0.168573
966.461606	0.171234
966.636991	0.167831
966.812357	0.170067
966.987705	0.169509
967.163035	0.167166
967.338347	0.172217
967.513641	0.171871
967.688916	0.171294
967.864173	0.171327
968.039412	0.170025
968.214632	0.171516
968.389835	0.169951
968.565019	0.173121
968.740185	0.174975
968.915333	0.170602
969.090462	0.172884
969.265573	0.171104
969.440667	0.172533
969.615741	0.172537
969.790798	0.173151
969.965836	0.174747
970.140856	0.171380
970.315858	0.169172
970.490842	0.172960
970.665808	0.170998
970.840755	0.174354
971.015684	0.173640
971.190595	0.173559
971.365487	0.173628
971.540362	0.173239
971.715218	0.174105
971.890056	0.174779
972.064875	0.174030
972.239677	0.173910
972.414460	0.172294
972.589225	0.171714
972.763972	0.170606
972.938700	0.170603
973.113411	0.168347
973.288103	0.168833
973.462777	0.170706
973.637432	0.168816
973.812070	0.167200
973.986689	0.165451
974.161290	0.166790
974.335873	0.168051
974.510437	0.168224
974.684984	0.171028
974.859512	0.170992
975.034022	0.170104
975.208513	0.170127
975.382987	0.173304
975.557442	0.174340
975.731879	0.172948
975.906298	0.170692
976.080698	0.169144
976.255080	0.169172
976.429445	0.167434
976.603790	0.167036
976.778118	0.168203
976.952427	0.165534
977.126719	0.165977
977.300992	0.167559
977.475246	0.170446
977.649483	0.171924
977.823701	0.170435
977.997901	0.170691
978.172083	0.172545
978.346247	0.172862
978.520392	0.175179
978.694519	0.175631
978.868628	0.172162
979.042719	0.170950
979.216791	0.170559
979.390845	0.168317
979.564882	0.169945
979.738899	0.171207
979.912899	0.169815
980.086880	0.168073
980.260843	0.167525
980.434788	0.168209
980.608715	0.168808
980.782623	0.169802
980.956514	0.171428
981.130386	0.169481
981.304240	0.167296
981.478075	0.166657
981.651892	0.167135
981.825692	0.165601
981.999472	0.163968
982.173235	0.162240
982.346980	0.162259
982.520706	0.161958
982.694414	0.163068
982.868104	0.163386
983.041775	0.165061
983.215428	0.163296
983.389064	0.164655
983.562680	0.169764
983.736279	0.172508
983.909860	0.169818
984.083422	0.170546
984.256966	0.172148
984.430491	0.171359
984.603999	0.171770
984.777488	0.174185
984.950959	0.174972
985.124412	0.171758
985.297847	0.171342
985.471263	0.171756
985.644661	0.172553
985.818041	0.172013
985.991403	0.172149
986.164747	0.170264
986.338072	0.170327
986.511379	0.168007
986.684668	0.168539
986.857938	0.169181
987.031191	0.169175
987.204425	0.167099
987.377641	0.166066
987.550839	0.164464
987.724018	0.166801
987.897179	0.166625
988.070322	0.168204
988.243447	0.165693
988.416554	0.163433
988.589642	0.166921
988.762712	0.168382
988.935764	0.167736
989.108798	0.169088
989.281813	0.168243
989.454811	0.171145
989.627790	0.172468
989.800751	0.176792
989.973693	0.177693
990.146617	0.176241
990.319524	0.175755
990.492412	0.177255
990.665281	0.177680
990.838133	0.176776
991.010966	0.173873
991.183781	0.174596
991.356578	0.174004
991.529356	0.172205
991.702117	0.173319
991.874859	0.173017
992.047583	0.172835
992.220288	0.172818
992.392976	0.173397
992.565645	0.173357
992.738296	0.170839
992.910929	0.169667
993.083543	0.170425
993.256139	0.168910
993.428718	0.168773
993.601277	0.170147
993.773819	0.170947
993.946342	0.172459
994.118848	0.173054
994.291335	0.176207
994.463803	0.174539
994.636254	0.175242
994.808686	0.174535
994.981100	0.176943
995.153496	0.175176
995.325874	0.173175
995.498233	0.172125
995.670574	0.171846
995.842897	0.170728
996.015202	0.173490
996.187488	0.174300
996.359757	0.174381
996.532007	0.172494
996.704239	0.172814
996.876452	0.174648
997.048648	0.174157
997.220825	0.173223
997.392984	0.172997
997.565124	0.171884
997.737247	0.171850
997.909351	0.173868
998.081437	0.173785
998.253505	0.173542
998.425554	0.173182
998.597586	0.174448
998.769599	0.174754
998.941594	0.172532
999.113571	0.174655
999.285529	0.174410
999.457469	0.171456
999.629391	0.171477
999.801295	0.170793
999.973181	0.170665
1000.145048	0.171359
1000.316897	0.172340
1000.488728	0.174150
1000.660541	0.171910
1000.832335	0.171817
1001.004111	0.172570
1001.175869	0.171694
1001.347609	0.173788
1001.519331	0.171666
1001.691034	0.169720
1001.862719	0.168161
1002.034386	0.167433
1002.206035	0.166704
1002.377665	0.166496
1002.549277	0.166308
1002.720871	0.166931
1002.892447	0.164984
1003.064004	0.167062
1003.235544	0.167616
1003.407065	0.169991
1003.578568	0.171253
1003.750052	0.172691
1003.921519	0.172361
1004.092967	0.172610
1004.264397	0.174161
1004.435809	0.173667
1004.607202	0.174337
1004.778577	0.173399
1004.949934	0.171676
1005.121273	0.172788
1005.292594	0.172683
1005.463896	0.171688
1005.635180	0.171499
1005.806446	0.170434
1005.977694	0.171127
1006.148923	0.170248
1006.320135	0.170574
1006.491328	0.170982
1006.662503	0.169506
1006.833659	0.168463
1007.004798	0.168356
1007.175918	0.168791
1007.347020	0.168796
1007.518103	0.168590
1007.689169	0.168214
1007.860216	0.168251
1008.031245	0.169479
1008.202256	0.170229
1008.373248	0.169451
1008.544223	0.171218
1008.715179	0.170272
1008.886117	0.171305
1009.057036	0.172285
1009.227938	0.172336
1009.398821	0.173260
1009.569686	0.170038
1009.740533	0.169621
1009.911361	0.171301
1010.082172	0.171006
1010.252964	0.171710
1010.423738	0.170709
1010.594493	0.170029
1010.765231	0.170457
1010.935950	0.169578
1011.106651	0.171419
1011.277334	0.170879
1011.447998	0.171154
1011.618645	0.170914
1011.789273	0.170869
1011.959882	0.171260
1012.130474	0.172313
1012.301048	0.171812
1012.471603	0.171706
1012.642140	0.171196
1012.812658	0.169866
1012.983159	0.168809
1013.153641	0.169203
1013.324105	0.168932
1013.494551	0.168821
1013.664979	0.167263
1013.835388	0.165857
1014.005779	0.166876
1014.176152	0.168276
1014.346507	0.171063
1014.516843	0.172030
1014.687162	0.171492
1014.857462	0.172580
1015.027744	0.172474
1015.198007	0.172799
1015.368252	0.175081
1015.538480	0.174599
1015.708689	0.173026
1015.878879	0.172511
1016.049052	0.172771
1016.219206	0.174049
1016.389342	0.173830
1016.559460	0.173180
1016.729559	0.173803
1016.899641	0.172987
1017.069704	0.170882
1017.239749	0.169240
1017.409775	0.169220
1017.579784	0.169058
1017.749774	0.168185
1017.919746	0.168151
1018.089700	0.168503
1018.259635	0.167338
1018.429553	0.166624
1018.599452	0.168364
1018.769333	0.170509
1018.939195	0.168568
1019.109040	0.169424
1019.278866	0.170278
1019.448674	0.170781
1019.618464	0.170387
1019.788235	0.170756
1019.957989	0.171555
1020.127724	0.172799
1020.297441	0.173135
1020.467139	0.173515
1020.636820	0.171662
1020.806482	0.170904
1020.976126	0.169556
1021.145752	0.169924
1021.315359	0.169664
1021.484948	0.167349
1021.654519	0.166022
1021.824072	0.164178
1021.993607	0.162861
1022.163123	0.163633
1022.332621	0.164247
1022.502101	0.165541
1022.671563	0.165270
1022.841007	0.165636
1023.010432	0.168629
1023.179839	0.169217
1023.349228	0.171058
1023.518598	0.173176
1023.687951	0.172355
1023.857285	0.172203
1024.026601	0.171033
1024.195899	0.171758
1024.365178	0.172872
1024.534439	0.172121
1024.703682	0.172221
1024.872907	0.170347
1025.042114	0.170612
1025.211302	0.171490
1025.380472	0.172018
1025.549624	0.172579
1025.718758	0.171338
1025.887873	0.171775
1026.056970	0.173776
1026.226049	0.171804
1026.395110	0.172618
1026.564153	0.172320
1026.733177	0.172096
1026.902183	0.170695
1027.071171	0.168773
1027.240141	0.170356
1027.409092	0.169488
1027.578026	0.167031
1027.746940	0.169118
1027.915837	0.170090
1028.084716	0.167392
1028.253576	0.169679
1028.422418	0.170226
1028.591242	0.171634
1028.760048	0.171441
1028.928835	0.170709
1029.097604	0.171991
1029.266355	0.170964
1029.435088	0.169276
1029.603803	0.170050
1029.772499	0.167641
1029.941177	0.168280
1030.109837	0.169359
1030.278478	0.168517
1030.447102	0.167510
1030.615707	0.166769
1030.784294	0.166399
1030.952863	0.167847
1031.121413	0.168914
1031.289945	0.168349
1031.458460	0.167510
1031.626955	0.167024
1031.795433	0.167453
1031.963892	0.167591
1032.132334	0.167061
1032.300756	0.168081
1032.469161	0.169590
1032.637548	0.170661
1032.805916	0.170480
1032.974266	0.170148
1033.142598	0.169576
1033.310911	0.167606
1033.479207	0.170654
1033.647484	0.170462
1033.815743	0.168778
1033.983983	0.167481
1034.152206	0.167586
1034.320410	0.170230
1034.488596	0.173176
1034.656764	0.172662
1034.824914	0.176135
1034.993045	0.172172
1035.161158	0.173079
1035.329253	0.175431
1035.497330	0.175255
1035.665388	0.171548
1035.833428	0.169018
1036.001450	0.165974
1036.169454	0.165374
1036.337440	0.163007
1036.505407	0.163600
1036.673356	0.162872
1036.841287	0.160968
1037.009200	0.159741
1037.177094	0.163025
1037.344970	0.163186
1037.512828	0.163969
1037.680668	0.164562
1037.848489	0.166109
1038.016293	0.167979
1038.184078	0.167967
1038.351845	0.167511
1038.519593	0.167737
1038.687324	0.167139
1038.855036	0.168217
1039.022730	0.168311
1039.190406	0.167889
1039.358063	0.167391
1039.525702	0.167958
1039.693323	0.169511
1039.860926	0.170788
1040.028511	0.169949
1040.196077	0.170641
1040.363625	0.169226
1040.531155	0.166427
1040.698667	0.167600
1040.866161	0.167516
1041.033636	0.165090
1041.201093	0.164785
1041.368532	0.165961
1041.535952	0.168936
1041.703355	0.169979
1041.870739	0.169672
1042.038105	0.172090
1042.205452	0.171752
1042.372782	0.172433
1042.540093	0.173693
1042.707386	0.173414
1042.874661	0.172126
1043.041918	0.171482
1043.209156	0.168616
1043.376376	0.169545
1043.543578	0.169526
1043.710762	0.169909
1043.877927	0.169916
1044.045074	0.168575
1044.212203	0.168151
1044.379314	0.165334
1044.546407	0.164784
1044.713481	0.167032
1044.880537	0.167363
1045.047575	0.165173
1045.214595	0.163613
1045.381596	0.163167
1045.548579	0.165828
1045.715544	0.163596
1045.882491	0.165926
1046.049420	0.166575
1046.216330	0.166454
1046.383222	0.165804
1046.550096	0.166274
1046.716951	0.167636
1046.883789	0.168142
1047.050608	0.165832
1047.217409	0.166909
1047.384192	0.166341
1047.550956	0.165418
1047.717703	0.165420
1047.884431	0.165122
1048.051140	0.166060
1048.217832	0.164677
1048.384505	0.164295
1048.551161	0.165352
1048.717798	0.168396
1048.884416	0.168431
1049.051017	0.168059
1049.217599	0.167041
1049.384163	0.167630
1049.550709	0.167585
1049.717237	0.169369
1049.883746	0.168968
1050.050237	0.170343
1050.216710	0.167464
1050.383165	0.167547
1050.549601	0.168289
1050.716019	0.169260
1050.882420	0.168461
1051.048801	0.169590
1051.215165	0.170450
1051.381510	0.171327
1051.547837	0.170252
1051.714146	0.172107
1051.880437	0.175858
1052.046709	0.173552
1052.212964	0.172934
1052.379200	0.174337
1052.545417	0.174638
1052.711617	0.173948
1052.877798	0.172392
1053.043961	0.173780
1053.210106	0.172960
1053.376233	0.170263
1053.542341	0.172493
1053.708432	0.172178
1053.874504	0.172818
1054.040557	0.173035
1054.206593	0.171488
1054.372610	0.170577
1054.538609	0.169083
1054.704590	0.168908
1054.870553	0.167836
1055.036497	0.167489
1055.202424	0.167301
1055.368331	0.166548
1055.534221	0.164736
1055.700093	0.166973
1055.865946	0.168320
1056.031781	0.168110
1056.197598	0.167405
1056.363397	0.168951
1056.529177	0.167752
1056.694939	0.166928
1056.860683	0.166372
1057.026409	0.166890
1057.192116	0.166456
1057.357806	0.165831
1057.523477	0.167938
1057.689130	0.166645
1057.854764	0.166104
1058.020381	0.167849
1058.185979	0.169594
1058.351559	0.169773
1058.517120	0.170766
1058.682664	0.171432
1058.848189	0.172419
1059.013696	0.168917
1059.179185	0.170859
1059.344656	0.171114
1059.510108	0.169100
1059.675542	0.166150
1059.840958	0.167040
1060.006356	0.165407
1060.171735	0.161296
1060.337096	0.160876
1060.502439	0.162483
1060.667764	0.161476
1060.833071	0.161389
1060.998359	0.162238
1061.163629	0.163518
1061.328881	0.162951
1061.494115	0.164602
1061.659330	0.168488
1061.824527	0.169686
1061.989706	0.169761
1062.154867	0.170044
1062.320010	0.172145
1062.485134	0.171870
1062.650240	0.174888
1062.815328	0.174619
1062.980398	0.173673
1063.145449	0.169859
1063.310482	0.168593
1063.475497	0.169574
1063.640494	0.169861
1063.805473	0.167564
1063.970433	0.168730
1064.135375	0.167004
1064.300299	0.167951
1064.465204	0.168167
1064.630092	0.168541
1064.794961	0.168534
1064.959812	0.168440
1065.124645	0.167877
1065.289459	0.167187
1065.454256	0.166830
1065.619034	0.165417
1065.783793	0.165488
1065.948535	0.165116
1066.113258	0.167631
1066.277964	0.165243
1066.442651	0.163613
1066.607319	0.165355
1066.771970	0.164444
1066.936602	0.163967
1067.101216	0.166775
1067.265812	0.167270
1067.430389	0.167693
1067.594949	0.168263
1067.759490	0.169286
1067.924013	0.169343
1068.088518	0.169758
1068.253004	0.172852
1068.417472	0.174470
1068.581922	0.173449
1068.746354	0.173847
1068.910768	0.173353
1069.075163	0.170415
1069.239540	0.172106
1069.403899	0.171996
1069.568240	0.172369
1069.732562	0.172379
1069.896866	0.171692
1070.061152	0.173114
1070.225420	0.170464
1070.389670	0.170711
1070.553901	0.172072
1070.718114	0.171272
1070.882309	0.172385
1071.046486	0.173018
1071.210644	0.171817
1071.374784	0.169687
1071.538906	0.166340
1071.703010	0.167318
1071.867096	0.167108
1072.031163	0.169169
1072.195212	0.171079
1072.359243	0.167880
1072.523256	0.165817
1072.687250	0.165195
1072.851226	0.166255
1073.015184	0.168942
1073.179124	0.167545
1073.343045	0.166078
1073.506949	0.162504
1073.670834	0.163043
1073.834701	0.163048
1073.998549	0.163534
1074.162380	0.165340
1074.326192	0.166780
1074.489986	0.166439
1074.653761	0.166324
1074.817519	0.167836
1074.981258	0.170694
1075.144979	0.167544
1075.308682	0.173153
1075.472367	0.172220
1075.636033	0.168791
1075.799681	0.170069
1075.963311	0.170232
1076.126923	0.170845
1076.290516	0.172125
1076.454092	0.170908
1076.617649	0.173612
1076.781187	0.170647
1076.944708	0.168773
1077.108210	0.172462
1077.271695	0.171418
1077.435160	0.172249
1077.598608	0.173245
1077.762038	0.173761
1077.925449	0.174473
1078.088842	0.174690
1078.252217	0.175179
1078.415573	0.176634
1078.578912	0.175896
1078.742232	0.174050
1078.905534	0.170699
1079.068817	0.169664
1079.232083	0.167531
1079.395330	0.168189
1079.558559	0.168753
1079.721770	0.168028
1079.884962	0.164538
1080.048136	0.163857
1080.211293	0.167406
1080.374430	0.167206
1080.537550	0.167436
1080.700651	0.168182
1080.863735	0.164135
1081.026800	0.163784
1081.189846	0.162116
1081.352875	0.168401
1081.515885	0.171706
1081.678877	0.169899
1081.841851	0.168989
1082.004807	0.167760
1082.167744	0.169570
1082.330663	0.174076
1082.493564	0.173613
1082.656447	0.175544
1082.819312	0.173120
1082.982158	0.170752
1083.144986	0.169797
1083.307796	0.171888
1083.470587	0.174973
1083.633361	0.176049
1083.796116	0.172499
1083.958853	0.170837
1084.121571	0.172593
1084.284272	0.170766
1084.446954	0.168691
1084.609618	0.167303
1084.772264	0.169562
1084.934892	0.167996
1085.097501	0.164888
1085.260092	0.169489
1085.422665	0.171495
1085.585220	0.168791
1085.747756	0.170760
1085.910274	0.172139
1086.072774	0.172755
1086.235256	0.171815
1086.397720	0.175627
1086.560165	0.172399
1086.722592	0.169483
1086.885001	0.166145
1087.047392	0.165411
1087.209764	0.166742
1087.372119	0.167807
1087.534455	0.170700
1087.696772	0.171386
1087.859072	0.167329
1088.021353	0.168697
1088.183616	0.169693
1088.345861	0.171393
1088.508088	0.172924
1088.670296	0.169607
1088.832486	0.169108
1088.994658	0.166448
1089.156812	0.166129
1089.318948	0.169285
1089.481065	0.172086
1089.643164	0.171423
1089.805245	0.172072
1089.967308	0.169472
1090.129352	0.172873
1090.291378	0.173484
1090.453386	0.172749
1090.615376	0.173403
1090.777347	0.171240
1090.939301	0.174950
1091.101236	0.175676
1091.263153	0.175361
1091.425051	0.174569
1091.586932	0.174089
1091.748794	0.173238
1091.910638	0.172577
1092.072463	0.172585
1092.234271	0.175167
1092.396060	0.169336
1092.557831	0.166945
1092.719584	0.167764
1092.881319	0.171706
1093.043035	0.174726
1093.204733	0.176924
1093.366413	0.182239
1093.528075	0.183942
1093.689718	0.178711
1093.851343	0.180768
1094.012950	0.183073
1094.174539	0.183169
1094.336110	0.183762
1094.497662	0.179133
1094.659196	0.176233
1094.820712	0.170434
1094.982210	0.168883
1095.143689	0.171390
1095.305151	0.171775
1095.466594	0.173208
1095.628018	0.175420
1095.789425	0.173953
1095.950813	0.178528
1096.112183	0.180133
1096.273535	0.184838
1096.434869	0.181595
1096.596184	0.184703
1096.757482	0.185779
1096.918761	0.187877
1097.080021	0.185306
1097.241264	0.186761
1097.402488	0.182288
1097.563694	0.179949
1097.724882	0.178498
1097.886052	0.178427
1098.047203	0.173841
1098.208336	0.176864
1098.369451	0.174722
1098.530548	0.173970
1098.691627	0.174592
1098.852687	0.175926
1099.013729	0.176748
1099.174753	0.178492
1099.335758	0.177192
1099.496746	0.181060
1099.657715	0.175545
1099.818666	0.175005
1099.979599	0.176260
1100.140513	0.174528
1100.301409	0.174546
1100.462287	0.173668
1100.623147	0.170046
1100.783989	0.169513
1100.944812	0.163373
1101.105617	0.164757
1101.266404	0.167499
1101.427173	0.167615
1101.587923	0.165704
1101.748656	0.164165
1101.909370	0.164517
1102.070066	0.164824
1102.230743	0.166821
1102.391403	0.170125
1102.552044	0.170420
1102.712667	0.168961
1102.873271	0.170910
1103.033858	0.173397
1103.194426	0.175939
1103.354976	0.178620
1103.515508	0.181414
1103.676021	0.181715
1103.836517	0.179568
1103.996994	0.180716
1104.157453	0.178850
1104.317893	0.177406
1104.478316	0.175747
1104.638720	0.173303
1104.799106	0.169356
1104.959474	0.169889
1105.119823	0.169477
1105.280155	0.170357
1105.440468	0.165632
1105.600763	0.164266
1105.761039	0.161487
1105.921298	0.160875
1106.081538	0.157620
1106.241760	0.158371
1106.401964	0.155041
1106.562149	0.158544
1106.722316	0.158582
1106.882465	0.160794
1107.042596	0.160603
1107.202709	0.160636
1107.362803	0.167108
1107.522879	0.172500
1107.682937	0.170272
1107.842977	0.169469
1108.002999	0.167480
1108.163002	0.169045
1108.322987	0.170414
1108.482954	0.168622
1108.642902	0.176953
1108.802833	0.170127
1108.962745	0.170478
1109.122639	0.173730
1109.282515	0.178551
1109.442372	0.175780
1109.602211	0.173788
1109.762032	0.178724
1109.921835	0.180847
1110.081620	0.174988
1110.241386	0.179248
1110.401134	0.176062
1110.560864	0.175468
1110.720576	0.175260
1110.880269	0.178915
1111.039945	0.187156
1111.199602	0.179588
1111.359240	0.184129
1111.518861	0.183684
1111.678463	0.183482
1111.838047	0.186966
1111.997613	0.190837
1112.157161	0.193755
1112.316690	0.195640
1112.476202	0.187940
1112.635695	0.194695
1112.795169	0.190834
1112.954626	0.188572
1113.114064	0.189938
1113.273484	0.190730
1113.432886	0.191383
1113.592270	0.187634
1113.751635	0.188419
1113.910983	0.191642
1114.070312	0.190279
1114.229622	0.190731
1114.388915	0.189580
1114.548189	0.185919
1114.707445	0.185529
1114.866683	0.178463
1115.025903	0.177772
1115.185104	0.175470
1115.344287	0.171548
1115.503452	0.172154
1115.662599	0.172142
1115.821727	0.175600
1115.980838	0.175450
1116.139930	0.178815
1116.299004	0.182613
1116.458059	0.180064
1116.617097	0.178995
1116.776116	0.184829
1116.935117	0.185882
1117.094099	0.184137
1117.253064	0.186337
1117.412010	0.183614
1117.570938	0.181246
1117.729848	0.179869
1117.888740	0.187980
1118.047613	0.187287
1118.206468	0.186297
1118.365305	0.178541
1118.524124	0.181635
1118.682924	0.179428
1118.841707	0.184646
1119.000471	0.183282
1119.159216	0.187228
1119.317944	0.183418
1119.476653	0.182707
1119.635344	0.178515
1119.794017	0.179980
1119.952672	0.177701
1120.111308	0.177326
1120.269927	0.178570
1120.428527	0.179468
1120.587108	0.177829
1120.745672	0.177862
1120.904217	0.182065
1121.062744	0.181211
1121.221253	0.184397
1121.379744	0.187219
1121.538216	0.185353
1121.696671	0.182306
1121.855107	0.184128
1122.013524	0.183645
1122.171924	0.184217
1122.330305	0.177811
1122.488668	0.180266
1122.647013	0.175127
1122.805340	0.174976
1122.963648	0.176428
1123.121938	0.174161
1123.280210	0.167553
1123.438464	0.165887
1123.596700	0.162462
1123.754917	0.166962
1123.913116	0.167734
1124.071297	0.173292
1124.229459	0.170311
1124.387604	0.169907
1124.545730	0.174763
1124.703838	0.175733
1124.861928	0.174180
1125.019999	0.176777
1125.178052	0.172898
1125.336088	0.171565
1125.494104	0.170951
1125.652103	0.177115
1125.810083	0.179180
1125.968045	0.175461
1126.125989	0.176433
1126.283915	0.173136
1126.441823	0.173703
1126.599712	0.175017
1126.757583	0.178639
1126.915436	0.172235
1127.073270	0.170399
1127.231087	0.170376
1127.388885	0.175557
1127.546665	0.184125
1127.704426	0.190653
1127.862170	0.186845
1128.019895	0.191899
1128.177602	0.192449
1128.335291	0.199971
1128.492961	0.198990
1128.650614	0.194423
1128.808248	0.185136
1128.965864	0.179050
1129.123461	0.182656
1129.281041	0.185717
1129.438602	0.184105
1129.596145	0.180061
1129.753670	0.180061
1129.911176	0.174178
1130.068665	0.176994
1130.226135	0.178786
1130.383587	0.179720
1130.541020	0.177216
1130.698436	0.178752
1130.855833	0.176570
1131.013212	0.178351
1131.170573	0.180542
1131.327915	0.182776
1131.485239	0.181724
1131.642545	0.182185
1131.799833	0.181331
1131.957103	0.181037
1132.114354	0.181438
1132.271588	0.182051
1132.428803	0.178904
1132.585999	0.171608
1132.743178	0.178487
1132.900338	0.183062
1133.057480	0.183959
1133.214604	0.181427
1133.371710	0.183244
1133.528797	0.178453
1133.685866	0.177963
1133.842917	0.174820
1133.999950	0.172723
1134.156964	0.172745
1134.313960	0.170805
1134.470938	0.175495
1134.627898	0.169987
1134.784840	0.171931
1134.941763	0.169510
1135.098668	0.164050
1135.255555	0.164103
1135.412424	0.166940
1135.569274	0.160372
1135.726107	0.157577
1135.882921	0.156798
1136.039716	0.157347
1136.196494	0.147870
1136.353253	0.154065
1136.509995	0.155792
1136.666717	0.157530
1136.823422	0.163378
1136.980109	0.169071
1137.136777	0.168818
1137.293427	0.159997
1137.450059	0.170747
1137.606672	0.177124
1137.763267	0.169651
1137.919844	0.171472
1138.076403	0.164935
1138.232944	0.159972
1138.389466	0.156969
1138.545971	0.158334
1138.702457	0.165620
1138.858924	0.160105
1139.015374	0.159419
1139.171805	0.164534
1139.328218	0.164057
1139.484613	0.177039
1139.640990	0.184623
1139.797348	0.186309
1139.953688	0.188289
1140.110010	0.192413
1140.266314	0.192383
1140.422600	0.198491
1140.578867	0.199832
1140.735116	0.203770
1140.891347	0.196910
1141.047559	0.186675
1141.203754	0.175439
1141.359930	0.177798
1141.516088	0.172647
1141.672228	0.169394
1141.828349	0.163176
1141.984452	0.159850
1142.140537	0.159815
1142.296604	0.161546
1142.452653	0.161196
1142.608683	0.167275
1142.764695	0.161830
1142.920689	0.165964
1143.076665	0.163764
1143.232622	0.157395
1143.388562	0.162275
1143.544483	0.167409
1143.700385	0.171079
1143.856270	0.175696
1144.012136	0.178828
1144.167985	0.172648
1144.323814	0.165123
1144.479626	0.174905
1144.635420	0.187734
1144.791195	0.187363
1144.946952	0.181045
1145.102691	0.179642
1145.258411	0.179476
1145.414113	0.184415
1145.569798	0.190481
1145.725463	0.192192
1145.881111	0.188447
1146.036741	0.179570
1146.192352	0.180569
1146.347945	0.179355
1146.503519	0.176108
1146.659076	0.178384
1146.814614	0.173415
1146.970134	0.173441
1147.125636	0.176794
1147.281120	0.179053
1147.436585	0.174066
1147.592032	0.168859
1147.747461	0.172177
1147.902872	0.171394
1148.058265	0.167182
1148.213639	0.171971
1148.368995	0.168642
1148.524333	0.167679
1148.679653	0.174174
1148.834954	0.177468
1148.990237	0.179776
1149.145502	0.187476
1149.300749	0.188211
1149.455977	0.189483
1149.611188	0.179682
1149.766380	0.177339
1149.921553	0.175435
1150.076709	0.161913
1150.231846	0.163926
1150.386966	0.169540
1150.542066	0.165721
1150.697149	0.167240
1150.852214	0.163237
1151.007260	0.174553
1151.162288	0.183318
1151.317298	0.182669
1151.472289	0.185942
1151.627263	0.187743
1151.782218	0.179563
1151.937155	0.176412
1152.092073	0.164269
1152.246974	0.167898
1152.401856	0.159844
1152.556720	0.152831
1152.711566	0.150744
1152.866393	0.147661
1153.021203	0.150083
1153.175994	0.148104
1153.330767	0.142270
1153.485521	0.153190
1153.640258	0.151191
1153.794976	0.162780
1153.949676	0.168380
1154.104358	0.177253
1154.259021	0.178527
1154.413667	0.179163
1154.568294	0.181435
1154.722903	0.184384
1154.877493	0.190997
1155.032066	0.196048
1155.186620	0.190841
1155.341156	0.187862
1155.495674	0.178647
1155.650173	0.179726
1155.804654	0.170151
1155.959118	0.171807
1156.113562	0.173479
1156.267989	0.164590
1156.422397	0.166874
1156.576788	0.163252
1156.731160	0.160776
1156.885513	0.163109
1157.039849	0.159351
1157.194166	0.165058
1157.348465	0.157747
1157.502746	0.147237
1157.657009	0.152041
1157.811253	0.144223
1157.965479	0.141492
1158.119687	0.149580
1158.273877	0.145173
1158.428048	0.145755
1158.582201	0.146710
1158.736337	0.150035
1158.890453	0.160484
1159.044552	0.165231
1159.198632	0.167693
1159.352694	0.171472
1159.506738	0.169110
1159.660764	0.176201
1159.814771	0.183768
1159.968761	0.180102
1160.122732	0.175271
1160.276685	0.161644
1160.430619	0.148042
1160.584535	0.141304
1160.738434	0.140261
1160.892313	0.139862
1161.046175	0.142139
1161.200019	0.140424
1161.353844	0.139181
1161.507651	0.148969
1161.661440	0.161272
1161.815210	0.164338
1161.968962	0.166428
1162.122697	0.157879
1162.276412	0.151372
1162.430110	0.139571
1162.583789	0.139697
1162.737451	0.147239
1162.891094	0.134294
1163.044718	0.129055
1163.198325	0.133275
1163.351913	0.136280
1163.505483	0.138251
1163.659035	0.137506
1163.812569	0.136879
1163.966084	0.130149
1164.119581	0.118248
1164.273060	0.115469
1164.426521	0.112695
1164.579964	0.116045
1164.733388	0.118892
1164.886794	0.126078
1165.040182	0.130754
1165.193551	0.140561
1165.346903	0.137000
1165.500236	0.138977
1165.653551	0.137104
1165.806848	0.140721
1165.960126	0.133421
1166.113386	0.124217
1166.266628	0.102724
1166.419852	0.103429
1166.573058	0.096253
1166.726245	0.104394
1166.879414	0.105619
1167.032565	0.105133
1167.185698	0.101873
1167.338812	0.101569
1167.491909	0.103768
1167.644987	0.112846
1167.798046	0.113549
1167.951088	0.112125
1168.104111	0.110679
1168.257117	0.112619
1168.410103	0.123809
1168.563072	0.120711
1168.716023	0.117344
1168.868955	0.125060
1169.021869	0.126135
1169.174765	0.121354
1169.327642	0.122362
1169.480501	0.114300
1169.633343	0.103012
1169.786165	0.094355
1169.938970	0.099669
1170.091757	0.108099
1170.244525	0.089299
1170.397275	0.089325
1170.550007	0.084276
1170.702720	0.087716
1170.855415	0.096557
1171.008092	0.105231
1171.160751	0.113131
1171.313392	0.112618
1171.466014	0.158697
1171.618619	0.119530
1171.771205	0.119530
1171.923772	0.119530
