sample name	sample
index	468
start time	 03-11-2021  12:13:40 PM


Wavelength (nm)	Absorbance
494.344910	-0.187173
494.563924	-0.187173
494.782919	-0.187173
495.001897	-0.214734
495.220856	-0.126172
495.439797	-0.149810
495.658719	-0.108051
495.877624	-0.135153
496.096510	-0.088823
496.315378	-0.086661
496.534227	-0.036857
496.753059	0.010708
496.971872	0.009243
497.190667	0.149633
497.409444	0.165351
497.628203	0.167378
497.846943	0.169388
498.065665	0.170047
498.284369	0.168934
498.503055	0.166897
498.721723	0.167865
498.940372	0.168727
499.159003	0.168189
499.377616	0.168673
499.596210	0.168784
499.814787	0.169477
500.033345	0.169868
500.251885	0.169583
500.470406	0.171704
500.688910	0.171336
500.907395	0.170823
501.125862	0.171481
501.344311	0.170877
501.562742	0.171136
501.781154	0.171768
501.999548	0.171526
502.217924	0.173392
502.436282	0.172030
502.654621	0.172347
502.872942	0.174172
503.091245	0.173766
503.309530	0.174242
503.527797	0.173977
503.746045	0.173570
503.964275	0.174563
504.182487	0.174193
504.400681	0.176097
504.618856	0.176468
504.837013	0.174350
505.055152	0.175257
505.273273	0.175551
505.491376	0.175503
505.709460	0.176131
505.927526	0.174317
506.145574	0.173956
506.363604	0.173716
506.581615	0.174287
506.799608	0.175235
507.017583	0.175318
507.235540	0.174966
507.453478	0.175468
507.671399	0.175451
507.889301	0.176396
508.107185	0.176825
508.325050	0.177224
508.542898	0.178192
508.760727	0.179604
508.978538	0.179532
509.196330	0.180535
509.414105	0.181192
509.631861	0.181844
509.849599	0.182668
510.067319	0.182557
510.285021	0.182282
510.502704	0.180657
510.720369	0.179529
510.938016	0.179906
511.155645	0.179629
511.373255	0.178581
511.590848	0.177524
511.808422	0.177552
512.025977	0.178910
512.243515	0.178421
512.461034	0.179446
512.678536	0.180845
512.896018	0.180512
513.113483	0.181311
513.330930	0.181622
513.548358	0.182232
513.765768	0.181759
513.983160	0.181456
514.200533	0.182019
514.417889	0.182137
514.635226	0.181652
514.852545	0.181684
515.069845	0.180950
515.287128	0.181724
515.504392	0.181524
515.721638	0.182148
515.938866	0.182027
516.156075	0.182714
516.373267	0.182874
516.590440	0.182743
516.807594	0.183390
517.024731	0.183520
517.241850	0.184177
517.458950	0.185239
517.676032	0.185873
517.893095	0.186082
518.110141	0.186071
518.327168	0.186588
518.544177	0.187483
518.761168	0.187567
518.978141	0.188143
519.195095	0.187925
519.412031	0.187105
519.628949	0.186472
519.845849	0.186228
520.062731	0.186583
520.279594	0.186191
520.496439	0.186048
520.713266	0.185826
520.930074	0.185910
521.146865	0.186138
521.363637	0.187223
521.580391	0.187193
521.797127	0.187697
522.013844	0.187194
522.230543	0.187572
522.447224	0.188444
522.663887	0.189444
522.880532	0.189992
523.097158	0.190049
523.313766	0.189890
523.530356	0.191147
523.746928	0.191250
523.963481	0.192130
524.180017	0.191781
524.396534	0.191108
524.613032	0.191036
524.829513	0.191379
525.045975	0.191765
525.262420	0.192513
525.478845	0.192142
525.695253	0.193352
525.911643	0.193494
526.128014	0.194591
526.344367	0.195403
526.560702	0.196039
526.777018	0.196153
526.993316	0.196690
527.209597	0.197053
527.425858	0.197888
527.642102	0.197011
527.858328	0.197940
528.074535	0.198305
528.290724	0.198513
528.506894	0.198651
528.723047	0.199128
528.939181	0.199145
529.155297	0.199194
529.371395	0.198948
529.587475	0.199919
529.803536	0.199609
530.019579	0.199350
530.235604	0.199874
530.451611	0.200097
530.667600	0.200367
530.883570	0.200871
531.099522	0.200713
531.315456	0.201074
531.531372	0.201541
531.747269	0.201945
531.963148	0.202663
532.179009	0.202734
532.394852	0.203006
532.610676	0.203448
532.826482	0.204013
533.042271	0.204706
533.258040	0.205545
533.473792	0.206059
533.689525	0.206296
533.905240	0.207062
534.120937	0.207412
534.336616	0.208073
534.552277	0.208627
534.767919	0.208922
534.983543	0.209112
535.199149	0.209095
535.414736	0.208988
535.630306	0.209552
535.845857	0.209339
536.061390	0.209069
536.276904	0.209519
536.492401	0.209603
536.707879	0.209638
536.923339	0.209961
537.138781	0.210083
537.354204	0.210637
537.569610	0.210495
537.784997	0.211121
538.000366	0.212194
538.215716	0.212415
538.431049	0.212708
538.646363	0.212848
538.861659	0.213046
539.076937	0.213575
539.292196	0.213313
539.507438	0.213993
539.722661	0.213758
539.937866	0.213550
540.153052	0.213189
540.368221	0.213441
540.583371	0.214036
540.798503	0.214289
541.013617	0.214255
541.228712	0.214821
541.443789	0.214677
541.658848	0.215150
541.873889	0.215660
542.088912	0.216364
542.303916	0.217036
542.518902	0.216966
542.733870	0.217399
542.948820	0.218059
543.163752	0.218892
543.378665	0.219914
543.593560	0.220633
543.808437	0.220680
544.023295	0.221135
544.238136	0.220917
544.452958	0.221607
544.667762	0.221665
544.882548	0.221786
545.097315	0.222289
545.312064	0.221924
545.526795	0.221796
545.741508	0.222038
545.956203	0.222584
546.170879	0.222574
546.385537	0.223396
546.600177	0.223870
546.814799	0.224075
547.029402	0.223547
547.243988	0.223870
547.458555	0.224284
547.673103	0.225134
547.887634	0.224991
548.102146	0.225549
548.316640	0.225022
548.531116	0.224953
548.745574	0.225502
548.960013	0.225996
549.174435	0.226379
549.388838	0.226452
549.603222	0.226546
549.817589	0.226685
550.031937	0.227183
550.246267	0.227637
550.460579	0.227937
550.674873	0.228146
550.889148	0.228145
551.103405	0.228338
551.317644	0.228197
551.531865	0.228715
551.746068	0.229019
551.960252	0.228898
552.174418	0.229209
552.388566	0.229957
552.602696	0.229999
552.816807	0.230588
553.030900	0.230970
553.244975	0.231463
553.459032	0.230970
553.673070	0.231446
553.887091	0.231789
554.101093	0.232128
554.315077	0.231965
554.529042	0.231976
554.742990	0.231827
554.956919	0.232020
555.170830	0.232227
555.384722	0.232648
555.598597	0.232579
555.812453	0.232794
556.026291	0.232695
556.240111	0.233503
556.453913	0.233999
556.667696	0.234505
556.881461	0.234603
557.095208	0.234818
557.308937	0.234915
557.522647	0.235164
557.736339	0.235469
557.950013	0.235604
558.163669	0.235600
558.377307	0.236204
558.590926	0.236191
558.804527	0.236886
559.018110	0.236906
559.231675	0.237497
559.445221	0.237806
559.658749	0.237848
559.872259	0.237849
560.085751	0.238223
560.299225	0.238355
560.512680	0.238644
560.726117	0.238346
560.939536	0.238560
561.152937	0.238608
561.366319	0.238519
561.579683	0.239053
561.793029	0.239755
562.006357	0.239958
562.219667	0.240273
562.432958	0.240257
562.646231	0.240381
562.859486	0.241060
563.072723	0.241156
563.285941	0.242073
563.499141	0.241818
563.712323	0.241972
563.925487	0.241296
564.138632	0.241125
564.351760	0.241608
564.564869	0.242086
564.777960	0.241845
564.991032	0.241716
565.204087	0.241224
565.417123	0.241451
565.630141	0.241715
565.843140	0.242388
566.056122	0.242608
566.269085	0.242610
566.482030	0.242264
566.694957	0.242759
566.907866	0.243240
567.120756	0.243266
567.333628	0.243786
567.546482	0.243580
567.759318	0.244436
567.972135	0.244517
568.184935	0.244855
568.397716	0.245384
568.610478	0.245840
568.823223	0.246003
569.035949	0.246410
569.248657	0.246527
569.461347	0.246846
569.674019	0.246239
569.886672	0.246484
570.099308	0.246800
570.311925	0.246722
570.524523	0.246254
570.737104	0.246126
570.949666	0.246598
571.162210	0.246716
571.374736	0.246948
571.587244	0.247335
571.799733	0.247458
572.012205	0.247345
572.224658	0.247675
572.437092	0.248152
572.649509	0.249012
572.861907	0.248235
573.074287	0.248674
573.286649	0.248818
573.498993	0.249106
573.711318	0.249125
573.923625	0.249587
574.135914	0.250074
574.348185	0.250202
574.560438	0.250211
574.772672	0.251131
574.984888	0.251035
575.197086	0.251258
575.409266	0.251338
575.621427	0.251918
575.833570	0.252199
576.045695	0.252241
576.257802	0.252684
576.469890	0.252270
576.681961	0.252731
576.894013	0.252966
577.106046	0.253070
577.318062	0.253400
577.530059	0.253475
577.742039	0.253530
577.954000	0.253426
578.165942	0.253850
578.377867	0.254365
578.589773	0.254533
578.801661	0.254679
579.013531	0.255086
579.225382	0.254961
579.437216	0.255143
579.649031	0.255315
579.860828	0.255811
580.072606	0.255769
580.284367	0.256342
580.496109	0.256228
580.707833	0.255745
580.919539	0.255839
581.131227	0.255932
581.342896	0.256152
581.554547	0.256173
581.766180	0.256493
581.977795	0.256355
582.189391	0.256444
582.400969	0.256928
582.612529	0.257403
582.824071	0.257397
583.035595	0.257795
583.247100	0.258058
583.458587	0.258497
583.670056	0.258505
583.881506	0.258893
584.092939	0.258850
584.304353	0.258621
584.515749	0.259176
584.727127	0.259395
584.938486	0.259903
585.149828	0.259785
585.361151	0.260200
585.572456	0.260389
585.783742	0.260624
585.995011	0.261120
586.206261	0.261451
586.417493	0.261583
586.628706	0.261714
586.839902	0.261545
587.051079	0.261852
587.262238	0.261736
587.473379	0.262111
587.684502	0.262057
587.895606	0.262183
588.106692	0.262039
588.317760	0.262287
588.528810	0.262512
588.739841	0.263018
588.950855	0.262955
589.161850	0.263340
589.372827	0.263534
589.583785	0.263909
589.794726	0.264447
590.005648	0.265098
590.216552	0.265183
590.427437	0.265522
590.638305	0.265635
590.849154	0.266052
591.059985	0.266144
591.270798	0.265940
591.481592	0.266505
591.692369	0.266047
591.903127	0.266376
592.113867	0.266463
592.324588	0.266978
592.535292	0.266728
592.745977	0.267230
592.956644	0.267156
593.167293	0.267526
593.377923	0.267269
593.588536	0.267669
593.799130	0.267744
594.009706	0.268257
594.220263	0.268170
594.430803	0.268708
594.641324	0.268284
594.851827	0.268411
595.062312	0.268589
595.272778	0.268652
595.483227	0.268848
595.693657	0.268727
595.904069	0.268508
596.114462	0.268508
596.324838	0.268922
596.535195	0.269466
596.745534	0.269811
596.955855	0.269808
597.166157	0.270274
597.376441	0.270514
597.586707	0.270814
597.796955	0.271496
598.007185	0.272006
598.217396	0.272064
598.427589	0.272454
598.637764	0.272606
598.847921	0.272997
599.058060	0.272773
599.268180	0.273245
599.478282	0.273464
599.688366	0.273378
599.898431	0.273624
600.108479	0.273734
600.318508	0.273676
600.528519	0.274317
600.738511	0.274825
600.948486	0.274854
601.158442	0.274870
601.368380	0.275609
601.578300	0.275877
601.788202	0.275732
601.998085	0.275648
602.207950	0.275748
602.417797	0.275472
602.627626	0.275663
602.837436	0.276473
603.047228	0.276316
603.257002	0.275894
603.466758	0.275835
603.676496	0.276116
603.886215	0.276333
604.095916	0.276574
604.305599	0.276701
604.515264	0.276388
604.724910	0.276335
604.934538	0.276537
605.144148	0.276801
605.353740	0.277321
605.563314	0.276981
605.772869	0.277357
605.982406	0.277312
606.191925	0.277710
606.401425	0.277905
606.610908	0.278032
606.820372	0.278136
607.029818	0.278269
607.239246	0.278293
607.448655	0.278696
607.658047	0.278524
607.867420	0.279161
608.076775	0.278976
608.286111	0.279299
608.495430	0.279811
608.704730	0.280283
608.914012	0.280426
609.123275	0.280512
609.332521	0.281168
609.541748	0.281419
609.750957	0.281090
609.960148	0.281396
610.169321	0.281260
610.378475	0.281374
610.587611	0.281373
610.796729	0.281521
611.005829	0.281887
611.214910	0.281641
611.423974	0.281952
611.633019	0.282418
611.842045	0.282720
612.051054	0.283281
612.260044	0.283364
612.469017	0.283646
612.677970	0.283844
612.886906	0.283708
613.095824	0.283994
613.304723	0.283968
613.513604	0.283992
613.722467	0.284143
613.931311	0.284035
614.140138	0.284131
614.348946	0.284100
614.557736	0.284101
614.766507	0.284067
614.975261	0.284361
615.183996	0.284584
615.392713	0.284664
615.601412	0.284804
615.810092	0.285024
616.018754	0.284978
616.227399	0.285267
616.436024	0.285437
616.644632	0.285767
616.853222	0.285664
617.061793	0.285972
617.270346	0.285876
617.478880	0.285599
617.687397	0.285974
617.895895	0.286243
618.104375	0.286038
618.312837	0.286258
618.521281	0.286611
618.729706	0.286866
618.938113	0.286819
619.146502	0.287066
619.354873	0.287269
619.563226	0.287172
619.771560	0.287118
619.979876	0.287352
620.188174	0.287759
620.396453	0.287901
620.604715	0.287960
620.812958	0.288213
621.021183	0.288608
621.229390	0.288958
621.437578	0.289232
621.645748	0.289540
621.853900	0.289849
622.062034	0.289857
622.270150	0.289930
622.478247	0.290128
622.686326	0.290287
622.894387	0.290570
623.102430	0.290519
623.310454	0.290592
623.518461	0.290632
623.726449	0.291039
623.934418	0.291152
624.142370	0.291440
624.350303	0.291530
624.558218	0.291506
624.766115	0.291638
624.973994	0.292047
625.181855	0.292184
625.389697	0.292600
625.597521	0.292617
625.805327	0.292895
626.013114	0.293119
626.220883	0.293352
626.428634	0.293540
626.636367	0.293555
626.844082	0.293487
627.051778	0.293530
627.259457	0.293749
627.467117	0.294232
627.674758	0.294274
627.882382	0.294346
628.089987	0.294646
628.297574	0.295168
628.505143	0.295368
628.712694	0.295691
628.920226	0.295994
629.127740	0.296099
629.335236	0.296078
629.542714	0.296245
629.750174	0.296507
629.957615	0.296353
630.165038	0.296402
630.372443	0.296515
630.579829	0.296740
630.787198	0.297080
630.994548	0.297298
631.201880	0.297248
631.409194	0.297509
631.616489	0.297406
631.823766	0.297929
632.031025	0.297860
632.238266	0.298071
632.445489	0.298396
632.652693	0.298299
632.859879	0.298426
633.067047	0.298654
633.274197	0.298823
633.481329	0.298924
633.688442	0.298890
633.895537	0.299163
634.102614	0.299492
634.309672	0.299279
634.516713	0.299533
634.723735	0.299547
634.930739	0.299665
635.137724	0.299819
635.344692	0.300421
635.551641	0.300552
635.758572	0.300683
635.965485	0.300874
636.172379	0.301326
636.379256	0.301576
636.586114	0.301841
636.792954	0.302056
636.999775	0.302241
637.206579	0.302271
637.413364	0.302697
637.620131	0.302707
637.826880	0.302895
638.033610	0.303043
638.240323	0.303112
638.447017	0.303236
638.653692	0.303390
638.860350	0.303377
639.066990	0.303647
639.273611	0.303830
639.480214	0.304620
639.686798	0.304806
639.893365	0.305050
640.099913	0.305048
640.306443	0.305336
640.512955	0.305596
640.719449	0.306035
640.925924	0.306149
641.132381	0.306369
641.338820	0.306108
641.545241	0.306146
641.751644	0.306130
641.958028	0.306527
642.164394	0.306593
642.370742	0.306724
642.577071	0.306704
642.783383	0.306671
642.989676	0.306670
643.195951	0.307032
643.402207	0.307387
643.608446	0.307618
643.814666	0.308076
644.020868	0.308422
644.227052	0.308435
644.433218	0.308494
644.639365	0.308744
644.845494	0.308755
645.051605	0.308739
645.257698	0.308743
645.463772	0.308794
645.669828	0.308773
645.875866	0.308613
646.081886	0.308863
646.287888	0.309088
646.493871	0.309092
646.699836	0.309352
646.905783	0.309605
647.111712	0.309568
647.317622	0.309927
647.523514	0.309936
647.729388	0.310250
647.935244	0.310342
648.141082	0.310892
648.346901	0.311460
648.552702	0.311802
648.758485	0.312127
648.964250	0.312685
649.169996	0.312989
649.375724	0.313555
649.581434	0.313824
649.787126	0.314241
649.992800	0.314188
650.198455	0.314086
650.404092	0.314269
650.609711	0.314508
650.815311	0.314628
651.020894	0.314871
651.226458	0.314754
651.432004	0.314645
651.637532	0.314656
651.843041	0.314780
652.048532	0.314697
652.254006	0.314869
652.459460	0.314891
652.664897	0.314857
652.870315	0.314560
653.075716	0.314648
653.281097	0.315245
653.486461	0.315513
653.691807	0.315789
653.897134	0.316353
654.102443	0.316419
654.307734	0.316789
654.513006	0.317102
654.718261	0.317582
654.923497	0.317984
655.128715	0.318027
655.333915	0.318125
655.539096	0.318556
655.744259	0.318629
655.949404	0.318802
656.154531	0.318862
656.359640	0.319142
656.564730	0.319337
656.769802	0.319638
656.974856	0.320079
657.179892	0.320572
657.384909	0.320448
657.589908	0.320758
657.794889	0.320965
657.999852	0.321081
658.204797	0.321123
658.409723	0.321379
658.614631	0.321402
658.819521	0.321189
659.024393	0.321248
659.229246	0.321412
659.434081	0.321794
659.638898	0.322282
659.843697	0.322383
660.048478	0.322727
660.253240	0.323076
660.457984	0.323195
660.662710	0.323505
660.867417	0.323585
661.072107	0.324155
661.276778	0.324208
661.481431	0.324138
661.686066	0.324515
661.890682	0.324801
662.095281	0.325050
662.299861	0.325327
662.504422	0.325460
662.708966	0.325752
662.913491	0.325832
663.117999	0.326022
663.322488	0.326304
663.526958	0.326621
663.731411	0.326757
663.935845	0.326711
664.140261	0.327096
664.344659	0.327215
664.549038	0.327339
664.753400	0.327488
664.957743	0.327749
665.162068	0.328084
665.366375	0.328087
665.570663	0.328127
665.774933	0.328514
665.979185	0.328515
666.183419	0.328943
666.387635	0.329384
666.591832	0.329585
666.796011	0.329765
667.000172	0.329916
667.204315	0.330052
667.408439	0.330333
667.612545	0.330617
667.816634	0.331145
668.020703	0.331553
668.224755	0.331803
668.428788	0.331803
668.632803	0.331766
668.836800	0.331916
669.040779	0.332124
669.244739	0.332318
669.448681	0.332302
669.652605	0.332167
669.856511	0.332069
670.060399	0.332157
670.264268	0.332639
670.468119	0.332830
670.671952	0.332706
670.875767	0.332908
671.079563	0.333202
671.283341	0.333368
671.487101	0.333571
671.690843	0.333939
671.894567	0.333874
672.098272	0.334037
672.301959	0.334603
672.505628	0.335097
672.709278	0.335540
672.912911	0.335569
673.116525	0.335886
673.320121	0.336273
673.523699	0.336525
673.727258	0.336932
673.930799	0.336956
674.134322	0.336976
674.337827	0.337345
674.541314	0.337405
674.744782	0.337779
674.948232	0.337867
675.151664	0.338089
675.355078	0.338154
675.558474	0.338188
675.761851	0.338442
675.965210	0.338805
676.168551	0.339084
676.371873	0.339264
676.575178	0.339457
676.778464	0.339799
676.981732	0.339939
677.184981	0.340377
677.388213	0.340745
677.591426	0.340959
677.794621	0.341214
677.997798	0.341088
678.200956	0.341436
678.404097	0.341536
678.607219	0.341899
678.810323	0.342196
679.013408	0.342321
679.216476	0.342536
679.419525	0.342770
679.622556	0.342704
679.825569	0.343200
680.028563	0.343580
680.231540	0.343760
680.434498	0.343780
680.637438	0.343983
680.840359	0.344106
681.043263	0.344374
681.246148	0.344598
681.449015	0.345130
681.651864	0.345169
681.854694	0.345131
682.057506	0.345479
682.260301	0.345635
682.463076	0.345822
682.665834	0.345994
682.868573	0.346345
683.071295	0.346809
683.273998	0.346702
683.476682	0.346654
683.679349	0.347021
683.881997	0.347115
684.084627	0.347378
684.287239	0.347439
684.489833	0.347621
684.692408	0.347595
684.894965	0.347510
685.097504	0.347956
685.300025	0.348600
685.502527	0.348649
685.705012	0.348797
685.907478	0.349088
686.109925	0.349522
686.312355	0.349892
686.514766	0.350253
686.717159	0.350675
686.919534	0.350541
687.121891	0.350564
687.324230	0.350782
687.526550	0.351338
687.728852	0.351467
687.931136	0.351731
688.133401	0.351945
688.335649	0.351884
688.537878	0.351923
688.740089	0.352437
688.942281	0.352911
689.144456	0.353069
689.346612	0.352907
689.548750	0.353087
689.750870	0.353039
689.952971	0.353049
690.155055	0.353332
690.357120	0.353442
690.559167	0.353555
690.761195	0.353641
690.963206	0.353773
691.165198	0.354033
691.367172	0.354053
691.569128	0.354168
691.771065	0.354717
691.972984	0.354974
692.174885	0.355281
692.376768	0.355550
692.578633	0.355712
692.780479	0.356032
692.982308	0.356038
693.184118	0.356329
693.385909	0.356420
693.587683	0.356274
693.789438	0.356344
693.991175	0.356450
694.192894	0.356393
694.394595	0.356433
694.596277	0.356583
694.797941	0.356912
694.999587	0.357156
695.201215	0.357527
695.402824	0.357558
695.604416	0.357764
695.805989	0.357935
696.007543	0.358072
696.209080	0.358093
696.410598	0.357999
696.612099	0.358342
696.813580	0.358547
697.015044	0.358463
697.216490	0.358943
697.417917	0.359157
697.619326	0.358945
697.820717	0.359214
698.022089	0.359228
698.223444	0.359653
698.424780	0.359765
698.626098	0.359747
698.827397	0.360090
699.028679	0.359914
699.229942	0.360038
699.431187	0.360377
699.632414	0.360602
699.833622	0.361114
700.034813	0.361186
700.235985	0.361258
700.437139	0.361582
700.638274	0.361684
700.839392	0.362238
701.040491	0.362428
701.241572	0.362815
701.442635	0.362896
701.643679	0.362712
701.844706	0.362909
702.045714	0.363133
702.246704	0.363035
702.447675	0.363244
702.648629	0.363125
702.849564	0.363499
703.050481	0.363504
703.251380	0.363510
703.452260	0.363990
703.653122	0.364062
703.853966	0.363935
704.054792	0.364252
704.255600	0.364404
704.456389	0.364289
704.657160	0.364411
704.857913	0.364254
705.058648	0.364194
705.259365	0.364348
705.460063	0.364048
705.660743	0.363893
705.861405	0.363922
706.062048	0.363640
706.262674	0.363669
706.463281	0.363566
706.663870	0.363779
706.864441	0.364186
707.064993	0.364012
707.265527	0.364279
707.466043	0.364390
707.666541	0.364440
707.867021	0.364660
708.067482	0.364912
708.267925	0.364640
708.468350	0.364787
708.668757	0.364647
708.869145	0.364503
709.069516	0.364771
709.269868	0.365125
709.470201	0.365142
709.670517	0.365479
709.870814	0.365550
710.071093	0.365828
710.271354	0.366123
710.471597	0.366087
710.671821	0.366489
710.872028	0.366422
711.072216	0.366471
711.272385	0.366273
711.472537	0.366109
711.672670	0.366072
711.872785	0.365891
712.072882	0.365512
712.272961	0.365379
712.473021	0.365278
712.673063	0.365134
712.873087	0.365084
713.073093	0.365204
713.273081	0.365186
713.473050	0.365358
713.673001	0.365371
713.872934	0.365583
714.072849	0.366031
714.272745	0.366363
714.472623	0.366512
714.672483	0.366467
714.872325	0.366580
715.072148	0.366692
715.271954	0.366582
715.471741	0.367102
715.671509	0.367118
715.871260	0.367014
716.070992	0.366689
716.270707	0.366689
716.470403	0.366835
716.670080	0.366705
716.869740	0.366448
717.069381	0.366515
717.269004	0.366066
717.468609	0.365961
717.668195	0.365989
717.867764	0.365819
718.067314	0.365752
718.266846	0.365692
718.466360	0.365826
718.665855	0.366026
718.865332	0.365879
719.064791	0.365834
719.264232	0.365921
719.463655	0.365807
719.663059	0.365953
719.862445	0.366245
720.061813	0.366200
720.261163	0.366192
720.460494	0.366135
720.659807	0.365823
720.859102	0.365824
721.058379	0.365712
721.257638	0.365511
721.456878	0.365218
721.656100	0.364706
721.855304	0.364725
722.054490	0.364618
722.253657	0.364507
722.452806	0.364773
722.651937	0.364750
722.851050	0.364405
723.050145	0.364386
723.249221	0.364386
723.448279	0.364394
723.647319	0.364095
723.846340	0.363778
724.045344	0.363658
724.244329	0.363218
724.443296	0.363056
724.642245	0.363144
724.841175	0.363336
725.040088	0.363365
725.238982	0.363290
725.437857	0.363448
725.636715	0.363747
725.835554	0.363836
726.034376	0.364283
726.233179	0.364261
726.431963	0.364192
726.630730	0.363856
726.829478	0.363747
727.028208	0.363659
727.226920	0.363633
727.425614	0.363446
727.624289	0.363045
727.822946	0.362813
728.021585	0.362510
728.220206	0.362614
728.418808	0.362716
728.617392	0.362795
728.815958	0.362895
729.014506	0.362658
729.213036	0.362505
729.411547	0.362200
729.610040	0.361882
729.808515	0.361897
730.006972	0.361711
730.205410	0.361318
730.403831	0.361123
730.602233	0.360872
730.800616	0.360714
730.998982	0.360649
731.197329	0.360777
731.395658	0.361104
731.593969	0.360901
731.792262	0.360712
731.990536	0.360669
732.188793	0.360579
732.387031	0.360551
732.585250	0.360523
732.783452	0.360330
732.981635	0.360178
733.179800	0.359813
733.377947	0.359855
733.576076	0.359729
733.774186	0.359755
733.972278	0.359745
734.170352	0.359465
734.368408	0.359082
734.566446	0.359031
734.764465	0.359041
734.962466	0.358837
735.160449	0.358800
735.358413	0.358982
735.556360	0.358412
735.754288	0.357874
735.952198	0.357729
736.150090	0.357638
736.347963	0.357378
736.545818	0.357237
736.743655	0.356954
736.941474	0.356786
737.139275	0.356344
737.337057	0.356479
737.534821	0.356488
737.732567	0.356245
737.930295	0.356285
738.128005	0.356101
738.325696	0.355993
738.523369	0.355748
738.721024	0.355445
738.918660	0.355166
739.116279	0.355000
739.313879	0.355058
739.511461	0.355197
739.709024	0.354847
739.906570	0.354699
740.104097	0.354295
740.301606	0.354247
740.499097	0.354272
740.696569	0.354250
740.894024	0.354184
741.091460	0.353728
741.288878	0.353180
741.486277	0.353128
741.683659	0.353097
741.881022	0.353126
742.078367	0.352973
742.275694	0.352623
742.473002	0.352506
742.670293	0.352195
742.867565	0.352121
743.064819	0.352587
743.262054	0.352482
743.459272	0.352123
743.656471	0.351745
743.853652	0.351599
744.050815	0.351496
744.247959	0.351222
744.445085	0.351244
744.642194	0.350846
744.839283	0.350396
745.036355	0.349976
745.233408	0.349888
745.430444	0.349962
745.627461	0.349742
745.824459	0.349540
746.021440	0.349267
746.218402	0.348668
746.415346	0.348615
746.612272	0.348294
746.809180	0.348259
747.006069	0.347814
747.202940	0.347759
747.399793	0.347711
747.596628	0.347401
747.793444	0.347335
747.990243	0.347253
748.187023	0.346907
748.383784	0.347035
748.580528	0.346830
748.777253	0.346723
748.973960	0.346434
749.170649	0.346251
749.367320	0.346103
749.563973	0.346021
749.760607	0.346217
749.957223	0.346422
750.153821	0.345893
750.350400	0.345881
750.546962	0.345901
750.743505	0.345466
750.940030	0.345223
751.136536	0.345270
751.333025	0.345163
751.529495	0.345005
751.725947	0.344672
751.922381	0.344458
752.118796	0.344133
752.315194	0.343689
752.511573	0.343692
752.707934	0.343635
752.904276	0.343257
753.100601	0.342911
753.296907	0.342555
753.493195	0.342241
753.689465	0.342342
753.885716	0.342315
754.081949	0.342247
754.278164	0.342063
754.474361	0.341834
754.670540	0.341900
754.866700	0.341687
755.062843	0.341490
755.258967	0.341345
755.455072	0.341162
755.651160	0.340944
755.847229	0.340906
756.043280	0.340788
756.239313	0.340677
756.435328	0.340389
756.631324	0.340317
756.827302	0.339980
757.023262	0.339819
757.219204	0.339541
757.415127	0.339152
757.611033	0.339045
757.806920	0.338943
758.002788	0.338918
758.198639	0.338751
758.394471	0.338382
758.590286	0.338336
758.786081	0.338339
758.981859	0.338062
759.177619	0.338166
759.373360	0.338208
759.569083	0.337827
759.764788	0.337344
759.960474	0.337081
760.156143	0.337210
760.351793	0.336926
760.547425	0.336912
760.743038	0.337212
760.938634	0.337075
761.134211	0.336884
761.329770	0.336804
761.525311	0.336858
761.720833	0.337013
761.916338	0.336555
762.111824	0.336889
762.307292	0.336727
762.502741	0.336319
762.698173	0.336113
762.893586	0.335927
763.088981	0.335935
763.284358	0.335701
763.479716	0.335364
763.675057	0.335472
763.870379	0.335025
764.065683	0.334545
764.260968	0.334443
764.456236	0.334317
764.651485	0.334122
764.846716	0.334039
765.041929	0.333947
765.237123	0.333734
765.432299	0.333415
765.627457	0.333326
765.822597	0.333312
766.017719	0.332965
766.212822	0.332861
766.407907	0.332522
766.602974	0.332182
766.798023	0.332300
766.993054	0.332340
767.188066	0.332255
767.383060	0.332123
767.578036	0.332138
767.772993	0.332427
767.967933	0.332036
768.162854	0.332206
768.357757	0.332422
768.552642	0.331999
768.747508	0.331820
768.942356	0.331767
769.137186	0.331885
769.331998	0.332060
769.526792	0.331828
769.721567	0.332023
769.916324	0.331914
770.111063	0.331527
770.305784	0.331530
770.500486	0.331592
770.695171	0.331525
770.889837	0.331465
771.084484	0.331097
771.279114	0.331083
771.473725	0.330963
771.668318	0.330676
771.862893	0.330584
772.057450	0.330575
772.251988	0.330140
772.446509	0.330306
772.641011	0.330407
772.835494	0.330258
773.029960	0.330244
773.224407	0.330101
773.418836	0.330194
773.613247	0.330428
773.807640	0.330089
774.002014	0.329990
774.196370	0.329548
774.390708	0.329124
774.585028	0.328919
774.779330	0.328647
774.973613	0.328401
775.167878	0.328357
775.362125	0.328026
775.556354	0.328236
775.750564	0.328223
775.944756	0.328252
776.138930	0.327968
776.333086	0.327894
776.527223	0.327914
776.721343	0.327903
776.915444	0.327748
777.109526	0.327574
777.303591	0.327452
777.497637	0.327380
777.691666	0.327435
777.885676	0.327671
778.079667	0.327678
778.273641	0.327339
778.467596	0.327407
778.661533	0.327584
778.855452	0.327547
779.049352	0.327496
779.243235	0.327806
779.437099	0.327658
779.630945	0.327418
779.824773	0.327465
780.018582	0.327505
780.212373	0.327471
780.406146	0.327221
780.599901	0.327324
780.793638	0.327298
780.987356	0.326956
781.181056	0.326965
781.374738	0.326727
781.568402	0.326835
781.762047	0.326887
781.955674	0.326944
782.149283	0.326675
782.342874	0.326705
782.536447	0.326590
782.730001	0.326521
782.923537	0.326203
783.117055	0.326459
783.310555	0.326350
783.504036	0.326315
783.697499	0.326314
783.890944	0.326385
784.084371	0.326318
784.277780	0.326454
784.471170	0.326523
784.664542	0.326663
784.857896	0.326614
785.051231	0.326570
785.244549	0.326386
785.437848	0.326227
785.631129	0.326394
785.824392	0.326384
786.017636	0.326350
786.210863	0.326505
786.404071	0.326655
786.597260	0.326657
786.790432	0.326599
786.983585	0.326712
787.176721	0.326750
787.369838	0.326678
787.562936	0.326664
787.756017	0.326648
787.949079	0.326574
788.142123	0.326686
788.335149	0.326707
788.528156	0.326890
788.721146	0.326815
788.914117	0.326684
789.107070	0.326809
789.300005	0.326972
789.492921	0.327104
789.685819	0.326867
789.878699	0.326656
790.071561	0.326681
790.264405	0.326956
790.457230	0.327217
790.650037	0.327378
790.842826	0.327099
791.035597	0.327034
791.228349	0.326877
791.421084	0.327198
791.613800	0.327637
791.806497	0.327808
791.999177	0.327640
792.191838	0.327805
792.384481	0.327856
792.577106	0.328383
792.769713	0.328488
792.962301	0.328637
793.154871	0.328844
793.347423	0.328551
793.539957	0.328573
793.732473	0.328605
793.924970	0.328454
794.117449	0.328526
794.309910	0.328373
794.502353	0.328450
794.694777	0.328571
794.887183	0.328420
795.079571	0.328556
795.271941	0.328522
795.464293	0.328584
795.656626	0.328803
795.848941	0.328820
796.041238	0.329081
796.233516	0.328904
796.425777	0.329065
796.618019	0.329277
796.810243	0.329415
797.002449	0.329904
797.194636	0.329984
797.386805	0.330168
797.578956	0.330590
797.771089	0.330464
797.963204	0.330651
798.155300	0.330504
798.347378	0.330555
798.539438	0.330760
798.731480	0.330531
798.923503	0.330267
799.115509	0.329949
799.307496	0.329769
799.499465	0.329931
799.691415	0.330397
799.883348	0.330433
800.075262	0.330487
800.267158	0.330470
800.459035	0.330826
800.650895	0.331439
800.842736	0.331950
801.034559	0.332055
801.226364	0.332223
801.418150	0.332126
801.609919	0.332368
801.801669	0.332565
801.993401	0.332810
802.185114	0.332479
802.376810	0.332631
802.568487	0.332778
802.760146	0.333111
802.951787	0.333287
803.143409	0.333369
803.335014	0.333726
803.526600	0.333816
803.718168	0.333906
803.909717	0.334211
804.101249	0.334108
804.292762	0.334140
804.484257	0.334239
804.675734	0.334350
804.867192	0.334581
805.058632	0.334544
805.250054	0.334947
805.441458	0.335249
805.632844	0.335602
805.824211	0.336177
806.015561	0.336471
806.206891	0.337061
806.398204	0.337404
806.589499	0.337740
806.780775	0.338208
806.972033	0.338278
807.163273	0.338530
807.354495	0.338913
807.545698	0.339149
807.736883	0.339359
807.928050	0.339343
808.119199	0.339447
808.310329	0.339655
808.501441	0.339827
808.692535	0.340057
808.883611	0.340492
809.074669	0.341008
809.265708	0.341016
809.456729	0.341005
809.647732	0.341171
809.838717	0.341304
810.029683	0.341558
810.220632	0.341921
810.411562	0.342219
810.602474	0.342247
810.793367	0.341922
810.984242	0.342494
811.175100	0.343066
811.365938	0.343494
811.556759	0.344033
811.747562	0.344311
811.938346	0.344348
812.129112	0.344649
812.319860	0.344887
812.510589	0.345399
812.701300	0.345275
812.891994	0.345226
813.082668	0.345044
813.273325	0.345019
813.463964	0.344938
813.654584	0.345246
813.845186	0.345366
814.035769	0.345304
814.226335	0.345343
814.416882	0.345622
814.607411	0.346196
814.797922	0.346707
814.988415	0.347169
815.178889	0.347733
815.369345	0.348062
815.559783	0.348407
815.750203	0.348840
815.940605	0.349375
816.130988	0.349524
816.321353	0.349657
816.511700	0.349917
816.702028	0.349727
816.892339	0.350069
817.082631	0.350609
817.272905	0.350818
817.463161	0.351297
817.653398	0.351204
817.843617	0.351417
818.033819	0.351404
818.224001	0.351720
818.414166	0.352343
818.604312	0.352553
818.794440	0.352213
818.984550	0.352340
819.174642	0.352492
819.364716	0.352769
819.554771	0.353555
819.744808	0.353805
819.934827	0.354112
820.124827	0.354381
820.314810	0.354683
820.504774	0.355080
820.694720	0.355484
820.884647	0.355680
821.074557	0.356025
821.264448	0.355901
821.454321	0.356179
821.644176	0.356463
821.834012	0.356586
822.023831	0.356690
822.213631	0.356896
822.403413	0.357055
822.593176	0.356904
822.782922	0.357332
822.972649	0.357584
823.162358	0.358055
823.352049	0.358194
823.541721	0.358643
823.731376	0.359054
823.921012	0.359511
824.110629	0.359906
824.300229	0.360522
824.489811	0.360716
824.679374	0.360803
824.868919	0.361212
825.058445	0.361400
825.247954	0.361896
825.437444	0.362175
825.626916	0.362473
825.816370	0.362795
826.005806	0.363316
826.195223	0.363611
826.384622	0.364253
826.574003	0.364869
826.763366	0.365187
826.952711	0.365583
827.142037	0.365652
827.331345	0.365843
827.520635	0.366460
827.709906	0.367007
827.899160	0.367394
828.088395	0.367782
828.277612	0.368052
828.466810	0.368557
828.655991	0.368786
828.845153	0.369746
829.034297	0.370459
829.223423	0.370936
829.412531	0.371100
829.601620	0.371934
829.790691	0.372152
829.979744	0.372278
830.168779	0.373033
830.357795	0.373154
830.546793	0.372973
830.735773	0.373215
830.924735	0.373410
831.113679	0.373619
831.302604	0.373731
831.491511	0.374216
831.680400	0.374886
831.869271	0.374855
832.058123	0.375535
832.246957	0.376228
832.435773	0.376712
832.624571	0.377089
832.813351	0.377655
833.002112	0.377862
833.190855	0.378442
833.379580	0.378622
833.568287	0.378866
833.756975	0.379323
833.945645	0.379585
834.134297	0.379567
834.322931	0.379976
834.511547	0.380403
834.700144	0.380786
834.888723	0.380704
835.077284	0.381322
835.265826	0.381919
835.454351	0.382429
835.642857	0.382805
835.831345	0.383729
836.019815	0.383937
836.208266	0.384511
836.396699	0.384880
836.585114	0.385488
836.773511	0.385647
836.961890	0.385837
837.150250	0.385599
837.338592	0.385989
837.526916	0.385872
837.715222	0.386421
837.903510	0.386564
838.091779	0.386942
838.280030	0.387444
838.468263	0.387858
838.656477	0.388139
838.844674	0.388817
839.032852	0.389053
839.221012	0.390006
839.409153	0.390113
839.597277	0.390478
839.785382	0.390659
839.973469	0.390688
840.161538	0.391157
840.349589	0.391687
840.537621	0.392200
840.725635	0.392638
840.913631	0.392847
841.101609	0.393386
841.289568	0.393870
841.477509	0.394088
841.665432	0.394767
841.853337	0.394951
842.041224	0.395429
842.229092	0.395763
842.416942	0.396414
842.604774	0.396438
842.792588	0.396836
842.980383	0.397100
843.168160	0.397950
843.355919	0.398513
843.543660	0.399225
843.731382	0.399626
843.919087	0.399804
844.106773	0.400034
844.294441	0.400659
844.482090	0.400733
844.669722	0.401004
844.857335	0.401211
845.044930	0.401295
845.232507	0.401571
845.420065	0.401842
845.607605	0.402903
845.795127	0.403401
845.982631	0.403796
846.170117	0.404238
846.357584	0.404818
846.545033	0.405393
846.732464	0.406079
846.919877	0.406550
847.107272	0.407238
847.294648	0.406826
847.482006	0.407302
847.669346	0.407606
847.856667	0.408661
848.043971	0.409050
848.231256	0.409454
848.418523	0.410102
848.605771	0.410408
848.793002	0.411470
848.980214	0.412494
849.167408	0.413090
849.354584	0.413836
849.541742	0.414062
849.728881	0.414791
849.916002	0.415421
850.103105	0.415322
850.290190	0.415504
850.477256	0.415004
850.664304	0.415000
850.851334	0.415226
851.038346	0.415404
851.225340	0.415841
851.412315	0.415734
851.599272	0.415809
851.786211	0.416345
851.973132	0.416849
852.160034	0.417151
852.346918	0.417366
852.533784	0.417312
852.720632	0.417767
852.907462	0.417818
853.094273	0.418356
853.281066	0.419324
853.467841	0.419568
853.654598	0.419835
853.841336	0.420633
854.028056	0.421479
854.214758	0.422086
854.401442	0.422514
854.588107	0.423341
854.774755	0.423660
854.961384	0.423821
855.147995	0.424816
855.334587	0.425453
855.521162	0.425703
855.707718	0.425951
855.894256	0.426691
856.080775	0.427153
856.267277	0.427264
856.453760	0.427747
856.640225	0.428013
856.826672	0.427979
857.013101	0.428033
857.199511	0.428718
857.385903	0.429066
857.572277	0.429160
857.758633	0.429299
857.944970	0.429609
858.131290	0.430206
858.317591	0.430578
858.503873	0.431128
858.690138	0.432015
858.876384	0.432183
859.062612	0.432961
859.248822	0.433657
859.435014	0.434092
859.621188	0.434866
859.807343	0.435086
859.993480	0.435649
860.179599	0.436016
860.365699	0.436143
860.551781	0.436537
860.737846	0.436342
860.923891	0.436417
861.109919	0.436978
861.295929	0.437087
861.481920	0.437558
861.667893	0.437503
861.853848	0.437935
862.039784	0.438541
862.225702	0.438958
862.411603	0.439475
862.597484	0.439725
862.783348	0.439988
862.969193	0.440291
863.155021	0.440950
863.340830	0.441474
863.526620	0.441374
863.712393	0.441639
863.898147	0.441736
864.083883	0.441926
864.269601	0.442728
864.455301	0.442846
864.640982	0.443434
864.826645	0.443635
865.012290	0.444018
865.197917	0.444516
865.383526	0.444638
865.569116	0.445096
865.754688	0.445714
865.940242	0.445727
866.125777	0.446378
866.311295	0.446501
866.496794	0.446482
866.682275	0.446703
866.867737	0.446623
867.053182	0.447344
867.238608	0.447796
867.424016	0.447967
867.609406	0.448173
867.794778	0.448527
867.980131	0.448877
868.165466	0.449389
868.350783	0.449446
868.536082	0.450239
868.721362	0.450147
868.906625	0.450534
869.091869	0.451178
869.277094	0.451525
869.462302	0.451477
869.647491	0.451702
869.832662	0.451603
870.017815	0.451909
870.202950	0.451524
870.388066	0.451905
870.573165	0.452209
870.758245	0.452391
870.943306	0.452458
871.128350	0.452446
871.313375	0.452800
871.498382	0.453123
871.683371	0.453601
871.868342	0.454117
872.053294	0.454366
872.238229	0.454062
872.423144	0.454099
872.608042	0.454447
872.792922	0.454975
872.977783	0.455117
873.162626	0.455618
873.347451	0.455790
873.532258	0.456031
873.717046	0.456088
873.901816	0.456330
874.086568	0.456177
874.271302	0.456268
874.456017	0.456390
874.640715	0.456148
874.825394	0.455851
875.010055	0.456306
875.194697	0.456746
875.379322	0.457118
875.563928	0.457323
875.748516	0.457423
875.933085	0.457882
876.117637	0.458489
876.302170	0.458948
876.486685	0.459487
876.671182	0.459435
876.855661	0.459241
877.040121	0.459425
877.224563	0.459391
877.408987	0.460460
877.593393	0.460279
877.777780	0.459932
877.962150	0.460240
878.146501	0.460426
878.330833	0.460343
878.515148	0.461116
878.699444	0.460922
878.883722	0.461667
879.067982	0.461355
879.252224	0.461779
879.436447	0.462216
879.620653	0.462039
879.804840	0.461785
879.989008	0.462084
880.173159	0.462199
880.357291	0.462836
880.541405	0.462746
880.725501	0.462896
880.909579	0.462827
881.093638	0.462943
881.277680	0.463687
881.461703	0.464472
881.645707	0.465164
881.829694	0.464524
882.013662	0.464562
882.197612	0.464527
882.381544	0.464610
882.565458	0.464641
882.749353	0.464693
882.933230	0.464224
883.117089	0.463828
883.300930	0.463440
883.484753	0.463900
883.668557	0.463534
883.852343	0.463631
884.036111	0.463534
884.219861	0.463636
884.403592	0.463420
884.587305	0.464309
884.771000	0.464501
884.954677	0.464624
885.138335	0.464763
885.321976	0.465549
885.505598	0.466107
885.689201	0.466365
885.872787	0.466753
886.056354	0.467220
886.239904	0.466966
886.423434	0.467212
886.606947	0.467550
886.790442	0.467959
886.973918	0.467539
887.157376	0.467613
887.340816	0.467289
887.524237	0.467366
887.707641	0.467167
887.891026	0.467074
888.074393	0.466968
888.257741	0.466960
888.441072	0.466388
888.624384	0.466419
888.807678	0.466404
888.990954	0.466241
889.174211	0.465897
889.357451	0.466146
889.540672	0.466052
889.723875	0.465962
889.907059	0.465416
890.090226	0.465248
890.273374	0.464971
890.456504	0.464710
890.639616	0.465092
890.822709	0.465370
891.005785	0.465439
891.188842	0.465324
891.371881	0.465314
891.554901	0.464891
891.737904	0.464952
891.920888	0.465413
892.103854	0.464985
892.286802	0.464816
892.469731	0.464035
892.652643	0.463712
892.835536	0.463588
893.018410	0.463847
893.201267	0.464027
893.384106	0.464218
893.566926	0.464354
893.749728	0.464357
893.932511	0.464494
894.115277	0.465188
894.298024	0.464942
894.480753	0.464909
894.663464	0.464519
894.846157	0.464174
895.028831	0.463921
895.211487	0.463145
895.394125	0.462596
895.576745	0.462429
895.759346	0.462173
895.941930	0.461829
896.124495	0.461338
896.307041	0.461202
896.489570	0.461249
896.672080	0.460682
896.854573	0.460091
897.037046	0.460382
897.219502	0.460407
897.401940	0.459883
897.584359	0.459772
897.766760	0.459835
897.949143	0.459421
898.131507	0.459292
898.313854	0.458936
898.496182	0.458669
898.678492	0.458316
898.860783	0.456891
899.043057	0.456777
899.225312	0.456930
899.407549	0.456322
899.589768	0.456328
899.771968	0.456265
899.954151	0.456714
900.136315	0.456951
900.318461	0.457115
900.500588	0.457668
900.682698	0.457314
900.864789	0.457015
901.046862	0.456628
901.228917	0.456220
901.410953	0.455317
901.592971	0.455298
901.774972	0.454963
901.956953	0.453972
902.138917	0.454260
902.320862	0.454045
902.502790	0.453514
902.684699	0.453172
902.866589	0.452492
903.048462	0.452614
903.230316	0.451717
903.412152	0.451017
903.593970	0.450640
903.775770	0.449767
903.957551	0.449403
904.139314	0.448769
904.321059	0.448691
904.502786	0.448692
904.684494	0.448537
904.866185	0.448211
905.047857	0.447865
905.229510	0.448104
905.411146	0.448191
905.592763	0.447858
905.774363	0.447841
905.955943	0.447325
906.137506	0.446439
906.319051	0.446185
906.500577	0.446251
906.682085	0.446566
906.863575	0.445843
907.045046	0.444802
907.226500	0.444078
907.407935	0.443449
907.589352	0.442897
907.770750	0.442783
907.952131	0.442192
908.133493	0.441278
908.314837	0.440166
908.496163	0.439627
908.677470	0.439338
908.858760	0.438931
909.040031	0.437781
909.221284	0.437543
909.402518	0.436753
909.583735	0.436397
909.764933	0.436391
909.946113	0.436164
910.127275	0.435483
910.308418	0.434905
910.489544	0.434195
910.670651	0.433969
910.851740	0.433688
911.032810	0.433298
911.213863	0.433178
911.394897	0.431674
911.575913	0.430456
911.756911	0.429973
911.937890	0.429467
912.118851	0.429232
912.299794	0.429196
912.480719	0.427988
912.661626	0.427351
912.842514	0.425825
913.023384	0.426273
913.204236	0.426120
913.385070	0.425569
913.565886	0.425070
913.746683	0.424438
913.927462	0.424542
914.108223	0.424340
914.288965	0.424053
914.469690	0.423941
914.650396	0.423098
914.831084	0.422883
915.011754	0.422786
915.192405	0.421472
915.373038	0.420626
915.553653	0.419433
915.734250	0.418828
915.914829	0.418602
916.095389	0.417950
916.275931	0.416970
916.456455	0.416310
916.636961	0.415422
916.817448	0.415691
916.997917	0.415498
917.178368	0.414907
917.358801	0.413939
917.539216	0.412765
917.719612	0.411624
917.899990	0.411152
918.080350	0.410152
918.260692	0.409461
918.441015	0.407969
918.621320	0.406981
918.801607	0.405880
918.981876	0.406207
919.162127	0.405404
919.342359	0.405462
919.522573	0.404389
919.702769	0.403791
919.882947	0.403316
920.063106	0.402657
920.243247	0.402186
920.423370	0.402119
920.603475	0.400351
920.783562	0.399765
920.963630	0.398334
921.143680	0.398502
921.323712	0.397687
921.503725	0.397456
921.683721	0.396942
921.863698	0.396215
922.043657	0.395170
922.223598	0.394696
922.403520	0.393847
922.583424	0.393257
922.763311	0.392341
922.943178	0.391813
923.123028	0.390392
923.302859	0.389839
923.482673	0.389219
923.662467	0.387610
923.842244	0.387026
924.022003	0.386395
924.201743	0.385718
924.381465	0.383791
924.561169	0.382209
924.740854	0.381786
924.920522	0.380732
925.100171	0.379544
925.279802	0.379244
925.459414	0.378483
925.639009	0.377784
925.818585	0.376678
925.998143	0.376545
926.177683	0.375901
926.357205	0.374459
926.536708	0.373499
926.716193	0.372533
926.895660	0.371810
927.075109	0.371023
927.254539	0.369676
927.433951	0.368486
927.613345	0.368128
927.792721	0.367585
927.972079	0.366081
928.151418	0.365024
928.330739	0.364275
928.510042	0.363363
928.689327	0.362258
928.868593	0.361721
929.047841	0.361293
929.227071	0.359558
929.406283	0.358994
929.585476	0.358746
929.764652	0.358204
929.943809	0.356707
930.122948	0.355973
930.302068	0.354390
930.481171	0.353285
930.660255	0.352042
930.839321	0.350976
931.018369	0.349674
931.197398	0.348846
931.376409	0.347843
931.555402	0.347081
931.734377	0.346055
931.913334	0.345258
932.092272	0.344128
932.271192	0.344065
932.450094	0.343570
932.628978	0.343036
932.807844	0.341632
932.986691	0.340529
933.165520	0.339082
933.344331	0.337173
933.523123	0.336462
933.701898	0.335994
933.880654	0.334312
934.059392	0.333442
934.238111	0.332572
934.416813	0.331695
934.595496	0.330136
934.774161	0.330081
934.952808	0.329841
935.131437	0.329152
935.310047	0.327205
935.488639	0.326018
935.667213	0.324893
935.845769	0.323028
936.024306	0.322134
936.202825	0.321233
936.381326	0.320006
936.559809	0.318100
936.738274	0.316398
936.916720	0.315928
937.095148	0.314541
937.273558	0.313098
937.451950	0.312003
937.630323	0.310840
937.808678	0.311389
937.987015	0.310824
938.165334	0.310668
938.343635	0.310264
938.521917	0.309370
938.700181	0.308723
938.878427	0.307498
939.056655	0.307488
939.234864	0.307359
939.413055	0.305434
939.591228	0.305039
939.769383	0.304452
939.947519	0.303180
940.125638	0.301391
940.303738	0.300766
940.481820	0.300098
940.659883	0.297914
940.837929	0.294293
941.015956	0.292137
941.193965	0.289972
941.371955	0.288435
941.549928	0.286518
941.727882	0.285067
941.905818	0.283023
942.083736	0.282018
942.261636	0.281481
942.439517	0.282869
942.617380	0.280959
942.795225	0.279304
942.973052	0.278523
943.150860	0.278596
943.328651	0.278698
943.506423	0.279009
943.684176	0.278967
943.861912	0.277797
944.039629	0.274956
944.217328	0.275925
944.395009	0.274756
944.572672	0.272645
944.750317	0.271828
944.927943	0.270301
945.105551	0.267917
945.283141	0.265326
945.460712	0.263606
945.638265	0.264243
945.815801	0.263257
945.993317	0.263438
946.170816	0.261991
946.348297	0.258491
946.525759	0.257066
946.703203	0.255010
946.880629	0.254701
947.058036	0.254115
947.235425	0.251804
947.412797	0.250914
947.590149	0.247397
947.767484	0.247350
947.944800	0.248177
948.122099	0.248137
948.299379	0.248057
948.476640	0.245219
948.653884	0.242933
948.831109	0.241271
949.008316	0.240537
949.185505	0.241290
949.362676	0.239676
949.539828	0.236844
949.716962	0.233603
949.894078	0.232610
950.071176	0.232014
950.248256	0.231927
950.425317	0.231706
950.602360	0.229847
950.779385	0.227747
950.956391	0.225806
951.133380	0.225050
951.310350	0.224996
951.487302	0.223019
951.664235	0.222565
951.841151	0.219780
952.018048	0.218138
952.194927	0.214975
952.371788	0.214272
952.548631	0.212411
952.725455	0.214036
952.902261	0.212730
953.079049	0.213298
953.255819	0.210480
953.432570	0.211458
953.609303	0.211579
953.786018	0.211822
953.962715	0.210550
954.139394	0.210037
954.316054	0.206584
954.492696	0.206991
954.669320	0.205067
954.845926	0.205107
955.022513	0.204118
955.199083	0.202122
955.375634	0.201017
955.552166	0.201731
955.728681	0.203417
955.905177	0.203339
956.081655	0.203290
956.258115	0.204090
956.434557	0.202393
956.610980	0.199768
956.787385	0.196483
956.963772	0.197034
957.140141	0.196795
957.316492	0.193893
957.492824	0.194393
957.669138	0.191879
957.845434	0.189608
958.021712	0.190560
958.197971	0.189478
958.374212	0.190145
958.550435	0.189454
958.726640	0.186792
958.902826	0.186634
959.078995	0.184867
959.255145	0.182345
959.431277	0.181980
959.607390	0.180214
959.783486	0.178795
959.959563	0.178940
960.135622	0.176273
960.311662	0.174387
960.487685	0.173852
960.663689	0.174072
960.839675	0.175551
961.015643	0.175200
961.191593	0.175030
961.367524	0.176531
961.543437	0.176372
961.719332	0.176703
961.895209	0.177880
962.071067	0.176743
962.246907	0.174474
962.422730	0.174787
962.598533	0.172768
962.774319	0.172816
962.950086	0.171808
963.125835	0.171151
963.301566	0.171652
963.477279	0.170577
963.652973	0.169627
963.828650	0.169931
964.004308	0.168969
964.179947	0.169770
964.355569	0.170235
964.531172	0.170163
964.706757	0.170551
964.882324	0.170272
965.057873	0.170787
965.233403	0.170630
965.408916	0.169781
965.584410	0.170568
965.759885	0.170176
965.935343	0.167242
966.110782	0.165769
966.286203	0.164023
966.461606	0.162275
966.636991	0.163769
966.812357	0.161054
966.987705	0.160918
967.163035	0.159809
967.338347	0.158863
967.513641	0.160017
967.688916	0.162493
967.864173	0.163103
968.039412	0.161871
968.214632	0.161130
968.389835	0.164898
968.565019	0.166014
968.740185	0.166958
968.915333	0.167704
969.090462	0.166561
969.265573	0.167492
969.440667	0.166962
969.615741	0.168460
969.790798	0.167658
969.965836	0.168917
970.140856	0.166147
970.315858	0.163752
970.490842	0.163725
970.665808	0.166330
970.840755	0.165340
971.015684	0.165760
971.190595	0.167862
971.365487	0.168051
971.540362	0.164308
971.715218	0.165505
971.890056	0.168418
972.064875	0.168540
972.239677	0.166962
972.414460	0.167410
972.589225	0.168504
972.763972	0.163498
972.938700	0.163630
973.113411	0.165850
973.288103	0.166201
973.462777	0.163135
973.637432	0.163412
973.812070	0.164460
973.986689	0.163530
974.161290	0.163926
974.335873	0.167865
974.510437	0.168806
974.684984	0.169958
974.859512	0.168905
975.034022	0.170250
975.208513	0.171319
975.382987	0.172006
975.557442	0.174046
975.731879	0.174064
975.906298	0.173422
976.080698	0.171795
976.255080	0.171351
976.429445	0.176318
976.603790	0.172831
976.778118	0.171714
976.952427	0.171133
977.126719	0.171384
977.300992	0.169676
977.475246	0.171000
977.649483	0.172050
977.823701	0.170494
977.997901	0.168995
978.172083	0.171411
978.346247	0.170647
978.520392	0.172193
978.694519	0.172250
978.868628	0.171978
979.042719	0.171094
979.216791	0.170495
979.390845	0.172024
979.564882	0.169906
979.738899	0.170257
979.912899	0.171638
980.086880	0.172488
980.260843	0.169556
980.434788	0.170316
980.608715	0.171840
980.782623	0.171295
980.956514	0.170516
981.130386	0.170797
981.304240	0.171883
981.478075	0.168963
981.651892	0.163444
981.825692	0.163495
981.999472	0.164575
982.173235	0.162911
982.346980	0.161827
982.520706	0.161902
982.694414	0.160161
982.868104	0.155759
983.041775	0.155565
983.215428	0.159142
983.389064	0.160371
983.562680	0.160214
983.736279	0.160177
983.909860	0.159993
984.083422	0.160270
984.256966	0.161927
984.430491	0.163672
984.603999	0.165177
984.777488	0.163655
984.950959	0.162920
985.124412	0.162779
985.297847	0.163240
985.471263	0.163592
985.644661	0.163828
985.818041	0.165002
985.991403	0.166483
986.164747	0.167359
986.338072	0.163618
986.511379	0.166156
986.684668	0.165382
986.857938	0.163366
987.031191	0.163991
987.204425	0.163622
987.377641	0.158618
987.550839	0.158053
987.724018	0.157894
987.897179	0.162383
988.070322	0.160740
988.243447	0.162389
988.416554	0.164312
988.589642	0.164000
988.762712	0.163519
988.935764	0.165396
989.108798	0.165253
989.281813	0.165637
989.454811	0.167019
989.627790	0.166016
989.800751	0.165704
989.973693	0.165217
990.146617	0.166417
990.319524	0.166129
990.492412	0.167383
990.665281	0.167882
990.838133	0.166279
991.010966	0.162566
991.183781	0.163886
991.356578	0.163193
991.529356	0.163329
991.702117	0.163994
991.874859	0.164096
992.047583	0.164452
992.220288	0.164387
992.392976	0.166380
992.565645	0.168760
992.738296	0.166542
992.910929	0.166986
993.083543	0.164912
993.256139	0.164050
993.428718	0.163253
993.601277	0.163043
993.773819	0.161832
993.946342	0.160698
994.118848	0.158079
994.291335	0.157748
994.463803	0.156825
994.636254	0.159491
994.808686	0.159514
994.981100	0.160654
995.153496	0.161155
995.325874	0.164219
995.498233	0.164847
995.670574	0.169506
995.842897	0.169698
996.015202	0.170100
996.187488	0.170196
996.359757	0.171520
996.532007	0.171432
996.704239	0.169763
996.876452	0.169353
997.048648	0.167911
997.220825	0.165940
997.392984	0.165369
997.565124	0.164935
997.737247	0.163621
997.909351	0.161498
998.081437	0.159607
998.253505	0.161805
998.425554	0.161178
998.597586	0.163351
998.769599	0.162522
998.941594	0.163875
999.113571	0.164730
999.285529	0.165125
999.457469	0.164806
999.629391	0.166270
999.801295	0.165857
999.973181	0.165834
1000.145048	0.164985
1000.316897	0.164730
1000.488728	0.166159
1000.660541	0.165122
1000.832335	0.164270
1001.004111	0.166547
1001.175869	0.167122
1001.347609	0.168021
1001.519331	0.166323
1001.691034	0.165852
1001.862719	0.166578
1002.034386	0.166593
1002.206035	0.166447
1002.377665	0.166116
1002.549277	0.163759
1002.720871	0.163323
1002.892447	0.159926
1003.064004	0.160132
1003.235544	0.161087
1003.407065	0.160015
1003.578568	0.159151
1003.750052	0.161154
1003.921519	0.161253
1004.092967	0.162303
1004.264397	0.162396
1004.435809	0.164256
1004.607202	0.165759
1004.778577	0.164844
1004.949934	0.165861
1005.121273	0.166366
1005.292594	0.164589
1005.463896	0.165925
1005.635180	0.165647
1005.806446	0.165369
1005.977694	0.164814
1006.148923	0.165180
1006.320135	0.164175
1006.491328	0.164131
1006.662503	0.162886
1006.833659	0.164627
1007.004798	0.164603
1007.175918	0.164704
1007.347020	0.163522
1007.518103	0.164702
1007.689169	0.164265
1007.860216	0.165215
1008.031245	0.163654
1008.202256	0.163666
1008.373248	0.162093
1008.544223	0.160572
1008.715179	0.160000
1008.886117	0.161129
1009.057036	0.161654
1009.227938	0.160796
1009.398821	0.160508
1009.569686	0.163501
1009.740533	0.162624
1009.911361	0.163459
1010.082172	0.164885
1010.252964	0.166497
1010.423738	0.166105
1010.594493	0.164793
1010.765231	0.165087
1010.935950	0.165060
1011.106651	0.164610
1011.277334	0.166390
1011.447998	0.166982
1011.618645	0.166290
1011.789273	0.167396
1011.959882	0.166777
1012.130474	0.167620
1012.301048	0.167609
1012.471603	0.166003
1012.642140	0.165529
1012.812658	0.164111
1012.983159	0.164335
1013.153641	0.164806
1013.324105	0.164896
1013.494551	0.167979
1013.664979	0.168830
1013.835388	0.166370
1014.005779	0.167603
1014.176152	0.166596
1014.346507	0.166659
1014.516843	0.163329
1014.687162	0.162084
1014.857462	0.159265
1015.027744	0.156962
1015.198007	0.155201
1015.368252	0.158100
1015.538480	0.159865
1015.708689	0.161051
1015.878879	0.160390
1016.049052	0.161531
1016.219206	0.163633
1016.389342	0.164176
1016.559460	0.165078
1016.729559	0.165135
1016.899641	0.164260
1017.069704	0.163974
1017.239749	0.162154
1017.409775	0.163871
1017.579784	0.163852
1017.749774	0.164046
1017.919746	0.163795
1018.089700	0.162703
1018.259635	0.162635
1018.429553	0.163624
1018.599452	0.163467
1018.769333	0.163761
1018.939195	0.164088
1019.109040	0.163958
1019.278866	0.162022
1019.448674	0.162914
1019.618464	0.162878
1019.788235	0.163096
1019.957989	0.162024
1020.127724	0.159715
1020.297441	0.160282
1020.467139	0.159674
1020.636820	0.160128
1020.806482	0.162037
1020.976126	0.160227
1021.145752	0.163033
1021.315359	0.163846
1021.484948	0.164201
1021.654519	0.166533
1021.824072	0.166788
1021.993607	0.165689
1022.163123	0.165805
1022.332621	0.164753
1022.502101	0.165361
1022.671563	0.163129
1022.841007	0.164822
1023.010432	0.165569
1023.179839	0.165887
1023.349228	0.165653
1023.518598	0.164605
1023.687951	0.163877
1023.857285	0.163103
1024.026601	0.162378
1024.195899	0.163313
1024.365178	0.160504
1024.534439	0.159440
1024.703682	0.157420
1024.872907	0.157302
1025.042114	0.158755
1025.211302	0.161457
1025.380472	0.162452
1025.549624	0.162843
1025.718758	0.163162
1025.887873	0.164212
1026.056970	0.163318
1026.226049	0.162733
1026.395110	0.162989
1026.564153	0.162874
1026.733177	0.161039
1026.902183	0.159685
1027.071171	0.160914
1027.240141	0.159033
1027.409092	0.157543
1027.578026	0.159359
1027.746940	0.160948
1027.915837	0.160390
1028.084716	0.160342
1028.253576	0.161397
1028.422418	0.161461
1028.591242	0.161943
1028.760048	0.163487
1028.928835	0.163272
1029.097604	0.161203
1029.266355	0.160356
1029.435088	0.161753
1029.603803	0.161529
1029.772499	0.160138
1029.941177	0.161872
1030.109837	0.159991
1030.278478	0.158538
1030.447102	0.159789
1030.615707	0.160836
1030.784294	0.162014
1030.952863	0.160260
1031.121413	0.161884
1031.289945	0.162509
1031.458460	0.160272
1031.626955	0.160694
1031.795433	0.161652
1031.963892	0.162535
1032.132334	0.162616
1032.300756	0.161828
1032.469161	0.163789
1032.637548	0.163645
1032.805916	0.162665
1032.974266	0.162405
1033.142598	0.162697
1033.310911	0.161570
1033.479207	0.158960
1033.647484	0.158506
1033.815743	0.159129
1033.983983	0.159165
1034.152206	0.157955
1034.320410	0.158168
1034.488596	0.159603
1034.656764	0.159392
1034.824914	0.160746
1034.993045	0.159590
1035.161158	0.159660
1035.329253	0.158708
1035.497330	0.156695
1035.665388	0.158726
1035.833428	0.155890
1036.001450	0.157148
1036.169454	0.158719
1036.337440	0.160389
1036.505407	0.161916
1036.673356	0.163293
1036.841287	0.163084
1037.009200	0.162306
1037.177094	0.160031
1037.344970	0.163070
1037.512828	0.162326
1037.680668	0.158357
1037.848489	0.155299
1038.016293	0.156455
1038.184078	0.155484
1038.351845	0.156361
1038.519593	0.158060
1038.687324	0.159759
1038.855036	0.158401
1039.022730	0.157219
1039.190406	0.158743
1039.358063	0.159081
1039.525702	0.159821
1039.693323	0.159007
1039.860926	0.158665
1040.028511	0.158326
1040.196077	0.158165
1040.363625	0.158293
1040.531155	0.157484
1040.698667	0.159582
1040.866161	0.159431
1041.033636	0.156908
1041.201093	0.156211
1041.368532	0.157369
1041.535952	0.157280
1041.703355	0.155583
1041.870739	0.156247
1042.038105	0.159760
1042.205452	0.158519
1042.372782	0.159529
1042.540093	0.161634
1042.707386	0.163785
1042.874661	0.161720
1043.041918	0.162563
1043.209156	0.162274
1043.376376	0.162631
1043.543578	0.160751
1043.710762	0.161815
1043.877927	0.161373
1044.045074	0.159475
1044.212203	0.159322
1044.379314	0.159427
1044.546407	0.157786
1044.713481	0.159128
1044.880537	0.160423
1045.047575	0.160238
1045.214595	0.160381
1045.381596	0.158603
1045.548579	0.158885
1045.715544	0.160040
1045.882491	0.160265
1046.049420	0.162631
1046.216330	0.163236
1046.383222	0.161356
1046.550096	0.160718
1046.716951	0.160231
1046.883789	0.162564
1047.050608	0.163087
1047.217409	0.161454
1047.384192	0.162156
1047.550956	0.157735
1047.717703	0.155520
1047.884431	0.156198
1048.051140	0.157578
1048.217832	0.157648
1048.384505	0.157771
1048.551161	0.160235
1048.717798	0.160481
1048.884416	0.160927
1049.051017	0.162801
1049.217599	0.163382
1049.384163	0.163673
1049.550709	0.163403
1049.717237	0.161671
1049.883746	0.161320
1050.050237	0.158755
1050.216710	0.159129
1050.383165	0.159562
1050.549601	0.161477
1050.716019	0.162336
1050.882420	0.161308
1051.048801	0.160296
1051.215165	0.161231
1051.381510	0.162654
1051.547837	0.164330
1051.714146	0.163777
1051.880437	0.162466
1052.046709	0.161641
1052.212964	0.162482
1052.379200	0.162705
1052.545417	0.162963
1052.711617	0.163244
1052.877798	0.161948
1053.043961	0.163799
1053.210106	0.164552
1053.376233	0.164866
1053.542341	0.165127
1053.708432	0.164282
1053.874504	0.164488
1054.040557	0.164599
1054.206593	0.163921
1054.372610	0.163375
1054.538609	0.159434
1054.704590	0.160476
1054.870553	0.160246
1055.036497	0.160157
1055.202424	0.161079
1055.368331	0.161339
1055.534221	0.160339
1055.700093	0.159807
1055.865946	0.158863
1056.031781	0.158238
1056.197598	0.155721
1056.363397	0.155313
1056.529177	0.153948
1056.694939	0.152465
1056.860683	0.153329
1057.026409	0.153400
1057.192116	0.153496
1057.357806	0.155049
1057.523477	0.156405
1057.689130	0.157037
1057.854764	0.160586
1058.020381	0.161818
1058.185979	0.161189
1058.351559	0.161717
1058.517120	0.164239
1058.682664	0.165488
1058.848189	0.163696
1059.013696	0.162818
1059.179185	0.162189
1059.344656	0.161082
1059.510108	0.161407
1059.675542	0.161439
1059.840958	0.161438
1060.006356	0.160350
1060.171735	0.160577
1060.337096	0.163435
1060.502439	0.164952
1060.667764	0.165160
1060.833071	0.163391
1060.998359	0.163349
1061.163629	0.164712
1061.328881	0.165853
1061.494115	0.165226
1061.659330	0.163629
1061.824527	0.162085
1061.989706	0.162982
1062.154867	0.163587
1062.320010	0.164441
1062.485134	0.165416
1062.650240	0.167723
1062.815328	0.167385
1062.980398	0.169409
1063.145449	0.170683
1063.310482	0.171835
1063.475497	0.171113
1063.640494	0.172378
1063.805473	0.171014
1063.970433	0.169131
1064.135375	0.166015
1064.300299	0.164178
1064.465204	0.163480
1064.630092	0.165101
1064.794961	0.164720
1064.959812	0.165417
1065.124645	0.164299
1065.289459	0.164228
1065.454256	0.165159
1065.619034	0.166253
1065.783793	0.166158
1065.948535	0.166164
1066.113258	0.165711
1066.277964	0.165701
1066.442651	0.165029
1066.607319	0.165398
1066.771970	0.166129
1066.936602	0.166608
1067.101216	0.167585
1067.265812	0.168295
1067.430389	0.166596
1067.594949	0.165889
1067.759490	0.167044
1067.924013	0.165200
1068.088518	0.164402
1068.253004	0.165156
1068.417472	0.165342
1068.581922	0.163574
1068.746354	0.162521
1068.910768	0.163184
1069.075163	0.162068
1069.239540	0.157952
1069.403899	0.160776
1069.568240	0.159785
1069.732562	0.160370
1069.896866	0.159348
1070.061152	0.159042
1070.225420	0.160959
1070.389670	0.163273
1070.553901	0.162732
1070.718114	0.164918
1070.882309	0.164788
1071.046486	0.168193
1071.210644	0.169934
1071.374784	0.171835
1071.538906	0.174219
1071.703010	0.174988
1071.867096	0.174008
1072.031163	0.173933
1072.195212	0.175135
1072.359243	0.172386
1072.523256	0.171211
1072.687250	0.171325
1072.851226	0.170212
1073.015184	0.169098
1073.179124	0.167164
1073.343045	0.167418
1073.506949	0.169569
1073.670834	0.171320
1073.834701	0.174289
1073.998549	0.176446
1074.162380	0.173131
1074.326192	0.174533
1074.489986	0.176686
1074.653761	0.175782
1074.817519	0.172350
1074.981258	0.169928
1075.144979	0.166865
1075.308682	0.166372
1075.472367	0.163138
1075.636033	0.165583
1075.799681	0.161307
1075.963311	0.161024
1076.126923	0.160601
1076.290516	0.164727
1076.454092	0.170128
1076.617649	0.172489
1076.781187	0.171502
1076.944708	0.170763
1077.108210	0.170274
1077.271695	0.169491
1077.435160	0.168922
1077.598608	0.167624
1077.762038	0.166309
1077.925449	0.163853
1078.088842	0.164275
1078.252217	0.163506
1078.415573	0.166866
1078.578912	0.167962
1078.742232	0.172871
1078.905534	0.172785
1079.068817	0.176459
1079.232083	0.174784
1079.395330	0.173332
1079.558559	0.170902
1079.721770	0.173609
1079.884962	0.171167
1080.048136	0.166874
1080.211293	0.168630
1080.374430	0.165731
1080.537550	0.165204
1080.700651	0.166715
1080.863735	0.167626
1081.026800	0.168379
1081.189846	0.167671
1081.352875	0.166912
1081.515885	0.171498
1081.678877	0.168876
1081.841851	0.168445
1082.004807	0.168067
1082.167744	0.167200
1082.330663	0.166449
1082.493564	0.168841
1082.656447	0.169549
1082.819312	0.171693
1082.982158	0.170328
1083.144986	0.170388
1083.307796	0.173670
1083.470587	0.172360
1083.633361	0.175806
1083.796116	0.178429
1083.958853	0.177727
1084.121571	0.175727
1084.284272	0.175388
1084.446954	0.173314
1084.609618	0.173679
1084.772264	0.171881
1084.934892	0.173564
1085.097501	0.173542
1085.260092	0.169959
1085.422665	0.170027
1085.585220	0.171941
1085.747756	0.170264
1085.910274	0.169861
1086.072774	0.168992
1086.235256	0.170517
1086.397720	0.168617
1086.560165	0.167897
1086.722592	0.170971
1086.885001	0.169122
1087.047392	0.167012
1087.209764	0.167767
1087.372119	0.167605
1087.534455	0.167597
1087.696772	0.169549
1087.859072	0.174004
1088.021353	0.173982
1088.183616	0.171892
1088.345861	0.171960
1088.508088	0.174666
1088.670296	0.179178
1088.832486	0.183617
1088.994658	0.186855
1089.156812	0.185108
1089.318948	0.184490
1089.481065	0.185688
1089.643164	0.186008
1089.805245	0.184135
1089.967308	0.181749
1090.129352	0.178528
1090.291378	0.178111
1090.453386	0.175120
1090.615376	0.174171
1090.777347	0.170886
1090.939301	0.168445
1091.101236	0.168693
1091.263153	0.169656
1091.425051	0.172506
1091.586932	0.174418
1091.748794	0.171856
1091.910638	0.174516
1092.072463	0.176821
1092.234271	0.179315
1092.396060	0.178775
1092.557831	0.180916
1092.719584	0.184120
1092.881319	0.182271
1093.043035	0.183551
1093.204733	0.184055
1093.366413	0.185247
1093.528075	0.187009
1093.689718	0.184781
1093.851343	0.188257
1094.012950	0.187096
1094.174539	0.186634
1094.336110	0.185138
1094.497662	0.181472
1094.659196	0.184910
1094.820712	0.184152
1094.982210	0.183605
1095.143689	0.183082
1095.305151	0.181241
1095.466594	0.180166
1095.628018	0.180783
1095.789425	0.180058
1095.950813	0.181139
1096.112183	0.176756
1096.273535	0.179214
1096.434869	0.177819
1096.596184	0.180804
1096.757482	0.183052
1096.918761	0.182448
1097.080021	0.180282
1097.241264	0.187644
1097.402488	0.188532
1097.563694	0.187683
1097.724882	0.182563
1097.886052	0.181928
1098.047203	0.181267
1098.208336	0.177206
1098.369451	0.182195
1098.530548	0.184613
1098.691627	0.183555
1098.852687	0.183582
1099.013729	0.186796
1099.174753	0.186812
1099.335758	0.186298
1099.496746	0.189078
1099.657715	0.190848
1099.818666	0.191782
1099.979599	0.189265
1100.140513	0.185097
1100.301409	0.183463
1100.462287	0.187622
1100.623147	0.185812
1100.783989	0.187967
1100.944812	0.185042
1101.105617	0.184015
1101.266404	0.178576
1101.427173	0.180063
1101.587923	0.180161
1101.748656	0.181672
1101.909370	0.175046
1102.070066	0.175808
1102.230743	0.174911
1102.391403	0.177992
1102.552044	0.176421
1102.712667	0.178145
1102.873271	0.178855
1103.033858	0.180288
1103.194426	0.178112
1103.354976	0.181763
1103.515508	0.179389
1103.676021	0.177483
1103.836517	0.175026
1103.996994	0.179526
1104.157453	0.183732
1104.317893	0.184675
1104.478316	0.186209
1104.638720	0.185568
1104.799106	0.180586
1104.959474	0.185098
1105.119823	0.184634
1105.280155	0.187286
1105.440468	0.183750
1105.600763	0.181336
1105.761039	0.185601
1105.921298	0.184476
1106.081538	0.184197
1106.241760	0.186882
1106.401964	0.185269
1106.562149	0.187872
1106.722316	0.186457
1106.882465	0.191561
1107.042596	0.187995
1107.202709	0.183271
1107.362803	0.182720
1107.522879	0.184543
1107.682937	0.184025
1107.842977	0.188491
1108.002999	0.189109
1108.163002	0.189745
1108.322987	0.185836
1108.482954	0.189772
1108.642902	0.190697
1108.802833	0.189906
1108.962745	0.193880
1109.122639	0.195073
1109.282515	0.193011
1109.442372	0.194013
1109.602211	0.194847
1109.762032	0.195935
1109.921835	0.193627
1110.081620	0.195981
1110.241386	0.194833
1110.401134	0.187562
1110.560864	0.190559
1110.720576	0.191902
1110.880269	0.190307
1111.039945	0.188104
1111.199602	0.193228
1111.359240	0.193354
1111.518861	0.190731
1111.678463	0.187233
1111.838047	0.196406
1111.997613	0.193162
1112.157161	0.195759
1112.316690	0.195252
1112.476202	0.196788
1112.635695	0.194427
1112.795169	0.196266
1112.954626	0.196665
1113.114064	0.203579
1113.273484	0.199801
1113.432886	0.203126
1113.592270	0.202045
1113.751635	0.201296
1113.910983	0.201696
1114.070312	0.200738
1114.229622	0.199923
1114.388915	0.198923
1114.548189	0.199100
1114.707445	0.202862
1114.866683	0.198573
1115.025903	0.195461
1115.185104	0.203053
1115.344287	0.199022
1115.503452	0.192425
1115.662599	0.193673
1115.821727	0.194443
1115.980838	0.193828
1116.139930	0.188229
1116.299004	0.191785
1116.458059	0.190831
1116.617097	0.184134
1116.776116	0.186924
1116.935117	0.193126
1117.094099	0.193514
1117.253064	0.195005
1117.412010	0.194839
1117.570938	0.196160
1117.729848	0.197481
1117.888740	0.200206
1118.047613	0.204500
1118.206468	0.206927
1118.365305	0.210010
1118.524124	0.213228
1118.682924	0.207246
1118.841707	0.206674
1119.000471	0.208826
1119.159216	0.204463
1119.317944	0.201170
1119.476653	0.196923
1119.635344	0.189552
1119.794017	0.180896
1119.952672	0.178448
1120.111308	0.179351
1120.269927	0.183504
1120.428527	0.182539
1120.587108	0.184510
1120.745672	0.183220
1120.904217	0.179690
1121.062744	0.188809
1121.221253	0.200091
1121.379744	0.201041
1121.538216	0.205576
1121.696671	0.205438
1121.855107	0.209074
1122.013524	0.216716
1122.171924	0.219714
1122.330305	0.229120
1122.488668	0.232285
1122.647013	0.228636
1122.805340	0.222560
1122.963648	0.223126
1123.121938	0.220918
1123.280210	0.221023
1123.438464	0.211892
1123.596700	0.210462
1123.754917	0.205667
1123.913116	0.199032
1124.071297	0.197555
1124.229459	0.200245
1124.387604	0.200411
1124.545730	0.202189
1124.703838	0.194931
1124.861928	0.197458
1125.019999	0.200588
1125.178052	0.206497
1125.336088	0.203217
1125.494104	0.202116
1125.652103	0.204644
1125.810083	0.205892
1125.968045	0.203726
1126.125989	0.211913
1126.283915	0.215329
1126.441823	0.212375
1126.599712	0.212364
1126.757583	0.217697
1126.915436	0.215611
1127.073270	0.216272
1127.231087	0.215357
1127.388885	0.214627
1127.546665	0.212061
1127.704426	0.208508
1127.862170	0.214553
1128.019895	0.206731
1128.177602	0.202436
1128.335291	0.210097
1128.492961	0.212511
1128.650614	0.217465
1128.808248	0.217558
1128.965864	0.214897
1129.123461	0.214095
1129.281041	0.203195
1129.438602	0.206430
1129.596145	0.207424
1129.753670	0.201652
1129.911176	0.204178
1130.068665	0.191585
1130.226135	0.195302
1130.383587	0.196875
1130.541020	0.200038
1130.698436	0.204131
1130.855833	0.199888
1131.013212	0.198721
1131.170573	0.197444
1131.327915	0.186340
1131.485239	0.191168
1131.642545	0.192052
1131.799833	0.190832
1131.957103	0.190142
1132.114354	0.193685
1132.271588	0.197482
1132.428803	0.202918
1132.585999	0.206652
1132.743178	0.214420
1132.900338	0.213640
1133.057480	0.213378
1133.214604	0.218826
1133.371710	0.214344
1133.528797	0.211681
1133.685866	0.210982
1133.842917	0.212474
1133.999950	0.214687
1134.156964	0.208945
1134.313960	0.208078
1134.470938	0.204975
1134.627898	0.199473
1134.784840	0.205609
1134.941763	0.209920
1135.098668	0.211701
1135.255555	0.207417
1135.412424	0.199796
1135.569274	0.199638
1135.726107	0.208622
1135.882921	0.211013
1136.039716	0.211675
1136.196494	0.206885
1136.353253	0.213729
1136.509995	0.213413
1136.666717	0.212458
1136.823422	0.218344
1136.980109	0.219976
1137.136777	0.215069
1137.293427	0.216657
1137.450059	0.219162
1137.606672	0.219946
1137.763267	0.212153
1137.919844	0.205187
1138.076403	0.211886
1138.232944	0.204961
1138.389466	0.203869
1138.545971	0.200457
1138.702457	0.198655
1138.858924	0.201436
1139.015374	0.205594
1139.171805	0.206515
1139.328218	0.206995
1139.484613	0.201050
1139.640990	0.199726
1139.797348	0.200400
1139.953688	0.206735
1140.110010	0.204683
1140.266314	0.199879
1140.422600	0.196140
1140.578867	0.194262
1140.735116	0.197669
1140.891347	0.202542
1141.047559	0.213931
1141.203754	0.213380
1141.359930	0.211366
1141.516088	0.210881
1141.672228	0.213182
1141.828349	0.215627
1141.984452	0.205883
1142.140537	0.207935
1142.296604	0.205769
1142.452653	0.190682
1142.608683	0.190972
1142.764695	0.193352
1142.920689	0.196861
1143.076665	0.192140
1143.232622	0.185072
1143.388562	0.196914
1143.544483	0.202236
1143.700385	0.204815
1143.856270	0.221396
1144.012136	0.227806
1144.167985	0.220713
1144.323814	0.214135
1144.479626	0.215138
1144.635420	0.229921
1144.791195	0.227775
1144.946952	0.219749
1145.102691	0.216922
1145.258411	0.212080
1145.414113	0.198075
1145.569798	0.196596
1145.725463	0.201898
1145.881111	0.199408
1146.036741	0.195513
1146.192352	0.192339
1146.347945	0.193232
1146.503519	0.185514
1146.659076	0.184594
1146.814614	0.193863
1146.970134	0.200956
1147.125636	0.195343
1147.281120	0.202461
1147.436585	0.195371
1147.592032	0.197372
1147.747461	0.195136
1147.902872	0.205167
1148.058265	0.207520
1148.213639	0.205246
1148.368995	0.202944
1148.524333	0.208891
1148.679653	0.208294
1148.834954	0.212751
1148.990237	0.218398
1149.145502	0.214512
1149.300749	0.203435
1149.455977	0.195327
1149.611188	0.198002
1149.766380	0.192103
1149.921553	0.193277
1150.076709	0.195499
1150.231846	0.195154
1150.386966	0.189455
1150.542066	0.202699
1150.697149	0.212859
1150.852214	0.217363
1151.007260	0.211023
1151.162288	0.214442
1151.317298	0.210914
1151.472289	0.202020
1151.627263	0.203825
1151.782218	0.196710
1151.937155	0.198681
1152.092073	0.199461
1152.246974	0.200227
1152.401856	0.200120
1152.556720	0.199829
1152.711566	0.196522
1152.866393	0.198862
1153.021203	0.186450
1153.175994	0.207732
1153.330767	0.194275
1153.485521	0.194036
1153.640258	0.197800
1153.794976	0.200408
1153.949676	0.200306
1154.104358	0.204999
1154.259021	0.208271
1154.413667	0.217948
1154.568294	0.201688
1154.722903	0.207578
1154.877493	0.211893
1155.032066	0.205467
1155.186620	0.217685
1155.341156	0.220738
1155.495674	0.214675
1155.650173	0.210312
1155.804654	0.210108
1155.959118	0.217026
1156.113562	0.215385
1156.267989	0.205502
1156.422397	0.215971
1156.576788	0.199073
1156.731160	0.207364
1156.885513	0.212817
1157.039849	0.209871
1157.194166	0.219291
1157.348465	0.211396
1157.502746	0.199404
1157.657009	0.205445
1157.811253	0.191195
1157.965479	0.199404
1158.119687	0.189251
1158.273877	0.181926
1158.428048	0.203344
1158.582201	0.197826
1158.736337	0.197931
1158.890453	0.217137
1159.044552	0.216711
1159.198632	0.218706
1159.352694	0.223541
1159.506738	0.231245
1159.660764	0.238746
1159.814771	0.217683
1159.968761	0.215891
1160.122732	0.214266
1160.276685	0.216686
1160.430619	0.213726
1160.584535	0.233568
1160.738434	0.225313
1160.892313	0.218911
1161.046175	0.224805
1161.200019	0.229385
1161.353844	0.236612
1161.507651	0.241095
1161.661440	0.241673
1161.815210	0.237650
1161.968962	0.221056
1162.122697	0.218436
1162.276412	0.205253
1162.430110	0.202947
1162.583789	0.209653
1162.737451	0.202388
1162.891094	0.195335
1163.044718	0.181453
1163.198325	0.183132
1163.351913	0.180825
1163.505483	0.192157
1163.659035	0.191378
1163.812569	0.189971
1163.966084	0.181889
1164.119581	0.189021
1164.273060	0.207030
1164.426521	0.215863
1164.579964	0.215052
1164.733388	0.230468
1164.886794	0.220264
1165.040182	0.244315
1165.193551	0.232127
1165.346903	0.229760
1165.500236	0.222476
1165.653551	0.210737
1165.806848	0.199819
1165.960126	0.207838
1166.113386	0.193681
1166.266628	0.198688
1166.419852	0.183855
1166.573058	0.199946
1166.726245	0.196299
1166.879414	0.194364
1167.032565	0.210686
1167.185698	0.226879
1167.338812	0.218180
1167.491909	0.230685
1167.644987	0.232585
1167.798046	0.239917
1167.951088	0.235208
1168.104111	0.241161
1168.257117	0.241079
1168.410103	0.224909
1168.563072	0.221848
1168.716023	0.220457
1168.868955	0.224828
1169.021869	0.210207
1169.174765	0.208445
1169.327642	0.215962
1169.480501	0.218492
1169.633343	0.208568
1169.786165	0.208343
1169.938970	0.193584
1170.091757	0.193740
1170.244525	0.186578
1170.397275	0.205110
1170.550007	0.223121
1170.702720	0.213111
1170.855415	0.190763
1171.008092	0.204016
1171.160751	0.209019
1171.313392	0.223529
1171.466014	0.040023
1171.618619	0.240064
1171.771205	0.240064
1171.923772	0.240064
