sample name	sample
index	1522
start time	 05-18-2021  03:32:26 PM


Wavelength (nm)	Absorbance
494.344910	0.232475
494.563924	0.232475
494.782919	0.232475
495.001897	-0.188852
495.220856	0.169665
495.439797	0.207832
495.658719	0.231968
495.877624	0.149322
496.096510	0.209910
496.315378	0.083557
496.534227	0.085059
496.753059	0.078211
496.971872	0.054948
497.190667	0.153709
497.409444	0.169314
497.628203	0.174495
497.846943	0.177171
498.065665	0.178223
498.284369	0.180799
498.503055	0.179753
498.721723	0.181087
498.940372	0.181171
499.159003	0.181063
499.377616	0.181725
499.596210	0.181758
499.814787	0.181513
500.033345	0.182169
500.251885	0.183014
500.470406	0.183691
500.688910	0.183540
500.907395	0.184629
501.125862	0.184094
501.344311	0.182457
501.562742	0.182183
501.781154	0.184122
501.999548	0.184238
502.217924	0.183868
502.436282	0.183886
502.654621	0.183169
502.872942	0.182831
503.091245	0.182326
503.309530	0.183216
503.527797	0.184677
503.746045	0.183358
503.964275	0.182361
504.182487	0.182148
504.400681	0.181457
504.618856	0.181934
504.837013	0.182929
505.055152	0.184384
505.273273	0.184034
505.491376	0.183497
505.709460	0.184387
505.927526	0.185780
506.145574	0.186509
506.363604	0.187664
506.581615	0.188441
506.799608	0.187308
507.017583	0.186409
507.235540	0.187157
507.453478	0.186738
507.671399	0.186537
507.889301	0.187269
508.107185	0.186839
508.325050	0.187285
508.542898	0.186690
508.760727	0.187981
508.978538	0.188800
509.196330	0.188118
509.414105	0.188880
509.631861	0.189112
509.849599	0.187950
510.067319	0.188149
510.285021	0.187185
510.502704	0.187495
510.720369	0.187418
510.938016	0.188144
511.155645	0.188269
511.373255	0.188080
511.590848	0.187799
511.808422	0.188413
512.025977	0.188279
512.243515	0.189775
512.461034	0.189172
512.678536	0.189449
512.896018	0.189447
513.113483	0.189841
513.330930	0.190392
513.548358	0.190292
513.765768	0.190425
513.983160	0.191265
514.200533	0.190920
514.417889	0.191700
514.635226	0.191717
514.852545	0.191044
515.069845	0.191800
515.287128	0.192071
515.504392	0.193025
515.721638	0.192752
515.938866	0.192448
516.156075	0.192876
516.373267	0.194255
516.590440	0.194321
516.807594	0.194849
517.024731	0.196052
517.241850	0.195709
517.458950	0.195973
517.676032	0.197073
517.893095	0.198214
518.110141	0.198675
518.327168	0.198804
518.544177	0.200065
518.761168	0.200899
518.978141	0.200298
519.195095	0.200524
519.412031	0.200345
519.628949	0.199491
519.845849	0.198830
520.062731	0.200186
520.279594	0.199859
520.496439	0.199203
520.713266	0.199714
520.930074	0.200039
521.146865	0.200766
521.363637	0.201536
521.580391	0.202124
521.797127	0.203006
522.013844	0.202340
522.230543	0.202631
522.447224	0.203286
522.663887	0.203614
522.880532	0.203527
523.097158	0.204329
523.313766	0.205166
523.530356	0.205790
523.746928	0.206193
523.963481	0.206227
524.180017	0.206511
524.396534	0.206685
524.613032	0.206125
524.829513	0.206515
525.045975	0.206164
525.262420	0.205311
525.478845	0.205763
525.695253	0.206278
525.911643	0.206981
526.128014	0.207348
526.344367	0.207418
526.560702	0.208716
526.777018	0.209598
526.993316	0.210182
527.209597	0.211765
527.425858	0.211672
527.642102	0.212116
527.858328	0.211490
528.074535	0.212177
528.290724	0.212436
528.506894	0.212902
528.723047	0.213592
528.939181	0.214101
529.155297	0.213904
529.371395	0.214939
529.587475	0.214959
529.803536	0.215848
530.019579	0.216571
530.235604	0.217039
530.451611	0.216581
530.667600	0.216807
530.883570	0.216966
531.099522	0.217465
531.315456	0.217496
531.531372	0.218182
531.747269	0.218695
531.963148	0.218576
532.179009	0.218877
532.394852	0.219934
532.610676	0.219482
532.826482	0.220305
533.042271	0.220842
533.258040	0.221762
533.473792	0.221619
533.689525	0.221803
533.905240	0.222694
534.120937	0.223408
534.336616	0.223400
534.552277	0.224505
534.767919	0.224016
534.983543	0.223847
535.199149	0.223582
535.414736	0.223763
535.630306	0.224421
535.845857	0.224021
536.061390	0.224202
536.276904	0.224131
536.492401	0.224455
536.707879	0.225049
536.923339	0.225691
537.138781	0.226257
537.354204	0.226210
537.569610	0.226155
537.784997	0.227080
538.000366	0.228039
538.215716	0.229422
538.431049	0.229755
538.646363	0.230067
538.861659	0.230440
539.076937	0.230906
539.292196	0.232019
539.507438	0.232240
539.722661	0.232277
539.937866	0.231968
540.153052	0.231041
540.368221	0.231002
540.583371	0.231823
540.798503	0.232175
541.013617	0.232752
541.228712	0.233538
541.443789	0.234377
541.658848	0.234844
541.873889	0.235420
542.088912	0.236499
542.303916	0.236680
542.518902	0.236903
542.733870	0.237122
542.948820	0.237447
543.163752	0.237622
543.378665	0.237773
543.593560	0.237937
543.808437	0.238179
544.023295	0.238375
544.238136	0.238269
544.452958	0.238029
544.667762	0.238502
544.882548	0.238069
545.097315	0.238123
545.312064	0.238326
545.526795	0.238382
545.741508	0.238709
545.956203	0.239208
546.170879	0.240204
546.385537	0.240853
546.600177	0.240695
546.814799	0.241563
547.029402	0.241371
547.243988	0.241841
547.458555	0.241993
547.673103	0.242231
547.887634	0.242222
548.102146	0.242300
548.316640	0.242692
548.531116	0.243353
548.745574	0.243406
548.960013	0.243535
549.174435	0.243848
549.388838	0.244444
549.603222	0.244746
549.817589	0.245329
550.031937	0.245945
550.246267	0.245800
550.460579	0.245945
550.674873	0.246041
550.889148	0.246328
551.103405	0.246240
551.317644	0.246597
551.531865	0.246639
551.746068	0.247392
551.960252	0.247550
552.174418	0.247668
552.388566	0.248150
552.602696	0.248572
552.816807	0.249406
553.030900	0.249689
553.244975	0.249714
553.459032	0.249844
553.673070	0.249567
553.887091	0.249849
554.101093	0.249975
554.315077	0.249628
554.529042	0.249936
554.742990	0.250135
554.956919	0.250691
555.170830	0.250465
555.384722	0.250877
555.598597	0.250412
555.812453	0.250389
556.026291	0.250923
556.240111	0.251550
556.453913	0.251688
556.667696	0.251637
556.881461	0.251721
557.095208	0.252366
557.308937	0.252645
557.522647	0.253230
557.736339	0.253259
557.950013	0.253624
558.163669	0.253705
558.377307	0.253710
558.590926	0.253854
558.804527	0.254194
559.018110	0.254578
559.231675	0.254260
559.445221	0.254214
559.658749	0.254346
559.872259	0.254650
560.085751	0.254741
560.299225	0.255207
560.512680	0.255482
560.726117	0.255325
560.939536	0.255164
561.152937	0.255782
561.366319	0.256425
561.579683	0.256883
561.793029	0.256919
562.006357	0.257277
562.219667	0.257574
562.432958	0.257719
562.646231	0.257881
562.859486	0.258106
563.072723	0.258506
563.285941	0.258128
563.499141	0.257972
563.712323	0.258077
563.925487	0.258112
564.138632	0.257844
564.351760	0.258501
564.564869	0.258607
564.777960	0.259325
564.991032	0.259431
565.204087	0.260074
565.417123	0.260253
565.630141	0.260392
565.843140	0.260265
566.056122	0.260820
566.269085	0.260864
566.482030	0.261278
566.694957	0.261392
566.907866	0.261210
567.120756	0.261431
567.333628	0.261935
567.546482	0.262132
567.759318	0.262438
567.972135	0.262210
568.184935	0.262059
568.397716	0.262135
568.610478	0.262135
568.823223	0.262199
569.035949	0.262087
569.248657	0.262414
569.461347	0.262842
569.674019	0.262964
569.886672	0.263256
570.099308	0.263692
570.311925	0.264038
570.524523	0.263890
570.737104	0.263999
570.949666	0.264360
571.162210	0.264658
571.374736	0.264644
571.587244	0.265291
571.799733	0.265731
572.012205	0.265720
572.224658	0.265334
572.437092	0.265661
572.649509	0.265907
572.861907	0.265970
573.074287	0.265947
573.286649	0.266288
573.498993	0.266426
573.711318	0.266328
573.923625	0.266659
574.135914	0.267124
574.348185	0.267543
574.560438	0.268087
574.772672	0.268376
574.984888	0.268297
575.197086	0.268348
575.409266	0.268515
575.621427	0.268674
575.833570	0.268959
576.045695	0.269282
576.257802	0.269594
576.469890	0.269896
576.681961	0.270137
576.894013	0.270339
577.106046	0.270493
577.318062	0.270946
577.530059	0.271429
577.742039	0.271213
577.954000	0.271413
578.165942	0.271140
578.377867	0.270987
578.589773	0.271112
578.801661	0.271522
579.013531	0.271865
579.225382	0.271469
579.437216	0.271674
579.649031	0.271681
579.860828	0.271728
580.072606	0.272338
580.284367	0.272488
580.496109	0.272742
580.707833	0.273096
580.919539	0.272784
581.131227	0.273180
581.342896	0.272896
581.554547	0.273420
581.766180	0.274072
581.977795	0.273755
582.189391	0.274548
582.400969	0.274731
582.612529	0.274960
582.824071	0.275507
583.035595	0.275895
583.247100	0.276279
583.458587	0.276592
583.670056	0.276109
583.881506	0.276422
584.092939	0.276656
584.304353	0.276402
584.515749	0.276420
584.727127	0.276512
584.938486	0.276816
585.149828	0.277148
585.361151	0.277039
585.572456	0.277426
585.783742	0.277764
585.995011	0.277499
586.206261	0.278386
586.417493	0.278410
586.628706	0.278801
586.839902	0.278243
587.051079	0.278869
587.262238	0.278977
587.473379	0.279280
587.684502	0.279560
587.895606	0.279438
588.106692	0.279013
588.317760	0.279166
588.528810	0.279104
588.739841	0.280010
588.950855	0.279810
589.161850	0.280106
589.372827	0.280322
589.583785	0.280430
589.794726	0.280762
590.005648	0.280725
590.216552	0.280516
590.427437	0.280667
590.638305	0.280346
590.849154	0.280406
591.059985	0.280983
591.270798	0.281232
591.481592	0.281184
591.692369	0.281640
591.903127	0.282205
592.113867	0.282589
592.324588	0.282854
592.535292	0.283084
592.745977	0.283268
592.956644	0.283277
593.167293	0.283412
593.377923	0.283814
593.588536	0.283970
593.799130	0.284224
594.009706	0.284788
594.220263	0.285187
594.430803	0.285473
594.641324	0.285611
594.851827	0.285350
595.062312	0.285506
595.272778	0.285784
595.483227	0.285747
595.693657	0.286226
595.904069	0.286745
596.114462	0.286792
596.324838	0.286803
596.535195	0.287035
596.745534	0.287796
596.955855	0.287725
597.166157	0.288030
597.376441	0.288690
597.586707	0.288859
597.796955	0.288546
598.007185	0.288959
598.217396	0.289425
598.427589	0.289954
598.637764	0.290031
598.847921	0.290731
599.058060	0.290953
599.268180	0.291017
599.478282	0.290783
599.688366	0.290791
599.898431	0.290640
600.108479	0.290676
600.318508	0.290500
600.528519	0.290743
600.738511	0.290526
600.948486	0.290564
601.158442	0.290332
601.368380	0.290980
601.578300	0.291553
601.788202	0.291821
601.998085	0.292237
602.207950	0.292868
602.417797	0.293049
602.627626	0.293461
602.837436	0.293582
603.047228	0.293772
603.257002	0.293889
603.466758	0.293516
603.676496	0.294026
603.886215	0.294096
604.095916	0.293808
604.305599	0.293568
604.515264	0.293957
604.724910	0.293456
604.934538	0.293769
605.144148	0.293894
605.353740	0.294579
605.563314	0.294535
605.772869	0.294679
605.982406	0.294805
606.191925	0.295169
606.401425	0.294822
606.610908	0.295555
606.820372	0.295593
607.029818	0.295532
607.239246	0.295753
607.448655	0.295697
607.658047	0.295634
607.867420	0.296434
608.076775	0.296965
608.286111	0.297606
608.495430	0.297866
608.704730	0.298250
608.914012	0.298474
609.123275	0.298389
609.332521	0.298919
609.541748	0.299236
609.750957	0.298972
609.960148	0.299220
610.169321	0.299206
610.378475	0.299454
610.587611	0.299863
610.796729	0.300036
611.005829	0.300039
611.214910	0.300353
611.423974	0.300802
611.633019	0.300769
611.842045	0.300472
612.051054	0.300354
612.260044	0.300657
612.469017	0.300629
612.677970	0.300532
612.886906	0.301046
613.095824	0.300827
613.304723	0.300650
613.513604	0.300904
613.722467	0.301205
613.931311	0.301519
614.140138	0.301453
614.348946	0.301759
614.557736	0.302439
614.766507	0.302597
614.975261	0.302958
615.183996	0.303062
615.392713	0.303559
615.601412	0.303734
615.810092	0.304028
616.018754	0.304212
616.227399	0.304087
616.436024	0.304242
616.644632	0.304561
616.853222	0.304645
617.061793	0.305139
617.270346	0.305275
617.478880	0.305546
617.687397	0.305832
617.895895	0.306119
618.104375	0.306235
618.312837	0.306354
618.521281	0.306197
618.729706	0.306491
618.938113	0.306839
619.146502	0.306903
619.354873	0.307050
619.563226	0.307228
619.771560	0.307269
619.979876	0.307837
620.188174	0.307772
620.396453	0.308021
620.604715	0.308018
620.812958	0.307883
621.021183	0.308195
621.229390	0.308449
621.437578	0.308594
621.645748	0.308800
621.853900	0.308951
622.062034	0.309321
622.270150	0.309524
622.478247	0.310207
622.686326	0.310519
622.894387	0.310353
623.102430	0.310505
623.310454	0.310401
623.518461	0.310576
623.726449	0.310760
623.934418	0.310671
624.142370	0.311049
624.350303	0.310879
624.558218	0.311176
624.766115	0.311410
624.973994	0.311580
625.181855	0.311802
625.389697	0.312080
625.597521	0.312026
625.805327	0.312377
626.013114	0.312255
626.220883	0.312307
626.428634	0.312458
626.636367	0.312725
626.844082	0.313089
627.051778	0.313280
627.259457	0.313381
627.467117	0.313417
627.674758	0.313512
627.882382	0.313637
628.089987	0.313789
628.297574	0.313766
628.505143	0.313963
628.712694	0.314129
628.920226	0.314604
629.127740	0.314804
629.335236	0.315080
629.542714	0.315392
629.750174	0.315620
629.957615	0.316065
630.165038	0.316267
630.372443	0.316333
630.579829	0.316391
630.787198	0.316128
630.994548	0.316168
631.201880	0.316405
631.409194	0.316334
631.616489	0.316964
631.823766	0.316759
632.031025	0.317031
632.238266	0.317208
632.445489	0.317312
632.652693	0.317705
632.859879	0.318259
633.067047	0.318576
633.274197	0.318784
633.481329	0.318866
633.688442	0.319079
633.895537	0.319142
634.102614	0.319479
634.309672	0.319502
634.516713	0.319701
634.723735	0.319656
634.930739	0.319700
635.137724	0.319993
635.344692	0.320031
635.551641	0.320395
635.758572	0.320229
635.965485	0.320176
636.172379	0.320540
636.379256	0.320926
636.586114	0.321092
636.792954	0.321318
636.999775	0.321854
637.206579	0.321842
637.413364	0.321678
637.620131	0.322132
637.826880	0.322600
638.033610	0.322490
638.240323	0.322633
638.447017	0.322811
638.653692	0.322841
638.860350	0.322437
639.066990	0.322785
639.273611	0.323257
639.480214	0.323575
639.686798	0.323925
639.893365	0.324532
640.099913	0.324557
640.306443	0.324682
640.512955	0.325166
640.719449	0.325760
640.925924	0.325938
641.132381	0.326365
641.338820	0.326675
641.545241	0.326657
641.751644	0.327024
641.958028	0.327331
642.164394	0.327582
642.370742	0.327588
642.577071	0.327781
642.783383	0.327884
642.989676	0.327854
643.195951	0.327838
643.402207	0.328124
643.608446	0.327797
643.814666	0.328036
644.020868	0.328226
644.227052	0.328522
644.433218	0.328667
644.639365	0.329128
644.845494	0.329500
645.051605	0.329949
645.257698	0.330034
645.463772	0.330420
645.669828	0.330481
645.875866	0.330814
646.081886	0.330797
646.287888	0.331116
646.493871	0.330966
646.699836	0.331004
646.905783	0.331108
647.111712	0.331064
647.317622	0.331127
647.523514	0.331386
647.729388	0.331515
647.935244	0.332085
648.141082	0.332173
648.346901	0.332364
648.552702	0.332551
648.758485	0.332880
648.964250	0.333276
649.169996	0.333863
649.375724	0.334139
649.581434	0.334323
649.787126	0.334595
649.992800	0.334828
650.198455	0.335209
650.404092	0.335305
650.609711	0.335109
650.815311	0.335310
651.020894	0.335239
651.226458	0.335414
651.432004	0.335384
651.637532	0.335095
651.843041	0.335370
652.048532	0.335468
652.254006	0.335686
652.459460	0.335937
652.664897	0.336139
652.870315	0.336304
653.075716	0.336245
653.281097	0.336477
653.486461	0.337121
653.691807	0.337088
653.897134	0.337465
654.102443	0.337558
654.307734	0.338017
654.513006	0.338346
654.718261	0.338585
654.923497	0.339153
655.128715	0.339588
655.333915	0.339873
655.539096	0.340378
655.744259	0.340510
655.949404	0.341112
656.154531	0.341191
656.359640	0.341604
656.564730	0.341849
656.769802	0.342116
656.974856	0.342343
657.179892	0.342556
657.384909	0.342716
657.589908	0.343105
657.794889	0.343416
657.999852	0.343815
658.204797	0.343753
658.409723	0.344145
658.614631	0.344392
658.819521	0.344620
659.024393	0.344865
659.229246	0.345148
659.434081	0.345201
659.638898	0.345217
659.843697	0.345429
660.048478	0.345655
660.253240	0.345593
660.457984	0.345590
660.662710	0.345879
660.867417	0.345973
661.072107	0.346049
661.276778	0.346337
661.481431	0.346601
661.686066	0.346828
661.890682	0.347160
662.095281	0.347727
662.299861	0.348075
662.504422	0.348349
662.708966	0.348363
662.913491	0.348624
663.117999	0.349008
663.322488	0.349309
663.526958	0.349587
663.731411	0.349914
663.935845	0.349913
664.140261	0.350215
664.344659	0.350348
664.549038	0.350606
664.753400	0.350890
664.957743	0.351281
665.162068	0.351188
665.366375	0.351278
665.570663	0.351398
665.774933	0.351646
665.979185	0.351552
666.183419	0.351641
666.387635	0.351812
666.591832	0.351772
666.796011	0.351802
667.000172	0.352328
667.204315	0.352625
667.408439	0.352848
667.612545	0.353177
667.816634	0.353489
668.020703	0.353862
668.224755	0.354105
668.428788	0.354425
668.632803	0.354554
668.836800	0.354846
669.040779	0.354885
669.244739	0.355126
669.448681	0.355103
669.652605	0.355341
669.856511	0.355575
670.060399	0.356003
670.264268	0.356551
670.468119	0.356641
670.671952	0.356857
670.875767	0.357272
671.079563	0.357660
671.283341	0.358180
671.487101	0.358831
671.690843	0.359101
671.894567	0.359170
672.098272	0.359185
672.301959	0.359834
672.505628	0.359859
672.709278	0.359835
672.912911	0.359846
673.116525	0.360191
673.320121	0.360079
673.523699	0.360510
673.727258	0.360850
673.930799	0.361178
674.134322	0.361116
674.337827	0.361520
674.541314	0.362212
674.744782	0.362479
674.948232	0.362450
675.151664	0.362874
675.355078	0.363015
675.558474	0.363333
675.761851	0.363670
675.965210	0.363938
676.168551	0.364208
676.371873	0.364291
676.575178	0.364813
676.778464	0.365448
676.981732	0.365626
677.184981	0.365753
677.388213	0.366000
677.591426	0.366447
677.794621	0.366917
677.997798	0.367259
678.200956	0.367676
678.404097	0.367932
678.607219	0.368169
678.810323	0.368227
679.013408	0.368346
679.216476	0.368593
679.419525	0.368658
679.622556	0.368819
679.825569	0.368885
680.028563	0.368891
680.231540	0.368734
680.434498	0.368453
680.637438	0.368832
680.840359	0.369005
681.043263	0.369137
681.246148	0.369039
681.449015	0.369080
681.651864	0.369175
681.854694	0.369317
682.057506	0.369710
682.260301	0.370412
682.463076	0.370608
682.665834	0.370885
682.868573	0.371459
683.071295	0.372012
683.273998	0.372176
683.476682	0.372456
683.679349	0.372622
683.881997	0.372824
684.084627	0.372974
684.287239	0.373104
684.489833	0.373369
684.692408	0.373149
684.894965	0.373088
685.097504	0.373543
685.300025	0.373983
685.502527	0.374339
685.705012	0.374523
685.907478	0.374516
686.109925	0.374483
686.312355	0.374824
686.514766	0.375008
686.717159	0.375478
686.919534	0.375511
687.121891	0.375613
687.324230	0.375866
687.526550	0.376208
687.728852	0.376351
687.931136	0.376688
688.133401	0.376842
688.335649	0.377215
688.537878	0.377162
688.740089	0.377478
688.942281	0.377710
689.144456	0.377898
689.346612	0.377942
689.548750	0.378413
689.750870	0.379020
689.952971	0.379169
690.155055	0.379230
690.357120	0.379391
690.559167	0.379550
690.761195	0.379355
690.963206	0.379317
691.165198	0.379238
691.367172	0.379361
691.569128	0.379356
691.771065	0.379497
691.972984	0.379343
692.174885	0.379571
692.376768	0.379445
692.578633	0.379835
692.780479	0.380120
692.982308	0.380617
693.184118	0.380656
693.385909	0.380510
693.587683	0.380615
693.789438	0.381172
693.991175	0.381376
694.192894	0.381919
694.394595	0.382102
694.596277	0.382316
694.797941	0.382298
694.999587	0.382382
695.201215	0.382862
695.402824	0.383257
695.604416	0.383314
695.805989	0.383640
696.007543	0.383516
696.209080	0.383811
696.410598	0.383911
696.612099	0.384057
696.813580	0.384213
697.015044	0.384336
697.216490	0.384413
697.417917	0.384652
697.619326	0.384489
697.820717	0.384684
698.022089	0.384648
698.223444	0.384847
698.424780	0.384867
698.626098	0.384783
698.827397	0.384769
699.028679	0.384873
699.229942	0.384709
699.431187	0.385036
699.632414	0.385350
699.833622	0.385485
700.034813	0.385595
700.235985	0.385969
700.437139	0.386679
700.638274	0.387051
700.839392	0.387240
701.040491	0.387715
701.241572	0.388135
701.442635	0.388396
701.643679	0.388537
701.844706	0.388955
702.045714	0.389213
702.246704	0.389130
702.447675	0.389037
702.648629	0.388774
702.849564	0.389021
703.050481	0.389083
703.251380	0.389125
703.452260	0.389166
703.653122	0.389136
703.853966	0.389179
704.054792	0.388973
704.255600	0.388978
704.456389	0.389161
704.657160	0.388957
704.857913	0.388469
705.058648	0.388365
705.259365	0.388201
705.460063	0.387543
705.660743	0.387233
705.861405	0.387399
706.062048	0.387613
706.262674	0.387641
706.463281	0.387707
706.663870	0.388078
706.864441	0.387732
707.064993	0.388048
707.265527	0.388308
707.466043	0.388417
707.666541	0.388481
707.867021	0.388514
708.067482	0.388350
708.267925	0.388212
708.468350	0.388163
708.668757	0.388690
708.869145	0.388820
709.069516	0.389010
709.269868	0.389076
709.470201	0.389064
709.670517	0.389099
709.870814	0.389641
710.071093	0.390027
710.271354	0.390017
710.471597	0.389911
710.671821	0.389923
710.872028	0.389962
711.072216	0.390017
711.272385	0.390335
711.472537	0.390275
711.672670	0.390164
711.872785	0.390230
712.072882	0.390462
712.272961	0.390443
712.473021	0.390355
712.673063	0.390307
712.873087	0.390270
713.073093	0.390102
713.273081	0.390236
713.473050	0.390149
713.673001	0.389793
713.872934	0.389645
714.072849	0.389653
714.272745	0.389639
714.472623	0.389834
714.672483	0.389947
714.872325	0.389896
715.072148	0.389833
715.271954	0.389993
715.471741	0.390185
715.671509	0.390186
715.871260	0.390230
716.070992	0.390656
716.270707	0.390352
716.470403	0.390355
716.670080	0.390237
716.869740	0.390190
717.069381	0.390035
717.269004	0.389961
717.468609	0.389856
717.668195	0.389624
717.867764	0.388987
718.067314	0.389077
718.266846	0.389078
718.466360	0.389022
718.665855	0.389205
718.865332	0.389222
719.064791	0.389179
719.264232	0.388971
719.463655	0.389156
719.663059	0.389083
719.862445	0.388911
720.061813	0.388465
720.261163	0.388472
720.460494	0.388096
720.659807	0.388017
720.859102	0.387823
721.058379	0.387743
721.257638	0.387430
721.456878	0.387618
721.656100	0.387859
721.855304	0.388312
722.054490	0.388139
722.253657	0.388028
722.452806	0.387741
722.651937	0.387709
722.851050	0.387593
723.050145	0.387541
723.249221	0.387067
723.448279	0.386910
723.647319	0.386093
723.846340	0.385860
724.045344	0.385618
724.244329	0.385421
724.443296	0.385234
724.642245	0.385052
724.841175	0.384869
725.040088	0.384896
725.238982	0.384556
725.437857	0.384822
725.636715	0.384695
725.835554	0.384708
726.034376	0.384692
726.233179	0.384436
726.431963	0.384366
726.630730	0.384093
726.829478	0.383789
727.028208	0.383555
727.226920	0.383406
727.425614	0.383208
727.624289	0.382888
727.822946	0.382580
728.021585	0.382416
728.220206	0.382215
728.418808	0.382173
728.617392	0.381957
728.815958	0.382128
729.014506	0.381746
729.213036	0.381779
729.411547	0.381850
729.610040	0.381905
729.808515	0.382154
730.006972	0.382056
730.205410	0.382055
730.403831	0.382254
730.602233	0.382151
730.800616	0.382131
730.998982	0.381717
731.197329	0.381548
731.395658	0.381423
731.593969	0.381151
731.792262	0.381171
731.990536	0.381136
732.188793	0.380768
732.387031	0.380171
732.585250	0.379996
732.783452	0.379919
732.981635	0.379755
733.179800	0.379486
733.377947	0.379145
733.576076	0.378662
733.774186	0.378561
733.972278	0.378499
734.170352	0.378555
734.368408	0.378800
734.566446	0.378777
734.764465	0.378211
734.962466	0.377897
735.160449	0.377782
735.358413	0.377768
735.556360	0.377335
735.754288	0.377015
735.952198	0.376918
736.150090	0.376520
736.347963	0.376391
736.545818	0.376457
736.743655	0.376347
736.941474	0.376194
737.139275	0.376121
737.337057	0.375611
737.534821	0.375401
737.732567	0.374800
737.930295	0.374265
738.128005	0.373655
738.325696	0.373401
738.523369	0.372985
738.721024	0.372324
738.918660	0.371696
739.116279	0.371638
739.313879	0.371291
739.511461	0.371337
739.709024	0.371081
739.906570	0.371042
740.104097	0.370990
740.301606	0.370959
740.499097	0.371080
740.696569	0.370968
740.894024	0.371077
741.091460	0.371062
741.288878	0.370895
741.486277	0.371033
741.683659	0.371123
741.881022	0.370768
742.078367	0.370513
742.275694	0.370307
742.473002	0.370386
742.670293	0.369753
742.867565	0.369530
743.064819	0.369104
743.262054	0.368625
743.459272	0.368060
743.656471	0.367950
743.853652	0.367814
744.050815	0.367486
744.247959	0.367346
744.445085	0.367133
744.642194	0.366660
744.839283	0.366680
745.036355	0.366472
745.233408	0.366458
745.430444	0.366509
745.627461	0.366388
745.824459	0.366384
746.021440	0.365900
746.218402	0.365743
746.415346	0.365837
746.612272	0.365749
746.809180	0.365813
747.006069	0.365687
747.202940	0.364977
747.399793	0.364643
747.596628	0.364441
747.793444	0.364441
747.990243	0.364551
748.187023	0.364548
748.383784	0.364153
748.580528	0.364064
748.777253	0.363758
748.973960	0.363700
749.170649	0.363712
749.367320	0.363425
749.563973	0.363039
749.760607	0.362432
749.957223	0.362088
750.153821	0.361832
750.350400	0.361377
750.546962	0.361023
750.743505	0.360575
750.940030	0.360214
751.136536	0.359870
751.333025	0.359563
751.529495	0.359625
751.725947	0.359428
751.922381	0.359451
752.118796	0.359130
752.315194	0.359016
752.511573	0.358866
752.707934	0.358599
752.904276	0.358464
753.100601	0.358147
753.296907	0.357756
753.493195	0.357490
753.689465	0.356792
753.885716	0.356704
754.081949	0.356582
754.278164	0.356316
754.474361	0.356022
754.670540	0.356059
754.866700	0.355973
755.062843	0.355821
755.258967	0.355552
755.455072	0.355607
755.651160	0.355200
755.847229	0.354766
756.043280	0.354922
756.239313	0.354763
756.435328	0.354554
756.631324	0.354505
756.827302	0.354075
757.023262	0.353986
757.219204	0.353717
757.415127	0.353591
757.611033	0.353564
757.806920	0.352959
758.002788	0.352738
758.198639	0.352054
758.394471	0.351960
758.590286	0.351890
758.786081	0.351517
758.981859	0.351352
759.177619	0.351032
759.373360	0.350734
759.569083	0.350717
759.764788	0.350516
759.960474	0.350616
760.156143	0.350172
760.351793	0.350201
760.547425	0.350084
760.743038	0.350172
760.938634	0.350107
761.134211	0.350210
761.329770	0.350138
761.525311	0.350028
761.720833	0.349977
761.916338	0.349892
762.111824	0.349627
762.307292	0.349637
762.502741	0.349364
762.698173	0.349430
762.893586	0.349182
763.088981	0.349225
763.284358	0.349427
763.479716	0.349003
763.675057	0.348993
763.870379	0.348860
764.065683	0.348694
764.260968	0.348761
764.456236	0.348456
764.651485	0.348059
764.846716	0.347816
765.041929	0.347551
765.237123	0.347436
765.432299	0.347475
765.627457	0.347265
765.822597	0.347049
766.017719	0.346643
766.212822	0.347032
766.407907	0.347372
766.602974	0.347254
766.798023	0.347151
766.993054	0.347559
767.188066	0.347424
767.383060	0.347730
767.578036	0.347736
767.772993	0.347700
767.967933	0.347215
768.162854	0.346724
768.357757	0.346610
768.552642	0.346587
768.747508	0.346412
768.942356	0.346209
769.137186	0.346070
769.331998	0.346089
769.526792	0.345867
769.721567	0.345758
769.916324	0.345676
770.111063	0.345385
770.305784	0.345034
770.500486	0.344386
770.695171	0.344352
770.889837	0.343867
771.084484	0.343661
771.279114	0.343746
771.473725	0.343476
771.668318	0.343295
771.862893	0.343244
772.057450	0.343181
772.251988	0.343357
772.446509	0.343057
772.641011	0.343271
772.835494	0.343433
773.029960	0.343237
773.224407	0.343302
773.418836	0.343420
773.613247	0.343530
773.807640	0.343634
774.002014	0.343717
774.196370	0.343719
774.390708	0.343771
774.585028	0.343304
774.779330	0.343137
774.973613	0.343180
775.167878	0.343079
775.362125	0.343100
775.556354	0.342882
775.750564	0.342887
775.944756	0.342767
776.138930	0.342622
776.333086	0.342999
776.527223	0.343301
776.721343	0.343168
776.915444	0.343217
777.109526	0.343087
777.303591	0.342923
777.497637	0.342790
777.691666	0.342913
777.885676	0.342710
778.079667	0.342195
778.273641	0.341904
778.467596	0.341795
778.661533	0.341742
778.855452	0.342015
779.049352	0.342334
779.243235	0.342233
779.437099	0.342322
779.630945	0.342440
779.824773	0.342783
780.018582	0.342938
780.212373	0.343241
780.406146	0.343295
780.599901	0.343123
780.793638	0.343086
780.987356	0.343126
781.181056	0.343058
781.374738	0.343206
781.568402	0.343158
781.762047	0.343017
781.955674	0.342965
782.149283	0.343149
782.342874	0.343082
782.536447	0.342820
782.730001	0.342960
782.923537	0.343014
783.117055	0.343231
783.310555	0.343229
783.504036	0.343671
783.697499	0.343726
783.890944	0.343715
784.084371	0.343816
784.277780	0.344329
784.471170	0.344589
784.664542	0.344878
784.857896	0.344874
785.051231	0.345181
785.244549	0.345133
785.437848	0.345042
785.631129	0.345026
785.824392	0.345164
786.017636	0.345108
786.210863	0.345114
786.404071	0.345171
786.597260	0.345281
786.790432	0.345140
786.983585	0.345087
787.176721	0.345539
787.369838	0.345757
787.562936	0.345784
787.756017	0.345795
787.949079	0.346090
788.142123	0.345952
788.335149	0.345849
788.528156	0.346029
788.721146	0.346191
788.914117	0.346164
789.107070	0.346304
789.300005	0.346535
789.492921	0.346750
789.685819	0.346550
789.878699	0.346958
790.071561	0.347089
790.264405	0.347120
790.457230	0.347261
790.650037	0.347514
790.842826	0.347587
791.035597	0.347786
791.228349	0.347821
791.421084	0.348018
791.613800	0.348106
791.806497	0.348278
791.999177	0.348589
792.191838	0.348980
792.384481	0.349148
792.577106	0.349437
792.769713	0.349581
792.962301	0.350011
793.154871	0.350041
793.347423	0.350179
793.539957	0.350331
793.732473	0.350332
793.924970	0.350160
794.117449	0.350172
794.309910	0.350613
794.502353	0.350773
794.694777	0.350772
794.887183	0.351150
795.079571	0.351443
795.271941	0.351732
795.464293	0.352045
795.656626	0.352696
795.848941	0.352773
796.041238	0.352852
796.233516	0.353242
796.425777	0.353574
796.618019	0.354181
796.810243	0.354209
797.002449	0.354415
797.194636	0.354859
797.386805	0.355154
797.578956	0.355544
797.771089	0.355587
797.963204	0.355819
798.155300	0.356413
798.347378	0.356008
798.539438	0.356270
798.731480	0.356287
798.923503	0.356447
799.115509	0.356371
799.307496	0.356657
799.499465	0.356856
799.691415	0.356994
799.883348	0.356803
800.075262	0.357176
800.267158	0.357397
800.459035	0.357960
800.650895	0.357796
800.842736	0.358073
801.034559	0.358325
801.226364	0.358563
801.418150	0.358578
801.609919	0.358697
801.801669	0.359096
801.993401	0.359411
802.185114	0.359781
802.376810	0.360229
802.568487	0.360339
802.760146	0.360427
802.951787	0.360666
803.143409	0.360994
803.335014	0.361255
803.526600	0.361787
803.718168	0.361952
803.909717	0.362201
804.101249	0.362975
804.292762	0.363704
804.484257	0.364173
804.675734	0.364455
804.867192	0.364973
805.058632	0.365485
805.250054	0.365348
805.441458	0.365768
805.632844	0.365891
805.824211	0.365793
806.015561	0.365649
806.206891	0.365845
806.398204	0.366322
806.589499	0.366683
806.780775	0.367164
806.972033	0.367680
807.163273	0.368246
807.354495	0.368401
807.545698	0.368779
807.736883	0.369066
807.928050	0.369461
808.119199	0.369849
808.310329	0.369904
808.501441	0.370079
808.692535	0.370452
808.883611	0.370538
809.074669	0.371111
809.265708	0.371601
809.456729	0.372054
809.647732	0.372674
809.838717	0.373009
810.029683	0.373547
810.220632	0.373888
810.411562	0.373973
810.602474	0.374643
810.793367	0.374894
810.984242	0.375136
811.175100	0.375978
811.365938	0.376250
811.556759	0.376661
811.747562	0.376871
811.938346	0.377358
812.129112	0.377881
812.319860	0.377958
812.510589	0.378626
812.701300	0.379157
812.891994	0.379242
813.082668	0.379655
813.273325	0.379958
813.463964	0.380315
813.654584	0.380697
813.845186	0.381377
814.035769	0.381723
814.226335	0.382002
814.416882	0.382141
814.607411	0.382432
814.797922	0.382924
814.988415	0.383328
815.178889	0.383810
815.369345	0.384013
815.559783	0.384274
815.750203	0.384530
815.940605	0.384702
816.130988	0.384984
816.321353	0.385566
816.511700	0.385294
816.702028	0.385265
816.892339	0.385505
817.082631	0.385714
817.272905	0.385784
817.463161	0.386388
817.653398	0.387048
817.843617	0.387413
818.033819	0.387812
818.224001	0.388557
818.414166	0.389167
818.604312	0.389654
818.794440	0.390186
818.984550	0.390289
819.174642	0.390446
819.364716	0.390380
819.554771	0.390928
819.744808	0.390839
819.934827	0.391137
820.124827	0.391509
820.314810	0.391746
820.504774	0.392223
820.694720	0.393087
820.884647	0.393562
821.074557	0.394322
821.264448	0.394715
821.454321	0.395251
821.644176	0.395844
821.834012	0.396746
822.023831	0.397150
822.213631	0.397536
822.403413	0.398169
822.593176	0.398800
822.782922	0.399251
822.972649	0.399991
823.162358	0.400718
823.352049	0.401056
823.541721	0.401349
823.731376	0.402219
823.921012	0.402966
824.110629	0.403008
824.300229	0.403529
824.489811	0.403806
824.679374	0.403822
824.868919	0.403872
825.058445	0.404388
825.247954	0.404883
825.437444	0.405293
825.626916	0.405542
825.816370	0.406434
826.005806	0.407014
826.195223	0.407235
826.384622	0.407852
826.574003	0.408594
826.763366	0.409347
826.952711	0.409763
827.142037	0.409819
827.331345	0.410135
827.520635	0.410535
827.709906	0.411081
827.899160	0.411624
828.088395	0.412000
828.277612	0.412554
828.466810	0.412892
828.655991	0.413467
828.845153	0.414424
829.034297	0.415095
829.223423	0.415348
829.412531	0.415776
829.601620	0.416713
829.790691	0.417470
829.979744	0.417931
830.168779	0.418602
830.357795	0.419127
830.546793	0.419275
830.735773	0.419600
830.924735	0.420103
831.113679	0.420476
831.302604	0.420687
831.491511	0.421115
831.680400	0.421705
831.869271	0.422008
832.058123	0.422330
832.246957	0.422892
832.435773	0.423614
832.624571	0.424227
832.813351	0.424473
833.002112	0.425249
833.190855	0.426028
833.379580	0.426280
833.568287	0.426802
833.756975	0.427546
833.945645	0.428409
834.134297	0.428828
834.322931	0.429538
834.511547	0.430251
834.700144	0.430774
834.888723	0.431221
835.077284	0.432065
835.265826	0.432377
835.454351	0.432819
835.642857	0.433445
835.831345	0.433992
836.019815	0.434378
836.208266	0.435103
836.396699	0.435572
836.585114	0.435986
836.773511	0.436420
836.961890	0.437088
837.150250	0.437305
837.338592	0.437327
837.526916	0.438154
837.715222	0.439004
837.903510	0.439446
838.091779	0.440329
838.280030	0.441090
838.468263	0.441475
838.656477	0.442363
838.844674	0.443143
839.032852	0.444023
839.221012	0.444099
839.409153	0.444142
839.597277	0.444827
839.785382	0.445042
839.973469	0.445457
840.161538	0.446559
840.349589	0.447251
840.537621	0.447911
840.725635	0.448675
840.913631	0.449643
841.101609	0.450620
841.289568	0.450816
841.477509	0.451862
841.665432	0.452727
841.853337	0.453205
842.041224	0.453387
842.229092	0.454128
842.416942	0.454797
842.604774	0.455517
842.792588	0.456250
842.980383	0.457274
843.168160	0.457886
843.355919	0.458224
843.543660	0.458730
843.731382	0.459428
843.919087	0.459820
844.106773	0.460519
844.294441	0.461266
844.482090	0.461452
844.669722	0.461624
844.857335	0.461529
845.044930	0.462072
845.232507	0.462278
845.420065	0.462576
845.607605	0.463154
845.795127	0.463563
845.982631	0.463694
846.170117	0.464511
846.357584	0.465448
846.545033	0.466357
846.732464	0.467276
846.919877	0.468355
847.107272	0.469386
847.294648	0.469936
847.482006	0.470363
847.669346	0.470985
847.856667	0.471721
848.043971	0.472148
848.231256	0.472944
848.418523	0.473284
848.605771	0.473655
848.793002	0.474131
848.980214	0.474916
849.167408	0.475460
849.354584	0.476355
849.541742	0.476799
849.728881	0.477697
849.916002	0.478318
850.103105	0.478732
850.290190	0.479343
850.477256	0.479824
850.664304	0.480113
850.851334	0.480590
851.038346	0.480859
851.225340	0.481381
851.412315	0.481741
851.599272	0.481833
851.786211	0.482168
851.973132	0.482958
852.160034	0.483574
852.346918	0.483769
852.533784	0.484358
852.720632	0.484784
852.907462	0.485120
853.094273	0.485785
853.281066	0.486797
853.467841	0.487319
853.654598	0.487335
853.841336	0.487534
854.028056	0.488284
854.214758	0.488688
854.401442	0.489127
854.588107	0.489721
854.774755	0.489788
854.961384	0.489866
855.147995	0.490493
855.334587	0.491678
855.521162	0.492628
855.707718	0.493664
855.894256	0.494378
856.080775	0.495428
856.267277	0.495753
856.453760	0.496126
856.640225	0.496589
856.826672	0.497274
857.013101	0.497320
857.199511	0.497816
857.385903	0.498061
857.572277	0.498457
857.758633	0.498985
857.944970	0.499547
858.131290	0.500098
858.317591	0.500523
858.503873	0.500582
858.690138	0.501036
858.876384	0.501251
859.062612	0.501701
859.248822	0.502197
859.435014	0.502337
859.621188	0.502921
859.807343	0.503586
859.993480	0.504060
860.179599	0.505198
860.365699	0.505405
860.551781	0.505739
860.737846	0.506266
860.923891	0.506652
861.109919	0.506918
861.295929	0.507578
861.481920	0.507781
861.667893	0.508455
861.853848	0.508720
862.039784	0.509403
862.225702	0.510284
862.411603	0.510667
862.597484	0.511094
862.783348	0.511741
862.969193	0.512156
863.155021	0.513213
863.340830	0.513828
863.526620	0.514616
863.712393	0.514756
863.898147	0.515326
864.083883	0.516372
864.269601	0.516554
864.455301	0.517007
864.640982	0.517312
864.826645	0.517720
865.012290	0.518222
865.197917	0.518386
865.383526	0.519247
865.569116	0.519657
865.754688	0.519447
865.940242	0.519886
866.125777	0.520498
866.311295	0.521281
866.496794	0.521257
866.682275	0.521693
866.867737	0.522091
867.053182	0.522564
867.238608	0.522825
867.424016	0.523301
867.609406	0.524560
867.794778	0.524963
867.980131	0.525176
868.165466	0.525748
868.350783	0.525641
868.536082	0.525872
868.721362	0.526324
868.906625	0.526256
869.091869	0.526980
869.277094	0.527461
869.462302	0.527202
869.647491	0.527396
869.832662	0.527916
870.017815	0.528426
870.202950	0.529035
870.388066	0.528912
870.573165	0.529341
870.758245	0.529253
870.943306	0.529462
871.128350	0.529942
871.313375	0.530302
871.498382	0.530768
871.683371	0.531472
871.868342	0.531863
872.053294	0.532232
872.238229	0.532746
872.423144	0.533226
872.608042	0.532985
872.792922	0.533277
872.977783	0.533679
873.162626	0.533585
873.347451	0.533363
873.532258	0.533658
873.717046	0.534288
873.901816	0.533903
874.086568	0.534192
874.271302	0.534688
874.456017	0.534901
874.640715	0.535017
874.825394	0.534932
875.010055	0.535350
875.194697	0.535061
875.379322	0.535129
875.563928	0.536276
875.748516	0.536666
875.933085	0.536567
876.117637	0.537446
876.302170	0.537974
876.486685	0.538464
876.671182	0.538783
876.855661	0.539146
877.040121	0.539587
877.224563	0.539645
877.408987	0.539367
877.593393	0.539821
877.777780	0.540002
877.962150	0.540034
878.146501	0.540061
878.330833	0.540404
878.515148	0.541106
878.699444	0.541370
878.883722	0.541372
879.067982	0.542027
879.252224	0.542557
879.436447	0.542276
879.620653	0.542208
879.804840	0.542378
879.989008	0.542138
880.173159	0.541487
880.357291	0.541123
880.541405	0.542063
880.725501	0.541600
880.909579	0.541092
881.093638	0.541140
881.277680	0.541524
881.461703	0.541492
881.645707	0.541618
881.829694	0.542278
882.013662	0.543404
882.197612	0.542606
882.381544	0.542706
882.565458	0.543100
882.749353	0.543410
882.933230	0.543215
883.117089	0.543408
883.300930	0.543460
883.484753	0.543185
883.668557	0.542220
883.852343	0.542261
884.036111	0.542186
884.219861	0.542115
884.403592	0.542122
884.587305	0.542020
884.771000	0.542264
884.954677	0.542023
885.138335	0.541815
885.321976	0.542098
885.505598	0.542130
885.689201	0.542334
885.872787	0.542555
886.056354	0.542389
886.239904	0.542886
886.423434	0.543172
886.606947	0.543748
886.790442	0.543705
886.973918	0.544053
887.157376	0.544220
887.340816	0.544213
887.524237	0.544370
887.707641	0.544397
887.891026	0.544335
888.074393	0.544280
888.257741	0.543681
888.441072	0.543594
888.624384	0.543072
888.807678	0.543333
888.990954	0.543518
889.174211	0.543297
889.357451	0.542667
889.540672	0.542472
889.723875	0.542257
889.907059	0.542522
890.090226	0.543019
890.273374	0.543077
890.456504	0.542278
890.639616	0.542226
890.822709	0.541845
891.005785	0.542221
891.188842	0.542397
891.371881	0.542183
891.554901	0.542001
891.737904	0.541698
891.920888	0.541588
892.103854	0.541580
892.286802	0.541828
892.469731	0.541928
892.652643	0.541784
892.835536	0.541767
893.018410	0.541865
893.201267	0.541636
893.384106	0.542237
893.566926	0.541477
893.749728	0.541738
893.932511	0.541396
894.115277	0.541024
894.298024	0.541742
894.480753	0.541367
894.663464	0.541138
894.846157	0.541729
895.028831	0.541431
895.211487	0.542374
895.394125	0.542122
895.576745	0.541917
895.759346	0.542327
895.941930	0.541855
896.124495	0.541294
896.307041	0.541374
896.489570	0.540501
896.672080	0.540587
896.854573	0.539741
897.037046	0.539609
897.219502	0.539190
897.401940	0.538619
897.584359	0.538262
897.766760	0.538495
897.949143	0.538490
898.131507	0.538733
898.313854	0.537877
898.496182	0.537679
898.678492	0.537264
898.860783	0.537301
899.043057	0.536364
899.225312	0.535980
899.407549	0.535644
899.589768	0.535484
899.771968	0.534666
899.954151	0.534065
900.136315	0.533706
900.318461	0.533496
900.500588	0.533157
900.682698	0.533526
900.864789	0.532697
901.046862	0.532420
901.228917	0.531244
901.410953	0.530942
901.592971	0.530869
901.774972	0.530210
901.956953	0.529559
902.138917	0.529056
902.320862	0.528320
902.502790	0.528099
902.684699	0.526970
902.866589	0.526761
903.048462	0.526511
903.230316	0.525821
903.412152	0.525604
903.593970	0.525477
903.775770	0.524081
903.957551	0.523518
904.139314	0.522604
904.321059	0.522271
904.502786	0.521227
904.684494	0.520686
904.866185	0.519948
905.047857	0.519552
905.229510	0.518402
905.411146	0.518423
905.592763	0.517635
905.774363	0.517834
905.955943	0.516949
906.137506	0.516807
906.319051	0.516100
906.500577	0.516208
906.682085	0.515603
906.863575	0.515327
907.045046	0.514614
907.226500	0.514451
907.407935	0.513605
907.589352	0.513629
907.770750	0.512750
907.952131	0.512995
908.133493	0.511846
908.314837	0.511207
908.496163	0.510779
908.677470	0.510768
908.858760	0.510085
909.040031	0.509903
909.221284	0.508459
909.402518	0.508122
909.583735	0.506557
909.764933	0.506396
909.946113	0.506359
910.127275	0.506204
910.308418	0.505563
910.489544	0.505145
910.670651	0.504539
910.851740	0.505160
911.032810	0.504881
911.213863	0.504571
911.394897	0.503945
911.575913	0.503036
911.756911	0.501983
911.937890	0.501404
912.118851	0.500793
912.299794	0.500473
912.480719	0.499464
912.661626	0.498741
912.842514	0.498304
913.023384	0.498023
913.204236	0.496857
913.385070	0.496508
913.565886	0.495908
913.746683	0.495377
913.927462	0.494015
914.108223	0.493005
914.288965	0.492092
914.469690	0.491074
914.650396	0.489554
914.831084	0.488923
915.011754	0.487828
915.192405	0.486917
915.373038	0.486512
915.553653	0.485664
915.734250	0.485035
915.914829	0.484271
916.095389	0.483400
916.275931	0.482880
916.456455	0.481896
916.636961	0.481826
916.817448	0.481037
916.997917	0.480024
917.178368	0.478880
917.358801	0.478474
917.539216	0.477267
917.719612	0.476946
917.899990	0.475201
918.080350	0.474325
918.260692	0.472168
918.441015	0.470434
918.621320	0.468848
918.801607	0.468256
918.981876	0.466346
919.162127	0.465163
919.342359	0.463398
919.522573	0.463354
919.702769	0.462684
919.882947	0.461736
920.063106	0.460904
920.243247	0.460204
920.423370	0.458770
920.603475	0.456990
920.783562	0.456294
920.963630	0.455404
921.143680	0.453767
921.323712	0.453014
921.503725	0.452596
921.683721	0.451998
921.863698	0.450916
922.043657	0.450450
922.223598	0.451097
922.403520	0.450864
922.583424	0.449677
922.763311	0.449857
922.943178	0.448745
923.123028	0.447193
923.302859	0.445803
923.482673	0.444949
923.662467	0.444063
923.842244	0.442396
924.022003	0.441546
924.201743	0.440998
924.381465	0.438615
924.561169	0.437515
924.740854	0.437403
924.920522	0.436317
925.100171	0.434498
925.279802	0.432607
925.459414	0.431438
925.639009	0.429264
925.818585	0.428079
925.998143	0.427526
926.177683	0.426753
926.357205	0.425317
926.536708	0.425042
926.716193	0.424868
926.895660	0.424408
927.075109	0.423794
927.254539	0.421892
927.433951	0.421117
927.613345	0.420099
927.792721	0.418151
927.972079	0.415866
928.151418	0.413152
928.330739	0.411025
928.510042	0.409618
928.689327	0.407899
928.868593	0.408075
929.047841	0.406237
929.227071	0.404508
929.406283	0.403495
929.585476	0.402573
929.764652	0.402433
929.943809	0.402012
930.122948	0.400879
930.302068	0.400615
930.481171	0.399020
930.660255	0.397528
930.839321	0.396776
931.018369	0.396092
931.197398	0.395051
931.376409	0.394371
931.555402	0.394011
931.734377	0.393318
931.913334	0.391618
932.092272	0.391169
932.271192	0.391494
932.450094	0.390551
932.628978	0.389629
932.807844	0.387871
932.986691	0.385773
933.165520	0.383388
933.344331	0.381046
933.523123	0.379827
933.701898	0.378448
933.880654	0.376484
934.059392	0.375286
934.238111	0.373425
934.416813	0.373169
934.595496	0.372392
934.774161	0.371210
934.952808	0.371016
935.131437	0.370079
935.310047	0.367563
935.488639	0.366199
935.667213	0.363509
935.845769	0.362238
936.024306	0.360874
936.202825	0.359589
936.381326	0.357991
936.559809	0.356156
936.738274	0.354410
936.916720	0.353844
937.095148	0.352650
937.273558	0.352346
937.451950	0.351502
937.630323	0.350218
937.808678	0.348172
937.987015	0.346169
938.165334	0.345197
938.343635	0.343540
938.521917	0.343360
938.700181	0.341792
938.878427	0.339995
939.056655	0.337950
939.234864	0.336417
939.413055	0.336184
939.591228	0.336947
939.769383	0.335212
939.947519	0.334636
940.125638	0.331941
940.303738	0.330313
940.481820	0.328841
940.659883	0.327564
940.837929	0.325755
941.015956	0.324126
941.193965	0.322165
941.371955	0.320458
941.549928	0.317451
941.727882	0.316000
941.905818	0.313772
942.083736	0.313796
942.261636	0.312108
942.439517	0.310956
942.617380	0.310069
942.795225	0.308526
942.973052	0.307512
943.150860	0.306730
943.328651	0.304727
943.506423	0.305488
943.684176	0.303374
943.861912	0.299682
944.039629	0.298786
944.217328	0.295970
944.395009	0.293313
944.572672	0.291890
944.750317	0.291612
944.927943	0.290560
945.105551	0.286157
945.283141	0.284171
945.460712	0.286629
945.638265	0.284710
945.815801	0.284518
945.993317	0.282044
946.170816	0.281232
946.348297	0.278601
946.525759	0.276658
946.703203	0.277054
946.880629	0.274134
947.058036	0.269798
947.235425	0.268157
947.412797	0.264364
947.590149	0.264796
947.767484	0.262822
947.944800	0.261403
948.122099	0.261592
948.299379	0.258489
948.476640	0.257015
948.653884	0.258136
948.831109	0.257760
949.008316	0.257014
949.185505	0.255336
949.362676	0.253029
949.539828	0.252909
949.716962	0.251000
949.894078	0.250365
950.071176	0.248480
950.248256	0.245751
950.425317	0.244293
950.602360	0.243224
950.779385	0.239788
950.956391	0.238251
951.133380	0.236038
951.310350	0.234886
951.487302	0.234957
951.664235	0.235344
951.841151	0.234508
952.018048	0.231010
952.194927	0.227944
952.371788	0.231486
952.548631	0.230969
952.725455	0.227688
952.902261	0.226934
953.079049	0.223764
953.255819	0.222894
953.432570	0.221503
953.609303	0.220457
953.786018	0.223137
953.962715	0.217820
954.139394	0.216660
954.316054	0.218430
954.492696	0.217603
954.669320	0.218583
954.845926	0.216455
955.022513	0.214433
955.199083	0.214422
955.375634	0.212304
955.552166	0.214369
955.728681	0.214509
955.905177	0.211362
956.081655	0.208568
956.258115	0.206009
956.434557	0.205556
956.610980	0.204303
956.787385	0.200834
956.963772	0.198267
957.140141	0.195091
957.316492	0.191857
957.492824	0.192723
957.669138	0.191322
957.845434	0.192708
958.021712	0.191518
958.197971	0.191165
958.374212	0.193065
958.550435	0.194201
958.726640	0.193607
958.902826	0.193176
959.078995	0.191123
959.255145	0.190534
959.431277	0.187564
959.607390	0.186483
959.783486	0.184249
959.959563	0.183370
960.135622	0.179209
960.311662	0.179560
960.487685	0.180387
960.663689	0.180317
960.839675	0.179217
961.015643	0.180583
961.191593	0.183360
961.367524	0.184914
961.543437	0.186094
961.719332	0.186518
961.895209	0.185179
962.071067	0.183157
962.246907	0.184659
962.422730	0.184087
962.598533	0.183685
962.774319	0.179826
962.950086	0.178727
963.125835	0.177474
963.301566	0.178131
963.477279	0.178120
963.652973	0.178116
963.828650	0.174800
964.004308	0.176618
964.179947	0.174893
964.355569	0.172641
964.531172	0.172309
964.706757	0.170927
964.882324	0.171993
965.057873	0.172708
965.233403	0.171787
965.408916	0.172513
965.584410	0.170982
965.759885	0.171254
965.935343	0.173718
966.110782	0.176202
966.286203	0.178010
966.461606	0.174749
966.636991	0.172961
966.812357	0.174678
966.987705	0.172992
967.163035	0.173598
967.338347	0.173350
967.513641	0.173324
967.688916	0.172662
967.864173	0.170654
968.039412	0.171827
968.214632	0.172343
968.389835	0.172322
968.565019	0.174933
968.740185	0.176546
968.915333	0.178828
969.090462	0.177780
969.265573	0.178952
969.440667	0.179098
969.615741	0.178335
969.790798	0.178946
969.965836	0.177380
970.140856	0.176554
970.315858	0.175616
970.490842	0.174245
970.665808	0.173389
970.840755	0.171015
971.015684	0.172138
971.190595	0.176464
971.365487	0.175395
971.540362	0.173557
971.715218	0.173572
971.890056	0.173355
972.064875	0.173565
972.239677	0.179164
972.414460	0.181108
972.589225	0.178647
972.763972	0.177226
972.938700	0.178552
973.113411	0.182518
973.288103	0.182684
973.462777	0.181444
973.637432	0.176768
973.812070	0.175129
973.986689	0.174391
974.161290	0.176148
974.335873	0.173155
974.510437	0.170684
974.684984	0.170274
974.859512	0.172249
975.034022	0.174309
975.208513	0.177237
975.382987	0.177219
975.557442	0.176781
975.731879	0.174233
975.906298	0.175812
976.080698	0.177037
976.255080	0.177852
976.429445	0.174135
976.603790	0.173868
976.778118	0.173834
976.952427	0.171287
977.126719	0.168986
977.300992	0.172483
977.475246	0.171667
977.649483	0.169641
977.823701	0.168389
977.997901	0.169035
978.172083	0.165410
978.346247	0.165522
978.520392	0.166726
978.694519	0.166741
978.868628	0.164877
979.042719	0.166282
979.216791	0.167711
979.390845	0.169207
979.564882	0.170165
979.738899	0.171279
979.912899	0.171006
980.086880	0.171069
980.260843	0.171494
980.434788	0.170644
980.608715	0.169291
980.782623	0.170387
980.956514	0.166878
981.130386	0.167166
981.304240	0.167563
981.478075	0.166933
981.651892	0.166387
981.825692	0.166929
981.999472	0.167634
982.173235	0.170195
982.346980	0.168950
982.520706	0.169269
982.694414	0.169403
982.868104	0.169489
983.041775	0.169525
983.215428	0.169162
983.389064	0.168443
983.562680	0.170424
983.736279	0.165585
983.909860	0.167707
984.083422	0.172273
984.256966	0.171510
984.430491	0.172104
984.603999	0.171878
984.777488	0.173623
984.950959	0.175378
985.124412	0.176277
985.297847	0.178687
985.471263	0.177257
985.644661	0.173046
985.818041	0.174867
985.991403	0.171498
986.164747	0.171892
986.338072	0.170136
986.511379	0.168031
986.684668	0.165655
986.857938	0.164857
987.031191	0.165067
987.204425	0.164721
987.377641	0.163627
987.550839	0.168394
987.724018	0.168961
987.897179	0.170582
988.070322	0.171511
988.243447	0.171471
988.416554	0.170988
988.589642	0.170842
988.762712	0.172427
988.935764	0.171757
989.108798	0.170696
989.281813	0.170697
989.454811	0.170893
989.627790	0.169535
989.800751	0.171418
989.973693	0.172334
990.146617	0.170833
990.319524	0.171001
990.492412	0.169814
990.665281	0.168620
990.838133	0.166546
991.010966	0.164273
991.183781	0.165742
991.356578	0.164309
991.529356	0.163801
991.702117	0.166233
991.874859	0.165704
992.047583	0.167203
992.220288	0.167723
992.392976	0.171343
992.565645	0.172121
992.738296	0.170914
992.910929	0.169718
993.083543	0.169395
993.256139	0.169172
993.428718	0.168641
993.601277	0.168828
993.773819	0.167787
993.946342	0.166152
994.118848	0.166433
994.291335	0.168420
994.463803	0.169530
994.636254	0.170532
994.808686	0.171428
994.981100	0.171929
995.153496	0.171724
995.325874	0.172261
995.498233	0.170546
995.670574	0.169937
995.842897	0.170032
996.015202	0.171513
996.187488	0.172930
996.359757	0.171139
996.532007	0.171358
996.704239	0.171196
996.876452	0.172013
997.048648	0.173433
997.220825	0.173452
997.392984	0.176328
997.565124	0.175319
997.737247	0.175524
997.909351	0.174315
998.081437	0.173706
998.253505	0.173042
998.425554	0.173559
998.597586	0.174377
998.769599	0.175380
998.941594	0.173333
999.113571	0.172818
999.285529	0.170240
999.457469	0.171954
999.629391	0.171474
999.801295	0.173653
999.973181	0.174579
1000.145048	0.174385
1000.316897	0.172747
1000.488728	0.170611
1000.660541	0.170715
1000.832335	0.173685
1001.004111	0.172527
1001.175869	0.175266
1001.347609	0.171971
1001.519331	0.170850
1001.691034	0.169811
1001.862719	0.171256
1002.034386	0.169122
1002.206035	0.169723
1002.377665	0.168654
1002.549277	0.169687
1002.720871	0.167732
1002.892447	0.167352
1003.064004	0.165528
1003.235544	0.166633
1003.407065	0.167413
1003.578568	0.171059
1003.750052	0.170285
1003.921519	0.168572
1004.092967	0.167919
1004.264397	0.168207
1004.435809	0.171248
1004.607202	0.172181
1004.778577	0.172409
1004.949934	0.169112
1005.121273	0.167305
1005.292594	0.167485
1005.463896	0.168902
1005.635180	0.170466
1005.806446	0.171502
1005.977694	0.169455
1006.148923	0.168340
1006.320135	0.167741
1006.491328	0.169883
1006.662503	0.171002
1006.833659	0.172347
1007.004798	0.173562
1007.175918	0.171312
1007.347020	0.169253
1007.518103	0.169649
1007.689169	0.171590
1007.860216	0.170523
1008.031245	0.171465
1008.202256	0.170330
1008.373248	0.169384
1008.544223	0.167400
1008.715179	0.168611
1008.886117	0.167565
1009.057036	0.168131
1009.227938	0.167643
1009.398821	0.168461
1009.569686	0.168689
1009.740533	0.168922
1009.911361	0.167017
1010.082172	0.167889
1010.252964	0.168545
1010.423738	0.169911
1010.594493	0.170301
1010.765231	0.168807
1010.935950	0.170522
1011.106651	0.169853
1011.277334	0.171448
1011.447998	0.173240
1011.618645	0.172805
1011.789273	0.170338
1011.959882	0.170083
1012.130474	0.170662
1012.301048	0.171049
1012.471603	0.169175
1012.642140	0.168781
1012.812658	0.166164
1012.983159	0.166175
1013.153641	0.166806
1013.324105	0.168795
1013.494551	0.169712
1013.664979	0.167520
1013.835388	0.166886
1014.005779	0.166694
1014.176152	0.165027
1014.346507	0.165938
1014.516843	0.166869
1014.687162	0.166534
1014.857462	0.168163
1015.027744	0.167309
1015.198007	0.171094
1015.368252	0.171801
1015.538480	0.171663
1015.708689	0.173468
1015.878879	0.175311
1016.049052	0.172819
1016.219206	0.172708
1016.389342	0.171104
1016.559460	0.171912
1016.729559	0.170565
1016.899641	0.169728
1017.069704	0.170038
1017.239749	0.169587
1017.409775	0.169934
1017.579784	0.170173
1017.749774	0.171865
1017.919746	0.171227
1018.089700	0.171795
1018.259635	0.170180
1018.429553	0.173050
1018.599452	0.172994
1018.769333	0.171765
1018.939195	0.170929
1019.109040	0.171027
1019.278866	0.168152
1019.448674	0.169561
1019.618464	0.168938
1019.788235	0.168019
1019.957989	0.166738
1020.127724	0.165817
1020.297441	0.166858
1020.467139	0.167614
1020.636820	0.167143
1020.806482	0.167897
1020.976126	0.165434
1021.145752	0.163603
1021.315359	0.164362
1021.484948	0.162531
1021.654519	0.163799
1021.824072	0.164407
1021.993607	0.163727
1022.163123	0.165445
1022.332621	0.164894
1022.502101	0.165283
1022.671563	0.167374
1022.841007	0.167885
1023.010432	0.169787
1023.179839	0.168825
1023.349228	0.167813
1023.518598	0.166889
1023.687951	0.164007
1023.857285	0.164954
1024.026601	0.164869
1024.195899	0.162116
1024.365178	0.161218
1024.534439	0.160316
1024.703682	0.161176
1024.872907	0.160399
1025.042114	0.159776
1025.211302	0.161984
1025.380472	0.161315
1025.549624	0.160391
1025.718758	0.162690
1025.887873	0.162285
1026.056970	0.162699
1026.226049	0.163163
1026.395110	0.162798
1026.564153	0.163022
1026.733177	0.163326
1026.902183	0.163782
1027.071171	0.162581
1027.240141	0.160587
1027.409092	0.160316
1027.578026	0.161125
1027.746940	0.159670
1027.915837	0.160952
1028.084716	0.161416
1028.253576	0.161648
1028.422418	0.161301
1028.591242	0.162875
1028.760048	0.166311
1028.928835	0.167092
1029.097604	0.167329
1029.266355	0.167947
1029.435088	0.167809
1029.603803	0.166130
1029.772499	0.165416
1029.941177	0.167544
1030.109837	0.168408
1030.278478	0.167182
1030.447102	0.168243
1030.615707	0.168521
1030.784294	0.167994
1030.952863	0.168533
1031.121413	0.170200
1031.289945	0.169950
1031.458460	0.165976
1031.626955	0.165047
1031.795433	0.162379
1031.963892	0.161441
1032.132334	0.161345
1032.300756	0.160966
1032.469161	0.161252
1032.637548	0.160304
1032.805916	0.161325
1032.974266	0.164710
1033.142598	0.167481
1033.310911	0.169436
1033.479207	0.169907
1033.647484	0.167063
1033.815743	0.169727
1033.983983	0.169683
1034.152206	0.170030
1034.320410	0.169661
1034.488596	0.168564
1034.656764	0.165454
1034.824914	0.165580
1034.993045	0.166667
1035.161158	0.169572
1035.329253	0.167730
1035.497330	0.167290
1035.665388	0.167408
1035.833428	0.165499
1036.001450	0.166063
1036.169454	0.167617
1036.337440	0.165690
1036.505407	0.163690
1036.673356	0.161409
1036.841287	0.161901
1037.009200	0.161252
1037.177094	0.162155
1037.344970	0.165139
1037.512828	0.164260
1037.680668	0.163507
1037.848489	0.164658
1038.016293	0.165254
1038.184078	0.168130
1038.351845	0.167447
1038.519593	0.167130
1038.687324	0.164899
1038.855036	0.163739
1039.022730	0.163734
1039.190406	0.164500
1039.358063	0.166469
1039.525702	0.166556
1039.693323	0.164698
1039.860926	0.162271
1040.028511	0.162226
1040.196077	0.163055
1040.363625	0.164540
1040.531155	0.167567
1040.698667	0.166899
1040.866161	0.166106
1041.033636	0.164397
1041.201093	0.167422
1041.368532	0.169817
1041.535952	0.170548
1041.703355	0.171866
1041.870739	0.169105
1042.038105	0.166093
1042.205452	0.166965
1042.372782	0.167577
1042.540093	0.169534
1042.707386	0.166152
1042.874661	0.164041
1043.041918	0.162516
1043.209156	0.160782
1043.376376	0.162806
1043.543578	0.161465
1043.710762	0.161120
1043.877927	0.159973
1044.045074	0.158571
1044.212203	0.158582
1044.379314	0.160303
1044.546407	0.161514
1044.713481	0.162646
1044.880537	0.161774
1045.047575	0.162920
1045.214595	0.163411
1045.381596	0.164228
1045.548579	0.166533
1045.715544	0.167242
1045.882491	0.167175
1046.049420	0.166576
1046.216330	0.167088
1046.383222	0.166828
1046.550096	0.166043
1046.716951	0.166284
1046.883789	0.167895
1047.050608	0.165588
1047.217409	0.165599
1047.384192	0.163559
1047.550956	0.164175
1047.717703	0.164046
1047.884431	0.163806
1048.051140	0.161382
1048.217832	0.159883
1048.384505	0.158587
1048.551161	0.159869
1048.717798	0.159431
1048.884416	0.160363
1049.051017	0.161397
1049.217599	0.160833
1049.384163	0.159847
1049.550709	0.161755
1049.717237	0.163574
1049.883746	0.161320
1050.050237	0.162892
1050.216710	0.163971
1050.383165	0.164923
1050.549601	0.165489
1050.716019	0.165386
1050.882420	0.166701
1051.048801	0.167439
1051.215165	0.165781
1051.381510	0.166167
1051.547837	0.163461
1051.714146	0.163015
1051.880437	0.163818
1052.046709	0.163282
1052.212964	0.163065
1052.379200	0.162065
1052.545417	0.164749
1052.711617	0.166713
1052.877798	0.167024
1053.043961	0.166167
1053.210106	0.165984
1053.376233	0.166173
1053.542341	0.164621
1053.708432	0.165293
1053.874504	0.164585
1054.040557	0.161419
1054.206593	0.160003
1054.372610	0.160346
1054.538609	0.162037
1054.704590	0.161146
1054.870553	0.161612
1055.036497	0.163343
1055.202424	0.163121
1055.368331	0.165112
1055.534221	0.166458
1055.700093	0.165643
1055.865946	0.166774
1056.031781	0.166867
1056.197598	0.165299
1056.363397	0.165299
1056.529177	0.165378
1056.694939	0.166867
1056.860683	0.166767
1057.026409	0.166727
1057.192116	0.167517
1057.357806	0.165398
1057.523477	0.166344
1057.689130	0.167396
1057.854764	0.166426
1058.020381	0.167579
1058.185979	0.165103
1058.351559	0.162813
1058.517120	0.162312
1058.682664	0.161823
1058.848189	0.163807
1059.013696	0.161475
1059.179185	0.161890
1059.344656	0.162185
1059.510108	0.158868
1059.675542	0.158531
1059.840958	0.159924
1060.006356	0.159028
1060.171735	0.158178
1060.337096	0.158637
1060.502439	0.158609
1060.667764	0.159487
1060.833071	0.160059
1060.998359	0.162943
1061.163629	0.166891
1061.328881	0.166554
1061.494115	0.169584
1061.659330	0.173569
1061.824527	0.172672
1061.989706	0.172532
1062.154867	0.172061
1062.320010	0.172498
1062.485134	0.171357
1062.650240	0.166915
1062.815328	0.168482
1062.980398	0.166403
1063.145449	0.165669
1063.310482	0.166351
1063.475497	0.167313
1063.640494	0.166585
1063.805473	0.165845
1063.970433	0.163777
1064.135375	0.168616
1064.300299	0.168870
1064.465204	0.170315
1064.630092	0.168733
1064.794961	0.167477
1064.959812	0.168931
1065.124645	0.170240
1065.289459	0.170054
1065.454256	0.172692
1065.619034	0.167854
1065.783793	0.167957
1065.948535	0.166955
1066.113258	0.167514
1066.277964	0.168905
1066.442651	0.167004
1066.607319	0.167654
1066.771970	0.166233
1066.936602	0.166095
1067.101216	0.167509
1067.265812	0.170378
1067.430389	0.169450
1067.594949	0.168445
1067.759490	0.168510
1067.924013	0.171384
1068.088518	0.170728
1068.253004	0.172830
1068.417472	0.173269
1068.581922	0.171907
1068.746354	0.170669
1068.910768	0.173355
1069.075163	0.171596
1069.239540	0.171628
1069.403899	0.169150
1069.568240	0.168381
1069.732562	0.166914
1069.896866	0.166878
1070.061152	0.168880
1070.225420	0.167905
1070.389670	0.167283
1070.553901	0.172188
1070.718114	0.171618
1070.882309	0.173427
1071.046486	0.174104
1071.210644	0.174661
1071.374784	0.172253
1071.538906	0.172861
1071.703010	0.171110
1071.867096	0.170321
1072.031163	0.167941
1072.195212	0.167091
1072.359243	0.167416
1072.523256	0.168346
1072.687250	0.171114
1072.851226	0.174227
1073.015184	0.175755
1073.179124	0.175959
1073.343045	0.177966
1073.506949	0.175549
1073.670834	0.175249
1073.834701	0.173954
1073.998549	0.173309
1074.162380	0.175358
1074.326192	0.176481
1074.489986	0.174723
1074.653761	0.174498
1074.817519	0.175507
1074.981258	0.178686
1075.144979	0.182013
1075.308682	0.184323
1075.472367	0.181960
1075.636033	0.179587
1075.799681	0.180635
1075.963311	0.180298
1076.126923	0.182588
1076.290516	0.180275
1076.454092	0.182410
1076.617649	0.180630
1076.781187	0.179554
1076.944708	0.181279
1077.108210	0.182927
1077.271695	0.176952
1077.435160	0.178834
1077.598608	0.179051
1077.762038	0.178512
1077.925449	0.175751
1078.088842	0.177261
1078.252217	0.174669
1078.415573	0.178480
1078.578912	0.174342
1078.742232	0.175346
1078.905534	0.172788
1079.068817	0.171551
1079.232083	0.176814
1079.395330	0.177348
1079.558559	0.178919
1079.721770	0.181455
1079.884962	0.177107
1080.048136	0.177997
1080.211293	0.180385
1080.374430	0.183689
1080.537550	0.186546
1080.700651	0.179618
1080.863735	0.179860
1081.026800	0.175201
1081.189846	0.176798
1081.352875	0.177907
1081.515885	0.176713
1081.678877	0.179021
1081.841851	0.177876
1082.004807	0.177556
1082.167744	0.177039
1082.330663	0.177874
1082.493564	0.177513
1082.656447	0.174872
1082.819312	0.177335
1082.982158	0.179517
1083.144986	0.179840
1083.307796	0.181205
1083.470587	0.176387
1083.633361	0.181800
1083.796116	0.181335
1083.958853	0.185900
1084.121571	0.186062
1084.284272	0.184983
1084.446954	0.185532
1084.609618	0.182520
1084.772264	0.180257
1084.934892	0.187209
1085.097501	0.184653
1085.260092	0.185347
1085.422665	0.184636
1085.585220	0.184099
1085.747756	0.184739
1085.910274	0.183739
1086.072774	0.186555
1086.235256	0.188435
1086.397720	0.180422
1086.560165	0.182004
1086.722592	0.180829
1086.885001	0.178885
1087.047392	0.181398
1087.209764	0.180062
1087.372119	0.181673
1087.534455	0.180119
1087.696772	0.179735
1087.859072	0.184159
1088.021353	0.185875
1088.183616	0.185806
1088.345861	0.185561
1088.508088	0.186770
1088.670296	0.187906
1088.832486	0.188862
1088.994658	0.187356
1089.156812	0.182644
1089.318948	0.180539
1089.481065	0.179605
1089.643164	0.181391
1089.805245	0.183289
1089.967308	0.181105
1090.129352	0.180100
1090.291378	0.177760
1090.453386	0.178687
1090.615376	0.186155
1090.777347	0.186576
1090.939301	0.183615
1091.101236	0.178686
1091.263153	0.180330
1091.425051	0.183081
1091.586932	0.184990
1091.748794	0.185203
1091.910638	0.186123
1092.072463	0.180427
1092.234271	0.182946
1092.396060	0.178780
1092.557831	0.178870
1092.719584	0.181069
1092.881319	0.180628
1093.043035	0.180450
1093.204733	0.177714
1093.366413	0.180125
1093.528075	0.182326
1093.689718	0.182520
1093.851343	0.185840
1094.012950	0.187338
1094.174539	0.180239
1094.336110	0.180075
1094.497662	0.180455
1094.659196	0.180162
1094.820712	0.179583
1094.982210	0.180935
1095.143689	0.184947
1095.305151	0.186432
1095.466594	0.193183
1095.628018	0.195444
1095.789425	0.195935
1095.950813	0.193727
1096.112183	0.197865
1096.273535	0.199721
1096.434869	0.200128
1096.596184	0.193010
1096.757482	0.195390
1096.918761	0.190637
1097.080021	0.192319
1097.241264	0.190152
1097.402488	0.189967
1097.563694	0.188007
1097.724882	0.182256
1097.886052	0.180506
1098.047203	0.184277
1098.208336	0.181606
1098.369451	0.179986
1098.530548	0.181479
1098.691627	0.184097
1098.852687	0.188148
1099.013729	0.190564
1099.174753	0.191773
1099.335758	0.192241
1099.496746	0.194129
1099.657715	0.193254
1099.818666	0.192026
1099.979599	0.194172
1100.140513	0.192558
1100.301409	0.189645
1100.462287	0.190843
1100.623147	0.187771
1100.783989	0.188055
1100.944812	0.185407
1101.105617	0.185380
1101.266404	0.191896
1101.427173	0.181978
1101.587923	0.181751
1101.748656	0.185376
1101.909370	0.179913
1102.070066	0.184939
1102.230743	0.181493
1102.391403	0.179941
1102.552044	0.182306
1102.712667	0.179261
1102.873271	0.188872
1103.033858	0.189578
1103.194426	0.182449
1103.354976	0.190488
1103.515508	0.189220
1103.676021	0.191966
1103.836517	0.191481
1103.996994	0.191808
1104.157453	0.192848
1104.317893	0.188207
1104.478316	0.187760
1104.638720	0.192310
1104.799106	0.188495
1104.959474	0.190224
1105.119823	0.189004
1105.280155	0.187943
1105.440468	0.191860
1105.600763	0.198787
1105.761039	0.205967
1105.921298	0.211334
1106.081538	0.210012
1106.241760	0.209084
1106.401964	0.208529
1106.562149	0.208210
1106.722316	0.212371
1106.882465	0.203542
1107.042596	0.196269
1107.202709	0.197489
1107.362803	0.194850
1107.522879	0.190446
1107.682937	0.191841
1107.842977	0.193580
1108.002999	0.196747
1108.163002	0.198129
1108.322987	0.204589
1108.482954	0.207573
1108.642902	0.202824
1108.802833	0.200888
1108.962745	0.205096
1109.122639	0.207807
1109.282515	0.207939
1109.442372	0.206223
1109.602211	0.199896
1109.762032	0.196015
1109.921835	0.190816
1110.081620	0.190059
1110.241386	0.190894
1110.401134	0.191875
1110.560864	0.185433
1110.720576	0.179220
1110.880269	0.181573
1111.039945	0.189210
1111.199602	0.191799
1111.359240	0.193372
1111.518861	0.192894
1111.678463	0.187837
1111.838047	0.185900
1111.997613	0.195785
1112.157161	0.192629
1112.316690	0.193239
1112.476202	0.193361
1112.635695	0.196464
1112.795169	0.194275
1112.954626	0.194578
1113.114064	0.191746
1113.273484	0.194600
1113.432886	0.190826
1113.592270	0.199972
1113.751635	0.200064
1113.910983	0.195844
1114.070312	0.191943
1114.229622	0.195771
1114.388915	0.192986
1114.548189	0.196275
1114.707445	0.201810
1114.866683	0.207708
1115.025903	0.197027
1115.185104	0.196862
1115.344287	0.194810
1115.503452	0.197016
1115.662599	0.201550
1115.821727	0.202689
1115.980838	0.202905
1116.139930	0.202206
1116.299004	0.190680
1116.458059	0.196261
1116.617097	0.192064
1116.776116	0.196822
1116.935117	0.193831
1117.094099	0.192803
1117.253064	0.188611
1117.412010	0.194376
1117.570938	0.188538
1117.729848	0.191109
1117.888740	0.191278
1118.047613	0.200744
1118.206468	0.199116
1118.365305	0.202587
1118.524124	0.195363
1118.682924	0.194343
1118.841707	0.191429
1119.000471	0.189634
1119.159216	0.184144
1119.317944	0.185424
1119.476653	0.174683
1119.635344	0.172856
1119.794017	0.172797
1119.952672	0.169162
1120.111308	0.172360
1120.269927	0.172020
1120.428527	0.178616
1120.587108	0.183385
1120.745672	0.187689
1120.904217	0.197983
1121.062744	0.196478
1121.221253	0.197408
1121.379744	0.203686
1121.538216	0.214173
1121.696671	0.221543
1121.855107	0.216181
1122.013524	0.216451
1122.171924	0.215891
1122.330305	0.217058
1122.488668	0.223933
1122.647013	0.226052
1122.805340	0.233653
1122.963648	0.223542
1123.121938	0.218752
1123.280210	0.221337
1123.438464	0.223757
1123.596700	0.216613
1123.754917	0.216243
1123.913116	0.208444
1124.071297	0.206604
1124.229459	0.196824
1124.387604	0.199206
1124.545730	0.203749
1124.703838	0.211657
1124.861928	0.208563
1125.019999	0.214396
1125.178052	0.211779
1125.336088	0.211429
1125.494104	0.203666
1125.652103	0.201773
1125.810083	0.208460
1125.968045	0.206469
1126.125989	0.196273
1126.283915	0.204500
1126.441823	0.210573
1126.599712	0.204540
1126.757583	0.211828
1126.915436	0.213404
1127.073270	0.217766
1127.231087	0.203942
1127.388885	0.201985
1127.546665	0.208032
1127.704426	0.200644
1127.862170	0.200936
1128.019895	0.203518
1128.177602	0.203929
1128.335291	0.211909
1128.492961	0.211727
1128.650614	0.216519
1128.808248	0.204581
1128.965864	0.197605
1129.123461	0.206101
1129.281041	0.192207
1129.438602	0.181292
1129.596145	0.173796
1129.753670	0.167960
1129.911176	0.171609
1130.068665	0.175425
1130.226135	0.188290
1130.383587	0.190428
1130.541020	0.180248
1130.698436	0.188234
1130.855833	0.204695
1131.013212	0.211931
1131.170573	0.222326
1131.327915	0.222336
1131.485239	0.221089
1131.642545	0.220427
1131.799833	0.208087
1131.957103	0.215098
1132.114354	0.210375
1132.271588	0.208598
1132.428803	0.206348
1132.585999	0.205847
1132.743178	0.208502
1132.900338	0.207489
1133.057480	0.213332
1133.214604	0.221440
1133.371710	0.220656
1133.528797	0.225876
1133.685866	0.222242
1133.842917	0.227642
1133.999950	0.210460
1134.156964	0.204983
1134.313960	0.203158
1134.470938	0.205099
1134.627898	0.214089
1134.784840	0.208757
1134.941763	0.215198
1135.098668	0.212876
1135.255555	0.195965
1135.412424	0.203416
1135.569274	0.209782
1135.726107	0.209577
1135.882921	0.207915
1136.039716	0.200687
1136.196494	0.201238
1136.353253	0.185053
1136.509995	0.187939
1136.666717	0.201218
1136.823422	0.203094
1136.980109	0.198724
1137.136777	0.199364
1137.293427	0.185899
1137.450059	0.183444
1137.606672	0.199992
1137.763267	0.204189
1137.919844	0.203442
1138.076403	0.209705
1138.232944	0.212521
1138.389466	0.207617
1138.545971	0.214924
1138.702457	0.221630
1138.858924	0.239019
1139.015374	0.226436
1139.171805	0.231905
1139.328218	0.227231
1139.484613	0.221498
1139.640990	0.224161
1139.797348	0.218536
1139.953688	0.217101
1140.110010	0.227042
1140.266314	0.223125
1140.422600	0.229317
1140.578867	0.224344
1140.735116	0.239829
1140.891347	0.244198
1141.047559	0.228446
1141.203754	0.241328
1141.359930	0.226077
1141.516088	0.214009
1141.672228	0.209034
1141.828349	0.211626
1141.984452	0.224116
1142.140537	0.219045
1142.296604	0.208623
1142.452653	0.219535
1142.608683	0.215579
1142.764695	0.215953
1142.920689	0.222422
1143.076665	0.220178
1143.232622	0.212439
1143.388562	0.207250
1143.544483	0.207752
1143.700385	0.213429
1143.856270	0.206375
1144.012136	0.221520
1144.167985	0.223634
1144.323814	0.215589
1144.479626	0.222544
1144.635420	0.213738
1144.791195	0.210906
1144.946952	0.212766
1145.102691	0.203922
1145.258411	0.218291
1145.414113	0.211888
1145.569798	0.223289
1145.725463	0.233078
1145.881111	0.230930
1146.036741	0.242996
1146.192352	0.256245
1146.347945	0.244687
1146.503519	0.246096
1146.659076	0.231941
1146.814614	0.222277
1146.970134	0.209890
1147.125636	0.201920
1147.281120	0.206985
1147.436585	0.195560
1147.592032	0.183795
1147.747461	0.203024
1147.902872	0.215162
1148.058265	0.222648
1148.213639	0.238844
1148.368995	0.267133
1148.524333	0.266612
1148.679653	0.247420
1148.834954	0.255899
1148.990237	0.251081
1149.145502	0.237458
1149.300749	0.227083
1149.455977	0.231562
1149.611188	0.231716
1149.766380	0.218000
1149.921553	0.212738
1150.076709	0.222113
1150.231846	0.230076
1150.386966	0.242700
1150.542066	0.253796
1150.697149	0.256926
1150.852214	0.253058
1151.007260	0.233893
1151.162288	0.219006
1151.317298	0.240285
1151.472289	0.245858
1151.627263	0.241273
1151.782218	0.244429
1151.937155	0.250455
1152.092073	0.253245
1152.246974	0.245737
1152.401856	0.241508
1152.556720	0.251119
1152.711566	0.226525
1152.866393	0.202232
1153.021203	0.196699
1153.175994	0.176005
1153.330767	0.149807
1153.485521	0.153066
1153.640258	0.152485
1153.794976	0.156826
1153.949676	0.162640
1154.104358	0.169560
1154.259021	0.187485
1154.413667	0.181503
1154.568294	0.184416
1154.722903	0.184484
1154.877493	0.190589
1155.032066	0.200570
1155.186620	0.198178
1155.341156	0.195391
1155.495674	0.183390
1155.650173	0.182452
1155.804654	0.178693
1155.959118	0.183451
1156.113562	0.195396
1156.267989	0.178568
1156.422397	0.151149
1156.576788	0.162442
1156.731160	0.165817
1156.885513	0.184441
1157.039849	0.181553
1157.194166	0.180107
1157.348465	0.175280
1157.502746	0.165195
1157.657009	0.165227
1157.811253	0.186699
1157.965479	0.184092
1158.119687	0.179984
1158.273877	0.176611
1158.428048	0.184918
1158.582201	0.196186
1158.736337	0.210347
1158.890453	0.220457
1159.044552	0.236897
1159.198632	0.227110
1159.352694	0.224574
1159.506738	0.223365
1159.660764	0.217209
1159.814771	0.218602
1159.968761	0.221621
1160.122732	0.215117
1160.276685	0.216357
1160.430619	0.211012
1160.584535	0.223932
1160.738434	0.201310
1160.892313	0.186021
1161.046175	0.189380
1161.200019	0.189865
1161.353844	0.199312
1161.507651	0.194244
1161.661440	0.187476
1161.815210	0.189279
1161.968962	0.192222
1162.122697	0.207980
1162.276412	0.207451
1162.430110	0.193715
1162.583789	0.203963
1162.737451	0.182178
1162.891094	0.185057
1163.044718	0.169522
1163.198325	0.145857
1163.351913	0.136831
1163.505483	0.130768
1163.659035	0.152942
1163.812569	0.172951
1163.966084	0.162802
1164.119581	0.175985
1164.273060	0.189584
1164.426521	0.217705
1164.579964	0.235544
1164.733388	0.273794
1164.886794	0.312835
1165.040182	0.277380
1165.193551	0.269271
1165.346903	0.245166
1165.500236	0.251082
1165.653551	0.217473
1165.806848	0.202517
1165.960126	0.180782
1166.113386	0.152757
1166.266628	0.127379
1166.419852	0.142127
1166.573058	0.135287
1166.726245	0.158147
1166.879414	0.151269
1167.032565	0.162957
1167.185698	0.177759
1167.338812	0.216917
1167.491909	0.219082
1167.644987	0.236942
1167.798046	0.251576
1167.951088	0.233082
1168.104111	0.220522
1168.257117	0.192181
1168.410103	0.215383
1168.563072	0.228766
1168.716023	0.194986
1168.868955	0.205935
1169.021869	0.195383
1169.174765	0.201018
1169.327642	0.223564
1169.480501	0.224165
1169.633343	0.246409
1169.786165	0.238683
1169.938970	0.221088
1170.091757	0.240823
1170.244525	0.238487
1170.397275	0.262536
1170.550007	0.258127
1170.702720	0.262821
1170.855415	0.268713
1171.008092	0.303044
1171.160751	0.326438
1171.313392	0.344306
1171.466014	0.315713
1171.618619	0.500548
1171.771205	0.500548
1171.923772	0.500548
