sample name	sample
index	1461
start time	 05-10-2021  01:55:23 PM
880	0.390207
Peak Time (s)	92.035
Peak Height 	0.3902
calc peak height	90,93
Baseline Time (s)	9.037
Baseline Value 	-0.002731
subtract baseline	10,4
Abs	0.282886
Peak Time (s)	90.037
Peak Height 	0.2829
calc peak height	90,93
Baseline Time (s)	10.035
Baseline Value 	0.001477
subtract baseline	10,3
PK_550	0.148237
Peak Time (s)	92.035
Peak Height 	0.1482
calc peak height	90,93
Baseline Time (s)	8.539
Baseline Value 	9.5957E-4
subtract baseline	10,2
PK_880	0.260556
Peak Time (s)	91.535
Peak Height 	0.2606
calc peak height	90,93
Baseline Time (s)	10.534
Baseline Value 	0.001657
subtract baseline	10,1


Time (s)	A880-A510	A880-A775	A880-A975	A880	I510	I775	I975	I880	
0.037000	-0.001113	-0.001028	-0.002961	0.005335	6449.399080	43517.139688	3934.415604	22439.786366
0.535000	-0.001253	-0.000846	-0.002848	0.004672	6453.730669	43596.190018	3936.415482	22469.677124
1.038000	-0.001894	-0.000480	-0.005888	0.003250	6460.219086	43763.943775	3932.245550	22534.013871
1.535500	-0.001358	-0.000264	-0.003347	0.001613	6478.325060	43938.473379	3943.042852	22608.313412
2.036000	-0.001810	-0.000344	-0.002201	0.004181	6453.184311	43689.230970	3939.358280	22491.883127
2.536000	0.001312	0.000485	-0.001300	0.001520	6501.482456	44018.006562	3948.614916	22612.544072
3.036500	0.000745	-0.000226	-0.001804	-0.001972	6526.156790	44281.918461	3956.438315	22772.012941
3.539000	-0.002223	-0.000510	-0.003276	0.004353	6448.336106	43657.547033	3936.134485	22484.110653
4.037000	-0.003483	-0.000625	-0.003730	0.003775	6442.692821	43700.912194	3936.453198	22510.230140
4.537500	-0.000441	-0.000946	-0.000332	-0.000052	6499.960083	44031.373412	3955.261513	22684.173329
5.037000	0.000464	0.000351	-0.000314	0.000544	6502.560203	44097.744512	3953.746839	22656.987750
5.535000	-0.000212	0.000523	0.000503	0.000469	6497.515748	44121.224405	3956.087826	22660.429153
6.035500	-0.000704	-0.000120	-0.001878	0.000211	6495.536840	44084.592557	3950.523423	22672.161350
6.535500	-0.001638	0.000661	0.005143	0.000511	6485.200246	44130.207954	3968.227888	22658.477615
7.036000	-0.001516	-0.000295	-0.001771	-0.000258	6492.667198	44112.539760	3952.028337	22693.571389
7.536000	-0.000445	-0.000114	-0.002934	-0.000090	6500.253026	44113.772637	3948.553531	22685.939241
8.036500	-0.000334	-0.000386	-0.002125	-0.000110	6501.344557	44089.858140	3950.715167	22686.807311
8.539000	-0.000747	0.000000	0.000989	0.000201	6495.266033	44096.983008	3958.070267	22672.629797
9.037000	0.000354	-0.000156	-0.002464	0.000000	6506.209758	44101.260016	3949.543391	22681.808237
9.537000	-0.000426	0.000022	-0.001431	0.000007	6499.589174	44117.425709	3952.225108	22681.468538
10.035000	0.001253	-0.000015	0.000000	-0.000283	6516.178407	44141.468490	3956.742603	22694.752534
10.534500	0.000000	0.000867	0.000310	-0.000060	6503.737408	44204.061585	3956.971150	22684.550269
11.035500	0.000085	0.000080	0.000597	-0.000550	6508.582747	44175.807110	3959.015888	22706.941324
11.535500	-0.003225	-0.000306	-0.002927	0.003864	6444.088412	43722.524489	3938.299512	22506.212363
12.036000	0.001006	0.000711	0.000674	-0.000473	6515.689016	44228.394224	3959.013702	22703.401465
12.536500	0.000190	-0.000632	0.000808	-0.001445	6517.006196	44193.172133	3961.931109	22747.870232
13.039500	-0.000543	-0.000382	0.002714	-0.000909	6506.310353	44165.964882	3965.552042	22723.322272
13.537000	-0.002732	0.000780	-0.002174	0.005841	6431.830324	43639.038672	3935.137928	22416.981245
14.037500	-0.001553	-0.000241	0.000027	0.001132	6480.717714	43986.101157	3953.100548	22630.223723
14.537500	-0.000202	-0.000965	-0.003603	0.000579	6496.669233	43969.959799	3945.067450	22655.406111
15.038000	0.000837	-0.000397	0.002234	-0.001067	6519.284371	44179.644332	3964.701321	22730.565658
15.535500	-0.003409	0.000590	-0.005215	0.004904	6433.977862	43709.033657	3929.727262	22459.231174
16.035500	-0.000582	0.000005	-0.001388	-0.000450	6502.116367	44159.159847	3953.535041	22702.350091
16.536000	-0.001668	-0.000195	-0.001092	-0.000413	6492.683502	44136.665288	3954.213487	22700.647075
17.036000	0.002134	0.000428	-0.000759	-0.003358	6549.713752	44476.539788	3962.843817	22835.672183
17.539500	-0.001197	-0.000774	-0.001860	0.001336	6481.987709	43916.525633	3947.633679	22620.926251
18.036500	-0.000926	0.000113	-0.005926	0.000611	6490.326324	44068.869305	3938.957147	22653.944375
18.537000	-0.000923	0.000481	-0.001399	0.000955	6487.475456	44071.144151	3949.833254	22638.276545
19.037500	-0.001673	-0.000633	-0.002872	0.000204	6487.478025	44036.758967	3947.947503	22672.493289
19.537500	-0.001989	-0.000272	-0.000249	0.001537	6473.696081	43944.828760	3951.314568	22611.765858
20.035000	-0.000269	0.000456	0.000120	0.000849	6493.843218	44078.799241	3954.085382	22643.112067
20.535500	-0.002265	-0.000621	-0.002040	0.000184	6482.699092	44039.874840	3950.171660	22673.429640
21.035500	-0.002227	-0.000263	-0.002564	0.000089	6483.802976	44082.640931	3949.050079	22677.742359
21.535500	-0.002573	-0.000545	0.000781	-0.000072	6482.256639	44071.182768	3958.240218	22685.077342
22.036500	-0.001251	-0.000639	0.001441	0.000320	6490.046771	44025.279545	3958.946533	22667.225752
22.536500	-0.000580	0.000016	0.003046	0.000579	6493.496321	44062.700310	3962.496099	22655.380724
23.037000	-0.002777	0.000456	-0.000941	0.000757	6473.627354	44087.511114	3951.546730	22647.288974
23.537500	-0.001297	-0.000124	-0.001596	0.000363	6489.296850	44069.888038	3950.862208	22665.229335
24.037000	-0.000415	-0.000221	0.000431	0.000822	6492.845711	44017.272249	3954.973527	22644.342367
24.534500	0.000920	0.000042	0.000930	0.000794	6504.290733	44044.868730	3956.354467	22645.607496
25.035000	-0.001704	-0.000066	-0.001909	0.000319	6486.255265	44079.549136	3950.160385	22667.252224
25.535500	-0.001502	-0.000020	0.002716	0.001262	6480.056036	43994.705381	3959.823042	22624.284693
26.036000	-0.002120	-0.000841	-0.003837	0.001829	6470.162784	43863.650637	3941.212013	22598.487996
26.536000	0.000599	-0.000112	-0.000323	0.000555	6503.598620	44052.789307	3953.692891	22656.480291
27.036500	0.002515	0.000425	-0.002072	-0.001579	6537.832897	44306.517503	3954.703202	22754.013715
27.536000	-0.000337	0.000102	-0.000156	0.002946	6475.722569	43847.271571	3947.878837	22547.806923
28.037000	-0.001496	0.000019	0.001631	0.003455	6461.826145	43791.510501	3951.216157	22524.717727
28.537500	-0.000521	-0.000026	0.001370	-0.000440	6502.548691	44155.304863	3960.761519	22701.904504
29.034500	-0.001294	-0.000596	0.000401	-0.000582	6497.251116	44114.750409	3958.583650	22708.399546
29.535000	-0.001504	-0.000278	0.000288	0.003145	6464.334909	43792.764453	3948.516332	22538.756986
30.035500	-0.001786	-0.000441	-0.006814	0.004849	6447.856449	43617.614464	3925.771072	22461.723508
30.536000	-0.000799	0.000143	0.003341	0.002121	6478.756989	43928.919362	3959.207098	22585.222834
31.036000	-0.001712	-0.000146	-0.000377	0.001096	6479.689870	43998.423291	3952.134047	22631.824251
31.536500	-0.004009	-0.000252	-0.003347	0.003526	6440.401405	43759.373045	3938.086509	22521.505744
32.036500	-0.004761	-0.000913	-0.005071	0.003013	6438.426451	43745.464089	3934.960695	22544.743514
32.537500	-0.001035	-0.000256	0.003265	-0.000206	6496.270951	44111.338122	3965.152183	22691.218449
33.037000	0.000177	-0.000457	0.005216	-0.002101	6522.445326	44272.167458	3975.379160	22777.932991
33.537000	-0.002011	-0.000398	0.004041	0.001410	6474.570216	43945.004469	3962.931349	22617.570123
34.035000	-0.000122	0.001034	-0.002209	0.002470	6481.498022	43980.157566	3943.773594	22569.391398
34.535000	-0.000602	-0.000328	-0.000033	0.001614	6484.642573	43932.320808	3951.679345	22608.271031
35.038000	-0.001004	0.000375	-0.001793	0.001448	6482.666285	44014.398516	3947.517228	22615.818111
35.536000	-0.001529	-0.000154	-0.002928	0.001172	6480.588313	43990.529338	3945.279696	22628.391028
36.036000	-0.000047	0.000241	0.000775	0.001034	6494.151625	44040.984577	3955.317493	22634.673912
36.536500	-0.002758	-0.000696	-0.000765	0.000589	6475.185054	43994.339625	3952.445392	22654.930837
37.037000	0.000842	0.000372	0.004869	0.001157	6500.585297	44041.703271	3965.788491	22629.054280
37.537000	-0.000174	0.000485	0.000763	0.001730	6487.250055	43998.204826	3953.461263	22602.994557
38.037500	-0.001399	-0.000161	-0.000003	0.001176	6481.639873	43989.503959	3952.906412	22628.223542
38.535000	-0.002867	0.000212	-0.000755	0.001170	6469.433911	44025.319755	3950.954163	22628.480793
39.035000	-0.000680	0.001065	-0.001152	0.001812	6482.332135	44045.281746	3948.239018	22599.269822
39.538000	0.001719	0.000966	-0.003597	0.001833	6502.272547	44033.907518	3941.822328	22598.299453
40.035500	-0.001419	0.000613	-0.000769	0.001591	6478.001781	44023.410299	3949.813579	22609.299698
40.536000	-0.000965	0.000247	0.000218	0.001381	6483.549510	44008.713691	3952.947724	22618.874783
41.038500	-0.000043	0.000559	0.000816	0.001667	6488.880089	44011.114075	3953.764122	22605.871470
41.536500	-0.003172	-0.000176	-0.001313	0.001575	6463.524116	43950.436881	3948.437751	22610.066034
42.036500	-0.001427	0.000141	0.001536	0.002036	6474.217390	43936.774020	3954.685248	22589.084703
42.537000	-0.000855	0.000473	-0.000018	0.001933	6479.851930	43977.778368	3950.882640	22593.749517
43.034500	-0.000320	0.000265	-0.002820	0.001291	6489.712276	44018.910597	3945.250398	22622.973809
43.535000	-0.002733	-0.000911	0.001294	0.002429	6460.070021	43800.578535	3953.020229	22571.250473
44.038000	-0.001557	-0.000084	-0.002614	0.002453	6469.652000	43876.191291	3942.765694	22570.138840
44.535500	-0.001153	-0.000287	-0.000628	-0.000413	6497.010201	44127.967752	3955.432291	22700.654567
45.035500	-0.001104	-0.000770	-0.000101	-0.000426	6497.531410	44083.445832	3956.851997	22701.266403
45.536000	-0.002404	-0.000691	-0.006805	0.004888	6442.414750	43590.480016	3925.694971	22459.958436
46.036500	-0.001323	0.000272	0.000240	0.004447	6455.020625	43722.163842	3945.000506	22479.865886
46.536500	-0.000371	-0.000011	0.001848	-0.000328	6502.867770	44146.109826	3961.728176	22696.791132
47.037000	0.000317	-0.000390	0.004976	0.001644	6492.086154	43923.657038	3964.783361	22606.894722
47.537000	-0.003578	-0.000373	-0.003476	0.004880	6432.785834	43621.069122	3934.260146	22460.318230
48.034500	-0.001959	0.000004	0.000865	0.004005	6453.413813	43738.497169	3947.780564	22499.843121
48.535000	0.001940	0.001353	0.001142	0.000599	6514.531870	44187.630589	3957.425560	22654.499510
49.035500	0.001659	-0.000028	0.001227	-0.000847	6524.372996	44193.812622	3961.459124	22720.529648
49.535500	-0.004616	-0.000676	0.003107	0.003266	6437.529490	43743.926450	3955.580226	22533.279574
50.038500	-0.000007	0.000159	0.003214	0.002120	6485.387406	43930.570307	3958.876973	22585.295056
50.536000	-0.000148	0.000180	0.001028	0.003718	6470.859147	43781.930354	3948.952477	22512.814310
51.036500	0.032153	-0.029220	0.142938	0.495607	4106.931177	15237.563879	3321.690353	9190.809246
51.536500	-0.020192	-0.025412	-0.006764	0.088560	5694.058377	34611.833068	3731.190097	19024.971139
52.040000	-0.018560	-0.067325	-0.045423	-0.234278	8853.120765	63418.078866	4577.398392	36856.697494
52.537500	-0.006868	-0.109312	-0.032177	-0.291207	9880.634003	65535.000000	4886.425597	41618.619977
53.037500	-0.006496	-0.107081	-0.028109	-0.288976	9850.600334	65535.000000	4895.202726	41419.972653
53.535500	-0.009241	-0.054335	-0.022626	-0.217696	8753.564957	62919.772137	4602.795381	35583.004301
54.035500	-0.002473	-0.042286	-0.013274	-0.193006	8514.910672	61199.114463	4540.765097	33774.474654
54.535000	0.004312	-0.030071	-0.010072	-0.171039	8320.324525	59905.538880	4467.800180	32249.638089
55.036000	0.007529	-0.021538	0.002073	-0.147092	8065.366141	57919.185187	4423.496602	30672.857843
55.536000	0.011405	-0.018616	0.008273	-0.143093	8063.889076	57783.053240	4431.668099	30417.944161
56.036000	0.025476	-0.005401	0.021389	-0.100001	7726.885833	54137.038003	4323.863440	27814.667602
56.536500	0.045067	0.005416	0.047656	-0.042642	7320.723703	48934.177420	4219.637422	24726.981793
57.037500	0.062173	0.015753	0.062609	0.007599	6992.334083	44896.436072	4110.036954	22337.946715
57.535000	0.083251	0.029483	0.083301	0.048476	6807.751566	42354.061271	4051.237076	20588.122360
58.035000	0.099164	0.040940	0.103529	0.110560	6408.626780	38017.223944	3937.680040	18226.430065
58.535500	0.118102	0.052746	0.128669	0.149527	6248.253171	35890.621478	3902.505595	16907.576616
59.035000	0.132338	0.061649	0.145425	0.195888	6005.988016	33167.763374	3830.860974	15485.105568
59.536000	0.154707	0.076952	0.166044	0.231876	5908.561664	31761.764125	3795.550093	14480.950259
60.035500	0.165161	0.081233	0.177598	0.256629	5809.513923	30434.719441	3766.204058	13837.035917
60.536500	0.177751	0.088537	0.196936	0.279073	5743.132779	29492.778300	3759.428598	13284.086657
61.036500	0.189616	0.097660	0.210336	0.300756	5678.467145	28735.823423	3741.591225	12776.336248
61.542500	0.196721	0.106900	0.221322	0.317351	5617.339107	28302.607365	3729.704497	12404.506840
62.037500	0.202557	0.114806	0.216883	0.319625	5640.121789	28633.641067	3715.678752	12354.647477
62.535500	0.209519	0.120795	0.227755	0.322758	5664.829622	28803.174273	3731.868320	12286.386622
63.040000	0.212668	0.122807	0.230656	0.324006	5677.173384	28848.709232	3735.361751	12259.327653
63.538000	0.218157	0.126188	0.230035	0.328258	5685.235115	28796.794796	3725.095046	12167.731358
64.036000	0.218045	0.127452	0.231662	0.331368	5664.280447	28687.122750	3721.993641	12101.307437
64.536000	0.222494	0.129396	0.234147	0.331768	5690.640745	28778.855275	3726.357865	12092.805691
65.035500	0.223675	0.131850	0.239696	0.334274	5681.993130	28775.759379	3732.765777	12039.682638
65.536500	0.227248	0.134522	0.236096	0.338611	5677.012214	28676.933993	3716.150134	11948.447404
66.039500	0.228565	0.135671	0.246158	0.342332	5661.405467	28524.926449	3729.399470	11870.884021
66.537000	0.231290	0.137710	0.249273	0.343092	5674.160111	28600.383235	3734.370307	11855.135460
67.037500	0.231645	0.139122	0.246170	0.345535	5660.615476	28539.528648	3722.708236	11804.673373
67.535000	0.233782	0.140835	0.250784	0.348133	5657.634466	28487.439840	3726.929259	11751.306848
68.035500	0.235646	0.142618	0.252895	0.352795	5639.605816	28318.601359	3721.590029	11656.350819
68.535500	0.241577	0.143182	0.256433	0.352928	5677.093689	28343.799562	3728.724018	11653.663595
69.036000	0.240632	0.144516	0.255443	0.353934	5664.418444	28363.012866	3724.534995	11633.311345
69.535500	0.243433	0.145135	0.255846	0.355894	5669.878572	28284.666197	3721.283039	11593.806335
70.038500	0.242440	0.145182	0.258809	0.358637	5645.727227	28127.820844	3721.739772	11538.800147
70.539500	0.244775	0.147580	0.259602	0.361674	5641.209911	28090.758566	3717.070055	11478.316639
71.036500	0.243777	0.146036	0.258205	0.362211	5631.367451	27970.560663	3713.062862	11467.662922
71.536500	0.240858	0.146231	0.252925	0.369819	5564.769749	27546.948409	3686.811088	11318.160728
72.037000	0.246256	0.147815	0.263640	0.368464	5607.302966	27714.017181	3711.371850	11344.585537
72.535000	0.249551	0.149780	0.260453	0.370117	5617.744948	27731.802087	3701.442328	11312.354295
73.034500	0.250118	0.149845	0.262135	0.369712	5623.947438	27758.653269	3705.709639	11320.238607
73.536000	0.247903	0.150644	0.265570	0.369628	5610.369699	27809.157159	3712.954139	11321.870601
74.035500	0.250606	0.150274	0.264226	0.369543	5628.143846	27792.827861	3710.354103	11323.522361
74.536000	0.251593	0.151839	0.268965	0.370331	5629.418139	27837.375416	3718.535515	11308.188639
75.036500	0.253762	0.152675	0.264194	0.371498	5635.837631	27818.393999	3706.269671	11285.517741
75.537000	0.248363	0.152936	0.262819	0.376818	5567.929172	27530.232353	3692.639206	11182.904177
76.037000	0.255546	0.154850	0.266611	0.374412	5628.598997	27776.046216	3705.250048	11229.148870
76.537500	0.252740	0.155410	0.268225	0.374608	5609.463251	27796.923667	3708.162411	11225.387138
77.037500	0.252375	0.155052	0.266248	0.374911	5605.224550	27759.156629	3703.486308	11219.552399
77.540500	0.252957	0.154918	0.270553	0.380797	5571.784712	27417.492865	3700.258847	11106.997128
78.035500	0.253377	0.155078	0.270067	0.376705	5600.204750	27658.262978	3707.638286	11185.078947
78.535500	0.256807	0.154544	0.272666	0.377466	5617.149774	27584.640464	3711.420238	11170.488671
79.035500	0.255086	0.152463	0.264021	0.376454	5612.642290	27524.107486	3695.809190	11189.891189
79.536000	0.255876	0.152914	0.270184	0.377941	5608.209808	27465.548270	3705.342314	11161.417555
80.036500	0.256290	0.152272	0.270485	0.378181	5609.318040	27415.812274	3705.466580	11156.833479
80.536500	0.257626	0.152474	0.272799	0.378645	5614.859593	27400.956381	3709.266261	11147.955060
81.040000	0.259696	0.151572	0.269168	0.377796	5633.505849	27398.022406	3703.557470	11164.186387
81.535000	0.258428	0.151566	0.269866	0.379109	5617.012566	27323.836144	3702.301019	11139.111507
82.035000	0.255117	0.151472	0.271791	0.380204	5589.082759	27257.169508	3703.997213	11118.252997
82.535500	0.258384	0.149648	0.278273	0.379371	5615.061871	27201.756049	3719.093603	11134.110905
83.035500	0.260248	0.153142	0.276503	0.382713	5605.675254	27210.244238	3708.517342	11070.683312
83.536500	0.257297	0.150101	0.276554	0.381289	5596.002215	27120.062829	3711.556003	11097.645482
84.036000	0.258202	0.150436	0.278177	0.383510	5587.690478	27015.268985	3710.322326	11055.618304
84.536500	0.258348	0.149555	0.278865	0.382606	5594.321389	27016.556702	3713.610053	11072.707017
85.036500	0.261077	0.150782	0.272761	0.384666	5598.549319	26970.375999	3696.878854	11033.825008
85.537000	0.257817	0.148691	0.276890	0.383351	5586.269195	26927.508540	3708.000119	11058.620710
86.034500	0.258381	0.148426	0.279004	0.384272	5584.026594	26862.103493	3710.457334	11041.258624
86.535000	0.258260	0.148913	0.277031	0.385226	5577.261342	26836.406250	3704.444702	11023.297930
87.035500	0.257703	0.148785	0.277037	0.385929	5569.361919	26790.673829	3703.017112	11010.083994
87.535500	0.259607	0.147689	0.275272	0.389798	5557.090490	26519.587586	3691.575619	10937.791669
88.038500	0.258719	0.147067	0.278342	0.384851	5582.498935	26755.546660	3707.901175	11030.338513
88.536000	0.260049	0.147870	0.271033	0.386540	5580.247194	26707.012175	3689.597154	10998.622704
89.035500	0.261264	0.147539	0.279444	0.386933	5585.413885	26667.424488	3705.889729	10991.258996
89.536500	0.259458	0.147421	0.276444	0.386976	5573.798205	26658.664183	3699.671083	10990.456655
90.036500	0.258385	0.147179	0.282886	0.387060	5566.553592	26640.861223	3712.714472	10988.879407
90.537000	0.259998	0.146860	0.274101	0.387904	5571.368742	26577.474855	3693.036345	10973.104466
91.037000	0.257641	0.146063	0.277055	0.387584	5558.635245	26551.506431	3699.677469	10979.075827
91.535000	0.260556	0.146388	0.281229	0.388252	5572.685774	26532.905437	3706.848191	10966.608340
92.035500	0.258724	0.148237	0.279142	0.390207	5549.045410	26527.109924	3698.586391	10930.175468
92.538500	0.259119	0.147012	0.280282	0.389641	5555.027934	26491.366564	3702.064502	10940.711055
93.079500	0.259583	0.145728	0.273343	0.389534	5558.584305	26427.623083	3688.222979	10942.707417
93.536000	0.260295	0.146240	0.282306	0.389517	5563.135960	26456.262064	3706.459298	10943.014572
94.036500	0.257775	0.144702	0.275594	0.389647	5546.634624	26366.132931	3692.530776	10940.605984
94.536500	0.259248	0.144975	0.283279	0.389293	5557.997333	26399.907436	3708.918543	10947.181129
95.037000	0.258162	0.144463	0.282684	0.389631	5549.132913	26354.095180	3707.002668	10940.898337
95.537000	0.257021	0.144530	0.276476	0.394527	5511.879681	26095.200425	3684.490689	10850.287426
