sample name	sample
index	530
start time	 03-11-2021  04:20:16 PM
880	0.430515
Peak Time (s)	92.535
Peak Height 	0.4305
calc peak height	90,93
Baseline Time (s)	11.536
Baseline Value 	-0.003048
subtract baseline	10,4
Abs	0.306756
Peak Time (s)	91.037
Peak Height 	0.3068
calc peak height	90,93
Baseline Time (s)	10.537
Baseline Value 	-1.5239E-4
subtract baseline	10,3
PK_550	0.165157
Peak Time (s)	90.037
Peak Height 	0.1652
calc peak height	90,93
Baseline Time (s)	10.537
Baseline Value 	2.2921E-4
subtract baseline	10,2
PK_880	0.291223
Peak Time (s)	92.035
Peak Height 	0.2912
calc peak height	90,93
Baseline Time (s)	11.035
Baseline Value 	0.001477
subtract baseline	10,1


Time (s)	A880-A510	A880-A775	A880-A975	A880	I510	I775	I975	I880	
0.036500	-0.005744	-0.000854	-0.002705	0.006886	6932.653860	44520.776482	3957.951784	23734.343545
0.535000	-0.001067	0.000590	0.001414	0.005025	6993.619097	44838.359287	3972.813981	23823.783209
1.034000	-0.001815	-0.000083	0.000134	0.003361	7002.243194	44934.177658	3973.774940	23904.121406
1.535000	-0.000705	0.000493	-0.003166	0.001353	7031.700958	45184.736001	3970.543106	24001.420744
2.035000	-0.003872	-0.000726	-0.006036	0.006147	6956.889299	44603.798454	3951.570623	23769.791277
2.535500	-0.001612	-0.000134	0.003047	0.000500	7031.192545	45206.794765	3988.334570	24042.927318
3.035500	0.001175	-0.000401	0.001229	-0.001533	7077.154115	45379.060529	3988.880332	24142.127724
3.536000	0.000464	0.000325	0.003044	0.000682	7049.191254	45233.794190	3987.864617	24034.072697
4.036500	-0.000729	0.000560	0.000179	0.001187	7033.045560	45207.419672	3979.347209	24009.499021
4.536500	0.000835	0.000695	0.005241	0.000780	7051.790583	45260.204579	3993.202710	24029.286927
5.034000	-0.000892	0.000221	0.001352	0.000741	7035.730860	45217.862252	3983.429919	24031.175690
5.534500	-0.000660	0.000319	-0.000465	0.000356	7041.589517	45264.884074	3979.817249	24049.909457
6.037000	0.000874	0.000234	-0.001102	0.000478	7055.041511	45244.711218	3977.906692	24043.987872
6.535000	0.000268	-0.000247	-0.002994	0.000193	7051.978879	45225.676664	3973.874711	24057.871406
7.035000	0.000432	0.000483	0.001283	0.000135	7054.095339	45302.446765	3984.788241	24060.676815
7.535500	0.001273	-0.000252	-0.000914	-0.000465	7067.861670	45289.258737	3980.754900	24089.932902
8.035500	-0.002482	-0.000365	0.001428	-0.000664	7033.977551	45297.717831	3987.178958	24099.667927
8.536000	0.000363	-0.000095	0.000728	-0.000316	7057.742523	45290.049447	3984.526402	24082.684224
9.036000	-0.001599	0.000703	-0.002109	0.000297	7033.234695	45308.067301	3975.832880	24052.780260
9.537000	-0.000392	-0.000353	-0.000102	-0.000780	7054.962062	45310.107403	3983.598063	24105.294266
10.037500	0.000510	0.001020	0.001550	0.000313	7053.142448	45337.480824	3985.011159	24052.004689
10.537500	0.000077	0.000000	0.000000	-0.000264	7054.518918	45294.278279	3982.554169	24080.148187
11.035000	0.000000	-0.000018	0.003157	0.001453	7037.442715	45125.392923	3986.196671	23996.575812
11.535500	-0.000345	0.000416	-0.000338	0.000000	7047.976794	45309.068620	3981.034537	24067.265678
12.035000	-0.000345	0.000503	0.003572	-0.000464	7052.391983	45362.797534	3992.117347	24089.875391
12.536000	-0.001203	0.000252	-0.000901	-0.000057	7040.360877	45298.572152	3979.760064	24070.032793
13.036000	-0.000463	0.000868	0.004722	0.002394	7024.130447	45119.999605	3987.776482	23950.914138
13.536500	-0.000397	0.000111	0.004650	-0.000411	7051.402826	45319.499554	3994.734443	24087.328072
14.036500	-0.001964	0.000427	0.002577	0.002426	7009.641764	45074.055366	3982.267095	23949.358879
14.538500	-0.001248	-0.000112	0.001604	0.001687	7023.388629	45093.487829	3981.676094	23985.196848
15.037500	-0.003089	-0.000346	0.002538	0.001806	7004.882001	45059.229301	3983.734878	23979.414389
15.537500	0.000583	0.000641	0.002641	0.000025	7056.588440	45328.653941	3988.510305	24066.066364
16.035000	0.000662	-0.000160	0.000265	-0.000557	7062.896269	45307.164127	3983.963288	24094.419820
16.539500	-0.001462	-0.000599	0.005968	-0.001082	7047.641311	45315.596157	3999.822420	24120.050919
17.035500	-0.000029	-0.000059	0.002192	0.000256	7048.542966	45237.729704	3986.782335	24054.770092
17.536000	-0.000225	0.000125	0.005930	0.000501	7044.352091	45231.851647	3995.674194	24042.874076
18.036000	-0.000301	0.000041	0.003437	0.000652	7042.197290	45209.010266	3988.937964	24035.532119
18.536500	0.000883	0.000492	0.003654	0.001219	7048.065482	45197.726090	3988.048838	24007.957808
19.034500	-0.002550	0.000140	0.000808	0.001163	7016.041839	45168.955950	3980.993517	24010.679082
19.540000	-0.000257	0.000105	-0.000288	0.000815	7041.062872	45199.353141	3979.106560	24027.582468
20.034500	-0.001277	0.000940	0.003015	0.001525	7024.643406	45211.505755	3985.651511	23993.055834
20.535000	-0.000206	-0.000485	0.001850	0.000092	7048.428536	45212.307433	3986.333194	24062.805683
21.035500	0.000368	-0.000053	0.004406	0.000690	7048.194685	45196.123338	3991.305012	24033.666459
21.536000	-0.000740	-0.000734	-0.001989	0.000034	7043.896941	45193.761573	3976.795492	24065.633081
22.041000	-0.002194	-0.000343	0.001240	0.000342	7027.176775	45201.806369	3984.156306	24050.618964
22.536000	0.001563	0.000327	0.004208	0.000965	7056.961128	45206.367540	3990.100496	24020.279165
23.036500	-0.000130	0.000376	-0.005684	0.001762	7033.278076	45133.703353	3963.258859	23981.585669
23.536500	0.000368	-0.000117	0.005481	0.000746	7047.662902	45184.518159	3993.900160	24030.941696
24.037000	-0.002178	-0.000169	0.006655	0.000692	7024.006975	45184.683248	3997.037025	24033.567369
24.534500	-0.001405	0.000243	0.001089	0.000540	7032.770108	45239.559472	3983.272585	24040.954181
25.034500	-0.002332	0.000294	0.002736	0.000879	7020.779467	45211.472887	3986.582329	24024.447647
25.535500	-0.000961	0.000103	-0.000990	0.000856	7033.985111	45195.183598	3977.237489	24025.577444
26.034500	0.001189	0.001192	0.007976	0.001219	7050.986856	45265.955139	3999.072898	24007.964819
26.536000	-0.001025	0.000494	0.004556	0.000575	7036.042825	45260.636619	3991.977675	24039.252463
27.036000	-0.001083	0.000618	-0.002857	0.002089	7021.154378	45125.406656	3969.477350	23965.718381
27.536500	0.001530	0.000613	0.001959	-0.000494	7070.594847	45376.517231	3988.094748	24091.352318
28.036500	-0.000476	0.000623	0.005806	-0.000398	7050.515796	45368.064436	3997.653261	24086.648217
28.540000	-0.000091	0.000399	0.001145	-0.000593	7056.053347	45365.322888	3986.280451	24096.187298
29.037000	-0.000249	0.000630	-0.000348	0.000134	7047.616903	45316.865673	3980.672704	24060.739413
29.535000	-0.001408	0.000629	-0.000715	0.000152	7036.425197	45315.003605	3979.703190	24059.867104
30.035000	-0.000973	0.000454	0.001128	-0.000035	7042.336918	45316.128504	3984.824751	24068.955787
30.535000	0.001008	0.000471	0.003697	0.000209	7058.885983	45294.042603	3990.724168	24057.083532
31.036000	-0.002568	0.000489	0.001838	0.002824	7000.210778	45041.553289	3979.402809	23930.108571
31.536500	-0.000961	0.000379	0.007529	0.001463	7028.229768	45162.948216	3997.301343	23996.070307
32.036000	0.001141	0.000580	0.005984	0.000271	7059.562878	45298.660025	3996.398326	24054.055080
32.536500	-0.000315	0.000957	0.001740	0.000652	7042.062553	45298.293903	3984.636398	24035.521709
33.039500	0.000483	0.000290	0.007083	0.000027	7055.606299	45294.161219	3999.836914	24065.932774
33.537500	0.000173	0.001402	0.005541	0.002544	7028.735167	45157.307245	3989.474396	23943.637514
34.034500	-0.000623	0.000981	-0.001516	0.002440	7022.179357	45126.543493	3971.952139	23948.704655
34.535000	0.000487	0.000246	0.002218	0.001967	7037.178478	45101.029632	3982.518932	23971.608225
35.035000	-0.002448	-0.000423	0.001417	0.001397	7014.784492	45091.476401	3981.936436	23999.291578
35.535500	0.000784	0.001231	0.004805	0.003301	7027.346987	45067.159491	3985.687574	23906.993354
36.035500	-0.000504	-0.000252	-0.000525	0.001639	7030.899504	45084.608066	3976.441008	23987.553156
36.536000	-0.000641	-0.000269	0.005480	0.001230	7033.475413	45122.695431	3992.664539	24007.409045
37.036500	-0.002615	0.000172	0.002474	0.002309	7004.604573	45060.759525	3982.303450	23955.032356
37.539500	-0.001848	0.000749	0.004294	0.002709	7008.065833	45077.901249	3985.892762	23935.640669
38.036500	-0.000703	0.000299	0.001205	0.001679	7028.625331	45134.210888	3980.691260	23985.593073
38.537500	-0.000807	-0.000301	0.002172	0.001465	7029.672396	45096.747149	3983.672978	23996.013843
39.034500	0.000767	0.001136	0.004868	0.003427	7025.993294	45045.770202	3985.531084	23900.922873
39.535000	-0.001776	0.000213	0.003822	0.001954	7015.868563	45099.133360	3986.609750	23972.245906
40.035500	-0.001918	0.000568	0.006071	0.002016	7013.942523	45127.598133	3992.166630	23969.238413
40.535500	-0.000708	0.000220	0.001585	0.002000	7025.540317	45095.363209	3980.841003	23970.019521
41.035500	-0.002699	0.000314	0.005412	0.002249	7004.382976	45080.353250	3989.898011	23957.953155
41.536000	-0.000731	0.000599	0.001538	0.001694	7028.219342	45161.947556	3981.495401	23984.883499
42.039000	-0.000598	0.001241	0.002751	0.002289	7023.850153	45166.493310	3983.054556	23956.019482
42.536500	-0.000939	0.000245	0.001860	0.001991	7023.443620	45098.674475	3981.557388	23970.475389
43.037000	-0.002348	-0.000273	0.003166	0.001822	7011.717166	45064.783534	3985.284634	23978.658103
43.538000	-0.000409	0.000746	0.005055	0.002380	7024.765840	45109.502770	3988.657569	23951.571669
44.037000	0.001756	0.000786	0.002894	-0.002243	7089.551487	45564.807091	3994.926256	24176.872686
44.535500	0.001254	0.000255	0.005175	-0.000322	7066.308763	45324.796266	3995.844972	24082.952664
45.035500	-0.001983	0.000541	0.001557	0.002910	7004.906211	45038.250555	3978.477776	23925.927846
45.536000	-0.001951	0.000398	0.007000	0.004740	6988.003036	44847.460372	3987.605928	23837.540646
46.036000	0.000137	0.001160	0.004492	0.000574	7047.100189	45325.616529	3991.818104	24039.306844
46.539000	0.000490	0.000188	0.004749	-0.000297	7058.765574	45315.843754	3994.694094	24081.742520
47.036500	-0.000885	-0.000483	0.002488	0.002653	7017.685263	44963.855423	3981.469856	23938.346872
47.537000	-0.003059	0.000294	0.005278	0.004654	6978.419773	44845.630476	3983.462677	23841.669329
48.037500	0.000960	0.000487	0.002773	0.002652	7035.171951	45057.971980	3982.193230	23938.406522
48.535000	0.001103	0.000574	0.002612	0.000495	7057.061971	45276.208698	3987.244026	24043.177052
49.035000	-0.000103	0.000941	0.005845	0.004103	7011.383610	44961.486277	3986.292174	23868.275043
49.534500	-0.002151	0.000374	-0.000438	0.003928	6993.740741	44923.485174	3970.924925	23876.687933
50.035500	0.001348	0.000570	-0.000436	-0.002263	7085.819814	45545.604957	3986.506674	24177.847508
50.535500	0.000369	0.000897	0.003328	0.001005	7045.211650	45258.057103	3987.764846	24018.364380
51.038500	-0.000504	0.000607	0.005527	0.002187	7025.698078	45114.747333	3990.346171	23960.939469
51.536500	-0.001595	0.001824	-0.000930	0.078338	6355.594268	38430.493942	3799.058483	20574.070621
52.037000	-0.015399	-0.007063	0.000265	0.049439	6477.349441	40104.270566	3864.569201	21789.965873
52.539500	-0.037020	-0.020041	-0.006751	-0.064052	7317.028543	49783.357672	4136.450709	27430.701355
53.034500	-0.023130	-0.055686	0.012140	-0.210420	9282.539997	63387.532406	4715.469832	37261.062594
53.534500	-0.010204	-0.028839	0.024847	-0.149282	8613.281170	58797.993417	4522.417733	32749.231202
54.034500	0.000562	-0.015741	0.032279	-0.087517	7981.705329	52876.092268	4329.978856	28792.424305
54.535500	0.015903	-0.007442	0.047916	-0.062967	7875.366977	51041.980606	4300.650104	27369.524908
55.035500	0.031862	0.006431	0.058890	-0.006161	7429.905018	46513.844627	4158.965769	24369.664062
55.538500	0.055380	0.020278	0.074866	0.015949	7444.572015	45692.494629	4141.109977	23304.083236
56.036500	0.091157	0.039597	0.095087	0.046476	7499.693814	44603.322431	4111.680628	21919.296240
56.536500	0.124849	0.057857	0.125659	0.091581	7380.725030	42105.755013	4071.344049	20043.335391
57.037000	0.153152	0.075762	0.155742	0.121215	7367.049117	41061.946861	4072.567208	18912.711742
57.537000	0.176471	0.091310	0.179353	0.180696	7011.201589	37393.890145	3978.504302	16863.484971
58.037500	0.197448	0.105586	0.208409	0.225713	6790.507967	35039.146184	3939.079984	15488.791649
58.535000	0.213468	0.116892	0.225811	0.262765	6607.212146	33191.361407	3892.496133	14459.526503
59.035500	0.226867	0.127169	0.244967	0.292584	6470.139463	31860.063244	3868.084133	13692.612358
59.535500	0.238757	0.136327	0.249316	0.310716	6419.382309	31268.560271	3837.405924	13251.391391
60.038500	0.248297	0.142094	0.257163	0.323436	6393.798958	30818.555042	3826.791036	12952.674483
60.536500	0.253684	0.147264	0.268687	0.337878	6321.977202	30229.637921	3820.491554	12623.957836
61.036500	0.257414	0.152227	0.275718	0.348173	6270.833821	29896.567083	3813.493709	12396.219688
61.536500	0.258399	0.152734	0.275455	0.352530	6244.868296	29658.662755	3803.680862	12301.457648
62.037000	0.267423	0.159781	0.275539	0.358937	6265.002685	29698.035933	3790.415001	12163.797205
62.537000	0.272687	0.160905	0.280399	0.360265	6295.525350	29685.477114	3797.802635	12135.536333
63.034500	0.273818	0.160309	0.274734	0.366594	6255.280831	29262.328689	3772.964938	12001.953080
63.586500	0.276401	0.162575	0.278741	0.367498	6268.223425	29345.061608	3779.326562	11983.034619
64.036500	0.277409	0.162163	0.283741	0.370000	6256.701275	29168.463665	3784.477800	11930.866568
64.538500	0.278702	0.164243	0.280862	0.375885	6221.531400	28939.626035	3766.528623	11809.347451
65.035500	0.276572	0.163442	0.280311	0.383909	6145.071277	28416.513665	3749.313580	11646.286292
65.536500	0.277544	0.164107	0.285456	0.392879	6086.092803	27933.866557	3741.743291	11467.539742
66.036500	0.280575	0.165398	0.291413	0.393384	6104.604371	27979.177503	3752.553366	11457.581400
66.537000	0.277337	0.164610	0.283360	0.398801	6041.626876	27623.912695	3726.090174	11351.538524
67.037000	0.276107	0.164683	0.291787	0.407972	5967.593153	27112.154465	3724.652204	11174.994958
67.534000	0.275166	0.165401	0.286912	0.414687	5914.215127	26780.534492	3702.566163	11048.054077
68.037000	0.277995	0.163783	0.292025	0.413237	5943.932334	26771.376590	3715.000685	11075.311488
68.535000	0.276937	0.164783	0.292067	0.417672	5905.841432	26583.595877	3706.657360	10992.274366
69.038500	0.276493	0.164779	0.288275	0.422852	5867.333917	26303.015400	3689.878375	10896.354254
69.535500	0.275116	0.164403	0.283683	0.427339	5827.708833	26042.816540	3673.246655	10814.182491
70.036000	0.275182	0.164359	0.291484	0.422402	5861.477879	26304.571955	3696.677574	10904.630155
70.536000	0.275897	0.163509	0.294377	0.423227	5860.735665	26214.660060	3700.546970	10889.443709
71.036500	0.271810	0.161979	0.288290	0.425357	5818.836063	26019.259468	3685.280181	10850.363711
71.536500	0.276183	0.165708	0.294279	0.424904	5851.302604	26242.645057	3697.223939	10858.658805
72.037000	0.276870	0.165109	0.288135	0.424576	5858.182681	26228.125824	3686.435501	10864.685126
72.537000	0.277960	0.165054	0.296936	0.424374	5866.959006	26235.971675	3703.199303	10868.378907
73.035000	0.276990	0.163474	0.291847	0.422904	5870.365916	26230.131814	3696.419040	10895.397419
73.538000	0.273325	0.164591	0.287975	0.429939	5798.389956	25914.867635	3676.319502	10766.963122
74.035500	0.276351	0.164737	0.291873	0.424006	5858.532888	26238.726242	3694.413980	10875.137454
74.536000	0.280270	0.165065	0.294336	0.424393	5882.586603	26235.583489	3698.288111	10868.038818
75.036000	0.277750	0.165506	0.295433	0.429033	5834.020170	26011.377637	3691.686217	10783.375537
75.536500	0.276698	0.163904	0.294388	0.429766	5822.044203	25887.684792	3688.396235	10770.095391
76.036500	0.283377	0.166983	0.297908	0.425845	5893.920803	26260.586519	3702.261720	10841.445706
76.537000	0.278841	0.164772	0.293983	0.424533	5871.875246	26212.354984	3697.365935	10865.470473
77.037500	0.281827	0.165299	0.296207	0.424755	5890.763998	26228.694664	3701.113923	10861.399119
77.535000	0.280745	0.165762	0.293316	0.429842	5848.764640	25981.996834	3686.277048	10768.714659
78.037500	0.282899	0.165305	0.298237	0.424010	5903.249217	26268.988758	3706.339249	10875.054731
78.535500	0.280946	0.164215	0.300216	0.422734	5898.587579	26278.998071	3712.510489	10898.519996
79.035500	0.281882	0.164865	0.296373	0.426758	5877.442195	26098.401791	3697.675335	10824.780195
79.536000	0.282780	0.165324	0.299093	0.422291	5914.288400	26362.604464	3711.218131	10906.687130
80.036500	0.285743	0.166258	0.298382	0.422724	5931.818864	26389.610371	3709.046872	10898.708783
80.536500	0.283501	0.164992	0.298702	0.421555	5924.367773	26384.375732	3711.873063	10920.250456
81.037000	0.280572	0.165395	0.299149	0.426116	5872.883820	26160.950116	3704.088342	10836.501623
81.537000	0.280509	0.164800	0.291445	0.426949	5866.782716	26084.701650	3688.162129	10821.288467
82.035000	0.281783	0.164768	0.295932	0.420846	5917.383790	26410.596477	3707.964212	10933.365127
82.537500	0.284846	0.165619	0.297057	0.421541	5933.808049	26418.987529	3708.777373	10920.511794
83.035000	0.283298	0.165370	0.296669	0.426097	5891.651077	26160.648667	3699.465739	10836.846408
83.535500	0.280747	0.163546	0.293372	0.425726	5876.732195	26083.022634	3694.002243	10843.614038
84.035500	0.285445	0.164845	0.296669	0.421392	5939.021184	26385.260248	3708.325976	10923.270820
84.536500	0.283746	0.165178	0.301492	0.421759	5924.655627	26383.389611	3716.806340	10916.487938
85.036500	0.283663	0.163225	0.296264	0.424576	5904.610815	26127.308913	3701.557884	10864.678901
85.536500	0.282513	0.163816	0.294122	0.425338	5891.468513	26118.107413	3696.122188	10850.711681
86.037000	0.289918	0.165134	0.300020	0.422581	5961.987715	26336.698388	3712.428809	10901.341200
86.537000	0.285989	0.164222	0.305927	0.421394	5942.791197	26351.519051	3726.038859	10923.228194
87.037500	0.284906	0.164301	0.302407	0.426750	5898.208468	26068.733273	3709.044772	10824.916641
87.535000	0.282157	0.162674	0.295814	0.427373	5875.114414	25949.146251	3695.481612	10813.556121
88.035500	0.287529	0.163660	0.298078	0.423398	5939.559489	26213.578613	3707.196581	10886.306300
88.535500	0.291318	0.164541	0.298968	0.424959	5955.128537	26177.156824	3705.929097	10857.665180
89.035500	0.286732	0.163696	0.305625	0.424628	5925.467408	26149.678630	3719.227784	10863.725374
89.536000	0.284694	0.162735	0.298254	0.428884	5882.128241	25872.530362	3697.216950	10786.092479
90.036500	0.290505	0.165157	0.304074	0.427272	5933.311247	26086.522225	3711.218199	10815.408935
90.537000	0.289422	0.164390	0.303464	0.427317	5925.474177	26043.303696	3709.975658	10814.590623
91.037000	0.289672	0.164298	0.306756	0.428157	5921.384590	25993.750825	3714.639883	10799.299259
91.540500	0.290145	0.164713	0.306113	0.429630	5914.464788	25937.603931	3710.611586	10772.547201
92.034500	0.291223	0.164394	0.303331	0.429828	5920.552799	25910.237048	3704.972355	10768.961409
92.535000	0.290687	0.163708	0.304494	0.430515	5912.098222	25837.782554	3705.871086	10756.538472
93.035000	0.291818	0.165048	0.308080	0.432126	5908.782865	25823.521630	3709.609762	10727.460433
93.536000	0.292912	0.166106	0.305864	0.433390	5907.609711	25812.610590	3703.034016	10704.706331
94.038500	0.290579	0.165348	0.306823	0.433820	5888.619968	25750.126956	3704.031554	10696.997235
94.536000	0.288286	0.164312	0.302237	0.433516	5875.017178	25711.684712	3696.004377	10702.440238
95.036500	0.291843	0.164963	0.303856	0.435424	5886.292138	25645.911345	3695.466430	10668.261094
95.537000	0.291947	0.164337	0.308898	0.436347	5880.683439	25565.025882	3703.179025	10651.762289
96.040000	0.292516	0.163803	0.303571	0.436766	5881.712468	25515.448421	3692.440318	10644.297092
96.534500	0.292651	0.164176	0.302740	0.437828	5875.381220	25479.599115	3688.930878	10625.378181
