sample name	sample
index	974
start time	 04-14-2021  02:39:55 PM
880	0.569527
Peak Time (s)	102.037
Peak Height 	0.5695
calc peak height	100,103
Baseline Time (s)	10.036
Baseline Value 	-0.002746
subtract baseline	10,4
Abs	0.388456
Peak Time (s)	102.037
Peak Height 	0.3885
calc peak height	100,103
Baseline Time (s)	10.536
Baseline Value 	0.002642
subtract baseline	10,3
PK_550	0.216977
Peak Time (s)	100.539
Peak Height 	0.217
calc peak height	100,103
Baseline Time (s)	9.036
Baseline Value 	7.9264E-4
subtract baseline	10,2
PK_880	0.363868
Peak Time (s)	100.035
Peak Height 	0.3639
calc peak height	100,103
Baseline Time (s)	9.536
Baseline Value 	0.001202
subtract baseline	10,1


Time (s)	A880-A510	A880-A775	A880-A975	A880	I510	I775	I975	I880	
0.036000	0.001263	0.000089	-0.006454	0.001038	6318.451711	42175.877679	3932.604544	22131.238986
0.536000	0.000880	-0.000305	-0.004728	0.002679	6302.559878	41992.395104	3932.810024	22058.699431
1.036000	-0.003147	-0.000852	-0.001284	0.001802	6277.978728	42022.079497	3943.323316	22097.428151
1.541500	0.001423	-0.000071	0.000540	0.001443	6316.522608	42124.793779	3948.674337	22113.306842
2.037000	-0.000812	-0.000237	-0.000049	-0.000494	6314.176793	42284.944832	3951.990690	22199.170942
2.537000	-0.000415	0.001065	0.000789	0.000570	6308.937027	42306.549015	3951.432534	22151.948838
3.037500	0.002020	-0.000691	-0.001962	-0.002330	6351.060351	42410.435217	3951.801735	22280.954666
3.535000	0.001377	0.000292	-0.001519	0.000271	6325.385990	42263.652095	3946.496244	22165.221644
4.035500	-0.000336	-0.000460	0.000581	-0.000854	6320.758938	42297.411529	3954.435803	22215.197542
4.535500	-0.000303	-0.000875	-0.000610	-0.001116	6323.078763	42283.594474	3952.142533	22226.861153
5.035500	-0.001112	-0.000649	-0.000973	-0.000502	6311.883845	42248.366615	3949.735359	22199.518072
5.536000	-0.000469	-0.001137	0.001732	-0.001010	6320.938290	42250.235659	3957.667929	22222.130915
6.036500	-0.000180	-0.001008	-0.001711	-0.000202	6316.850581	42188.791303	3947.186190	22186.209620
6.536500	0.000052	0.000112	-0.001321	0.000462	6313.453305	42229.991995	3946.513527	22156.749013
7.037000	-0.000068	-0.000655	0.001079	-0.000432	6319.546899	42241.502234	3954.623106	22196.446964
7.537000	-0.000157	-0.000446	0.000543	-0.000587	6320.065935	42274.495148	3953.681100	22203.327333
8.035000	-0.001695	-0.000478	0.002864	-0.000720	6309.021663	42283.660850	3959.756097	22209.238898
8.535500	-0.001003	0.000115	0.001085	0.000016	6308.674174	42270.658749	3953.528655	22176.521491
9.035500	0.001768	0.000000	0.000211	0.000044	6330.259640	42257.673677	3951.304498	22175.271943
9.536000	0.000000	-0.000346	-0.001114	-0.000482	6320.475333	42274.046316	3949.340390	22198.671723
10.036000	-0.001122	0.000002	-0.002059	0.000000	6307.869409	42261.908790	3945.837560	22177.241864
10.536000	-0.002173	0.000154	0.000000	0.000225	6297.873733	42255.274831	3950.341904	22167.277687
11.039500	0.000703	-0.000500	0.000799	-0.000081	6322.848767	42223.741902	3953.062230	22180.821309
11.536500	0.000161	-0.000700	-0.000729	-0.000380	6320.939526	42232.716551	3950.037169	22194.132227
12.037000	0.001929	0.000181	0.000909	0.000308	6329.453936	42250.212423	3952.375298	22163.571572
12.535000	-0.000247	0.000169	0.001625	-0.000323	6317.276531	42306.276607	3955.700585	22191.567824
13.034500	-0.000717	-0.000656	-0.001814	-0.001508	6322.911960	42338.953002	3950.142810	22244.316251
13.535500	0.000782	-0.000252	0.000795	-0.000785	6329.024082	42309.992082	3954.792386	22212.136295
14.035500	0.001167	0.000036	-0.004001	0.001334	6315.362299	42144.309373	3937.836238	22118.106780
14.536000	-0.001403	-0.001020	0.000557	0.000832	6299.149163	42094.277843	3950.218843	22140.349268
15.036000	-0.000760	0.000412	0.002847	0.000287	6308.451490	42273.016231	3957.215793	22164.494809
15.536500	0.001354	-0.000114	0.002627	-0.000327	6329.924848	42280.980277	3958.194533	22191.759016
16.036500	0.000642	0.000409	-0.001362	-0.000438	6325.185540	42338.521566	3948.622041	22196.715160
16.536500	0.003640	0.000507	0.005793	-0.000204	6347.041665	42326.150102	3965.764667	22186.305701
17.037000	0.001027	0.000050	0.002853	-0.001770	6338.745393	42426.918124	3962.340349	22255.968673
17.538000	-0.000830	-0.000423	0.001503	0.000213	6308.484198	42204.130341	3954.074417	22167.782442
18.035000	-0.000733	0.000462	0.005836	0.000882	6303.994897	42223.590930	3963.162462	22138.110578
18.535000	-0.001378	-0.000422	0.002311	0.000213	6304.188430	42204.244087	3956.073022	22167.792578
19.035500	-0.002222	-0.000412	-0.002635	0.000128	6298.251905	42212.874990	3944.112740	22171.577322
19.536000	0.000348	-0.000317	-0.001496	0.000225	6317.646798	42212.625580	3946.664320	22167.261954
20.036000	-0.002936	-0.000051	-0.002028	0.000320	6291.171328	42228.117696	3945.128077	22163.055993
20.539000	-0.001508	-0.000755	0.000446	0.000018	6304.701537	42191.786912	3951.949446	22176.445626
21.037000	0.000815	0.000047	0.004143	0.000710	6317.509195	42201.725344	3959.381784	22145.755505
21.536500	-0.003120	-0.000095	-0.005594	0.000149	6291.064705	42239.629455	3936.846446	22170.632158
22.034500	0.000093	-0.000115	-0.000313	0.000333	6314.793213	42221.106684	3949.304774	22162.472456
22.534500	-0.000609	-0.000848	0.002084	0.000220	6310.168483	42165.078077	3955.496154	22167.489693
23.035500	-0.001016	-0.000626	-0.000794	0.000019	6308.549071	42203.335475	3948.895224	22176.399639
23.535500	-0.000614	-0.000019	-0.000138	0.000841	6305.256492	42183.847621	3948.486432	22139.937974
24.035500	-0.000245	-0.000733	-0.000844	-0.000067	6315.284284	42201.471887	3948.985080	22180.235518
24.536000	0.001445	0.000397	-0.003388	0.000767	6322.010009	42228.124544	3940.710283	22143.208492
25.036500	-0.001953	-0.000369	0.002703	0.000175	6299.981053	42212.434545	3957.137418	22169.471467
25.536000	0.001116	-0.000511	-0.000306	-0.000258	6327.504674	42238.781194	3950.775794	22188.697411
26.037000	-0.000230	0.000295	0.001559	0.000631	6309.910077	42231.270465	3953.182365	22149.237700
26.536500	-0.001378	-0.000474	-0.001110	0.000382	6302.869768	42184.294219	3947.228415	22160.301207
27.034500	-0.002489	-0.000801	0.002776	0.000308	6294.752305	42161.316863	3956.988054	22163.558367
27.535000	-0.001775	-0.000786	-0.001966	-0.002080	6319.077766	42379.074664	3951.174603	22269.779833
28.035500	0.000223	-0.001002	0.001243	-0.001141	6327.425027	42274.285417	3956.782195	22227.962858
28.538000	0.002929	0.000454	0.005043	-0.000144	6340.934286	42315.953966	3963.744666	22183.650662
29.036500	-0.001005	0.000378	0.001943	0.000116	6307.872176	42285.401756	3955.401633	22172.073501
29.536000	0.000754	-0.000199	0.000555	-0.000980	6330.339286	42332.528426	3954.681564	22220.792749
30.039000	0.002325	0.000891	-0.000565	0.000497	6331.082982	42297.437292	3948.282449	22155.192220
30.536000	0.001300	0.000630	0.000126	0.000128	6325.913079	42307.229715	3950.891195	22171.578492
31.036500	-0.003096	-0.001319	0.000106	0.002032	6276.590450	41959.393384	3946.163933	22087.268268
31.537000	0.000876	0.000885	0.004870	0.000864	6316.771923	42263.630214	3960.806671	22138.940110
32.035000	-0.000397	-0.000001	0.000421	-0.000442	6317.029686	42301.633092	3953.022036	22196.874618
32.535500	-0.000063	0.000115	0.002754	-0.000366	6319.062449	42305.248463	3958.603859	22193.485794
33.038000	-0.001930	0.000499	-0.001153	0.003480	6274.402100	41992.612360	3939.547527	22023.401892
33.536500	-0.000571	0.000281	-0.002359	0.000226	6310.420565	42266.678959	3944.548885	22167.218817
34.036000	-0.002006	0.000475	0.003151	0.001354	6290.352136	42182.140132	3955.329508	22117.223970
34.539000	-0.001610	-0.000474	0.002429	0.000944	6296.652159	42133.473096	3954.557969	22135.402748
35.037000	0.000755	0.000173	-0.001649	0.002687	6301.514593	42034.610136	3940.268802	22058.314822
35.536500	-0.000033	-0.000225	0.000988	0.001316	6306.084578	42122.326269	3950.085178	22118.893838
36.040000	-0.000857	-0.000211	-0.002058	0.000902	6302.873424	42160.992159	3943.630754	22137.238300
36.534000	-0.001354	0.000012	0.001170	0.001334	6295.602476	42142.093415	3950.490665	22118.113486
37.035000	-0.002017	-0.000222	0.002037	0.002368	6282.367385	42027.779740	3950.079015	22072.414096
37.535000	-0.001307	0.000172	0.001423	0.001328	6296.018446	42157.113683	3951.128625	22118.376572
38.035500	0.001438	0.001068	0.009261	0.002389	6309.212874	42142.203352	3967.952830	22071.498322
38.535500	0.000078	0.000096	0.003976	0.000988	6309.531806	42181.004870	3958.278915	22133.430031
39.036000	-0.001381	-0.000069	-0.003421	0.002969	6282.634190	41987.452430	3935.272798	22045.881567
39.536000	0.000127	0.000406	0.002320	0.001617	6304.986920	42152.152001	3952.627737	22105.612608
40.036500	-0.000687	-0.000188	0.004653	0.001264	6301.362859	42130.356105	3959.271788	22121.193926
40.537000	0.000498	0.000417	0.002391	0.002101	6304.093615	42109.405869	3951.608046	22084.196435
41.040000	0.000788	0.000226	-0.001093	0.001409	6311.796936	42154.722253	3944.751147	22114.795501
41.535000	0.001933	0.000850	0.004612	0.001755	6318.076701	42179.760953	3957.951940	22099.488793
42.035000	0.000685	-0.000105	-0.004547	0.000869	6315.232207	42173.614332	3937.641791	22138.713723
42.535500	-0.000223	-0.000145	0.003407	0.000213	6313.249199	42229.276615	3958.788683	22167.788454
43.036000	-0.001085	-0.000791	0.000025	0.000253	6306.176478	42167.276878	3950.333418	22166.028828
43.536000	-0.000551	-0.000316	0.000196	0.000328	6309.769114	42203.397328	3950.569177	22162.686271
44.039500	0.002096	-0.000676	0.002477	-0.003093	6357.736470	42481.271248	3964.699066	22315.033941
44.536500	0.000427	-0.000081	0.003146	-0.001230	6329.731364	42365.861386	3961.725697	22231.917136
45.040000	0.000247	-0.000030	0.003265	0.000297	6316.285348	42232.104499	3958.227446	22164.050848
45.534000	0.002218	0.000158	0.003740	-0.001177	6343.481934	42382.741616	3963.071091	22229.539442
46.037000	0.000942	0.000293	0.000829	-0.000671	6329.390397	42349.110942	3954.594790	22207.053390
46.535000	0.000238	-0.000944	0.006227	-0.001684	6331.824010	42328.732072	3970.554450	22252.135108
47.035500	-0.004731	-0.000610	0.001614	0.005364	6238.196130	41724.250838	3941.699851	21940.574974
47.537500	-0.001178	-0.001091	-0.001474	0.000142	6306.308843	42150.133268	3946.921046	22170.928123
48.038500	-0.000171	-0.000291	0.003594	0.001289	6305.216274	42118.893914	3956.586095	22120.126964
48.535000	0.001164	-0.000086	-0.002788	-0.000680	6331.212531	42315.520991	3945.714791	22207.440709
49.036500	-0.002974	-0.000081	0.001293	0.005581	6250.059346	41752.112385	3940.388197	21931.079090
49.536500	0.001918	0.000362	0.003609	-0.000437	6335.248312	42334.123194	3960.905547	22196.654395
50.036500	0.002325	0.000688	0.001664	-0.002237	6352.744191	42527.506700	3960.543558	22276.785581
50.537000	0.003613	-0.000836	0.006113	0.013770	6237.720672	40960.693424	3932.202946	21575.563221
51.035000	0.010646	-0.009863	-0.006850	0.002183	6383.887969	41185.564101	3928.880585	22080.590311
51.535000	0.016029	-0.006352	0.017138	0.309686	4638.176239	21924.637883	3426.718035	12347.804434
52.035500	-0.008937	-0.013811	-0.034163	-0.002662	6267.681167	41264.637813	3876.068843	22295.764891
52.535500	-0.007000	-0.028674	-0.034080	-0.174565	7924.826369	57966.790681	4359.344789	31715.024111
53.035500	-0.006832	-0.033849	-0.025618	-0.207959	8328.432007	61662.053677	4508.870340	34018.158062
53.539000	0.010583	-0.020492	-0.007405	-0.175375	8142.153694	59118.411686	4455.899474	31768.813899
54.036500	0.028257	-0.006675	0.009782	-0.104478	7537.663073	52197.362569	4272.742331	27420.466814
54.536500	0.033013	0.000499	0.018638	-0.050016	7036.245449	47114.033198	4134.048717	24530.361421
55.037500	0.039295	0.007655	0.023277	-0.010348	6730.283462	43926.665757	4036.983592	22642.092123
55.537500	0.055151	0.014424	0.042751	0.009948	6691.340263	42669.269126	4034.802487	21740.675276
56.035000	0.066562	0.021705	0.055909	0.038568	6544.084597	40763.547293	3994.461037	20539.012248
56.535000	0.077223	0.029925	0.070285	0.063247	6428.381960	39356.324983	3968.365237	19564.542131
57.035500	0.094253	0.038505	0.085064	0.079046	6438.395225	38755.719387	3965.817186	18969.168446
57.535500	0.106408	0.047472	0.100198	0.103941	6336.138702	37465.388913	3941.718270	18073.884557
58.036500	0.122788	0.057695	0.124856	0.129379	6265.233868	36276.219482	3939.815684	17210.561692
58.536500	0.143174	0.067926	0.137999	0.160005	6186.840688	34746.128820	3898.054820	16236.062545
59.037000	0.158638	0.077419	0.158801	0.190899	6072.158187	33216.065790	3874.705409	15320.275006
59.539500	0.177682	0.092043	0.182666	0.228816	5937.310070	31634.112842	3843.080237	14281.779383
60.037000	0.188446	0.093748	0.193993	0.243696	5908.669176	30776.195137	3835.244959	13898.373205
60.537500	0.203956	0.104253	0.209474	0.279329	5772.498593	29210.451058	3791.999098	13031.907759
61.035000	0.212444	0.110676	0.221933	0.312474	5614.021971	27641.784704	3749.645961	12287.335155
61.541000	0.229537	0.119746	0.235131	0.317844	5688.247350	27853.262200	3765.435154	12171.961598
62.035000	0.244886	0.126556	0.251757	0.357415	5537.060501	26041.901189	3719.944703	11364.377147
62.535500	0.254915	0.134558	0.261277	0.396034	5369.121469	24468.208536	3665.603035	10644.080871
63.039000	0.263636	0.141220	0.281924	0.430135	5229.031313	23149.102338	3641.682402	10059.178493
63.536000	0.276896	0.145644	0.293240	0.436887	5264.181524	23040.994298	3649.715948	9948.728657
64.036500	0.290680	0.153609	0.305218	0.451459	5259.891141	22737.242152	3645.139478	9716.092298
64.539500	0.302259	0.161071	0.311924	0.471749	5213.054152	22160.571634	3621.621854	9404.922041
65.034000	0.307067	0.163277	0.318305	0.485943	5163.628851	21636.836096	3608.424590	9195.716569
65.537500	0.313729	0.172273	0.333706	0.500096	5124.940600	21415.960901	3610.518835	8993.828300
66.038000	0.319003	0.171859	0.336589	0.493057	5188.887984	21700.188920	3627.365366	9093.411390
66.535500	0.326955	0.168297	0.331322	0.543039	4977.866264	19522.273249	3538.261437	8419.981457
67.035500	0.326129	0.173001	0.340535	0.583413	4789.917698	18213.469554	3492.785791	7929.846894
67.539000	0.333649	0.171556	0.352973	0.617304	4678.643737	17018.720748	3463.321342	7552.169030
68.036000	0.329775	0.171277	0.353467	0.656080	4512.385630	15806.523661	3414.226570	7154.699497
68.540500	0.326496	0.172525	0.362062	0.670379	4448.472981	15425.137352	3407.274548	7016.856163
69.036500	0.327716	0.174749	0.358406	0.672572	4445.010486	15426.018828	3400.240106	6996.111568
69.538500	0.327874	0.178193	0.354596	0.666788	4466.275538	15694.501567	3402.601905	7051.040089
70.040000	0.336539	0.181378	0.358181	0.663869	4508.584638	15875.270700	3410.466256	7079.047919
70.534500	0.333209	0.184500	0.364125	0.661771	4504.032390	16031.901964	3420.354379	7099.293326
71.035000	0.336220	0.185544	0.364334	0.655191	4539.823527	16264.036341	3428.844434	7163.416952
71.535500	0.337799	0.187903	0.367851	0.651063	4561.500300	16464.801779	3438.565463	7204.147115
72.035500	0.339779	0.190792	0.367690	0.649741	4574.170702	16596.717143	3440.056244	7217.266871
72.539000	0.342165	0.193331	0.375431	0.649331	4584.977714	16689.887624	3450.640544	7221.350858
73.036500	0.343628	0.193445	0.362800	0.651732	4581.340857	16617.560792	3431.275277	7197.513374
73.539500	0.348445	0.196230	0.373514	0.646292	4621.497181	16879.386611	3452.113148	7251.704259
74.037000	0.349364	0.195721	0.371148	0.643160	4637.617429	16963.933111	3453.119551	7283.205412
74.539500	0.354949	0.196980	0.378394	0.641607	4666.391034	17055.125087	3464.820318	7298.910087
75.035000	0.347828	0.195642	0.372115	0.636381	4658.707378	17182.196672	3463.407154	7352.177766
75.535000	0.351932	0.198626	0.382513	0.635301	4679.814421	17316.278428	3478.994153	7363.275742
76.035500	0.354525	0.201636	0.377306	0.633729	4696.953028	17468.945998	3474.013022	7379.464986
76.538500	0.352997	0.201074	0.378613	0.628092	4714.023450	17639.885867	3483.563186	7437.995330
77.038500	0.351376	0.201563	0.377843	0.627913	4708.014740	17662.547529	3482.744173	7439.866466
77.536500	0.352962	0.202444	0.380141	0.618279	4755.299518	18023.751333	3499.493773	7541.729098
78.036500	0.357045	0.204730	0.377569	0.614284	4790.110342	18243.720424	3501.522502	7584.634871
78.539000	0.355453	0.204137	0.385280	0.608302	4809.300831	18434.983590	3521.384025	7649.625933
79.037500	0.352908	0.204919	0.379765	0.607702	4800.776935	18484.438663	3514.183023	7656.191753
79.538500	0.356009	0.204938	0.371313	0.598680	4854.546671	18811.763152	3515.013914	7756.057992
80.034500	0.356471	0.207832	0.379723	0.595875	4869.295687	19021.606933	3531.587711	7787.526961
80.538500	0.352818	0.206692	0.379042	0.589485	4881.738711	19217.409425	3540.191135	7859.994983
81.035500	0.355933	0.207264	0.373923	0.588809	4899.105486	19264.300546	3533.485787	7867.719569
81.535500	0.354142	0.207654	0.380820	0.582675	4919.184191	19511.642216	3553.346707	7938.404623
82.036000	0.355502	0.209138	0.374469	0.579963	4938.192660	19672.661543	3547.741439	7969.970873
82.536500	0.350848	0.208345	0.374710	0.575397	4937.779309	19818.809321	3555.156202	8023.563571
83.036500	0.353895	0.207643	0.368780	0.575986	4949.337626	19768.643390	3545.119386	8016.620421
83.539000	0.353207	0.206102	0.366526	0.569426	4977.224448	19964.484647	3551.733536	8094.517906
84.037000	0.353730	0.207304	0.376615	0.568619	4983.588998	20043.486417	3568.761500	8104.181580
84.534500	0.355673	0.209189	0.375418	0.569774	4987.373734	20072.276553	3565.050108	8090.355801
85.035500	0.354529	0.209018	0.372117	0.570910	4976.446907	20020.725969	3558.099670	8076.784654
85.535000	0.356895	0.208702	0.376032	0.567286	5005.268389	20151.481151	3569.950025	8120.178127
86.035500	0.357612	0.210818	0.379814	0.567758	5006.455625	20216.792777	3575.216974	8114.507506
86.538500	0.355526	0.212097	0.378177	0.568047	4994.976806	20256.295008	3572.146829	8111.039211
87.036000	0.355576	0.213107	0.382928	0.568749	4991.832650	20268.562284	3578.616418	8102.614078
87.539500	0.357733	0.210677	0.384145	0.563836	5026.142867	20368.026035	3588.526402	8161.821086
88.037000	0.358969	0.212946	0.383834	0.566594	5018.708328	20348.373953	3583.547750	8128.499961
88.540500	0.357264	0.211927	0.375456	0.565066	5017.849362	20368.831174	3572.560889	8146.937372
89.037500	0.353641	0.210718	0.376411	0.564524	5002.885469	20342.023242	3574.947320	8153.486137
89.534500	0.354309	0.211189	0.375051	0.564170	5007.833429	20375.142370	3573.341516	8157.769857
90.035000	0.354066	0.212936	0.376123	0.565041	5002.440694	20410.395919	3573.663000	8147.240976
90.535500	0.355613	0.213169	0.374357	0.564678	5011.702407	20434.411986	3571.431494	8151.631514
91.036000	0.353923	0.213207	0.378468	0.565674	4998.686788	20395.845687	3576.396323	8139.594209
91.539000	0.355890	0.214470	0.374102	0.565881	5007.203668	20438.368264	3569.117860	8137.095321
92.036500	0.354536	0.212526	0.379350	0.564409	5007.779771	20419.328052	3579.841074	8154.880043
92.539500	0.354717	0.212781	0.374279	0.565042	5005.587370	20404.098127	3570.727502	8147.224944
93.037000	0.355354	0.212133	0.376072	0.564001	5013.732403	20419.948985	3575.241314	8159.820813
93.534000	0.353453	0.210485	0.373994	0.562523	5011.676616	20413.125803	3574.283299	8177.760480
94.037500	0.357404	0.215004	0.376052	0.566418	5011.949449	20438.250105	3571.358610	8130.627836
94.535000	0.354644	0.213626	0.384649	0.564516	5007.785997	20459.409339	3588.240826	8153.590124
95.035500	0.358366	0.212912	0.383989	0.566000	5018.668010	20370.869812	3584.760907	8135.664808
95.539000	0.358288	0.215204	0.381001	0.565478	5020.834571	20484.274050	3580.777538	8141.959118
96.038000	0.362220	0.215783	0.383114	0.566520	5034.986782	20465.549001	3582.504750	8129.394801
96.539000	0.357010	0.214818	0.381597	0.564820	5017.811861	20495.274556	3582.800017	8149.910993
97.036500	0.359252	0.213904	0.374640	0.564528	5030.198164	20470.148223	3572.118358	8153.443963
97.539500	0.361416	0.214546	0.380839	0.563690	5044.963534	20530.038295	3583.400709	8163.595934
98.037000	0.358631	0.213550	0.382010	0.562606	5036.582033	20533.602304	3587.055382	8176.747936
98.535000	0.360831	0.215573	0.379314	0.564637	5037.414170	20533.290528	3579.417564	8152.125738
99.034500	0.360156	0.215349	0.376456	0.566253	5026.171919	20458.821383	3572.262833	8132.607953
99.535500	0.360683	0.214133	0.381509	0.563576	5041.912316	20517.930268	3584.669330	8164.974771
100.035500	0.363868	0.216413	0.381019	0.565568	5047.799036	20529.564378	3580.661379	8140.873177
100.539000	0.362725	0.216977	0.382000	0.567661	5031.859771	20467.718377	3578.872696	8115.668349
101.035500	0.361858	0.215250	0.382054	0.567551	5028.153791	20402.515168	3579.136635	8116.992379
101.536000	0.360208	0.216643	0.378276	0.568018	5017.809835	20439.811274	3572.349762	8111.379964
102.036500	0.361353	0.216887	0.388456	0.569527	5016.040173	20388.868201	3586.284154	8093.308815
102.539500	0.360802	0.215539	0.387604	0.568485	5018.430553	20376.590782	3586.592418	8105.782802
103.034500	0.362121	0.216761	0.389112	0.570689	5014.117986	20337.157893	3585.463109	8079.421523
103.534500	0.362357	0.218683	0.384979	0.573351	5002.348596	20307.503255	3574.534310	8047.767708
104.035000	0.360143	0.215588	0.380882	0.571772	4999.276922	20246.936548	3570.526824	8066.522318
104.535000	0.366038	0.215628	0.382675	0.574154	5016.317650	20153.756545	3569.592925	8038.255733
105.036000	0.363196	0.216150	0.386030	0.575489	4996.071203	20121.520578	3572.800556	8022.480066
105.536000	0.363273	0.215881	0.382211	0.576369	4992.202966	20076.074225	3565.360180	8012.104778
106.036000	0.361801	0.216487	0.380319	0.577917	4977.712801	20038.939546	3559.964834	7993.917759
106.536500	0.363557	0.215850	0.384327	0.579040	4980.745541	19969.724596	3564.488784	7980.763862
107.036500	0.362175	0.216608	0.388634	0.580218	4968.521001	19953.248721	3569.427105	7966.996290
107.536000	0.359296	0.216426	0.386594	0.581103	4950.678176	19911.437550	3564.808478	7956.675176
108.037500	0.359870	0.215975	0.387150	0.582020	4949.061581	19858.040132	3564.241904	7946.009666
108.534500	0.363066	0.216500	0.389437	0.585119	4949.519745	19757.962552	3562.964505	7910.116079
109.035000	0.363006	0.214461	0.377230	0.584375	4952.746611	19707.807315	3545.211204	7918.706804
109.535500	0.361744	0.215966	0.387795	0.586339	4937.567347	19690.093455	3558.489459	7896.061446
110.035500	0.367912	0.217141	0.386955	0.588078	4958.439157	19668.348792	3554.480234	7876.094377
110.538500	0.364602	0.215078	0.389126	0.588556	4940.574691	19570.677692	3557.108742	7870.616003
111.036000	0.362957	0.215837	0.387956	0.590158	4925.380110	19538.362769	3552.810705	7852.309715
111.537000	0.362876	0.213699	0.387994	0.588543	4932.544335	19518.375986	3555.370547	7870.762134
112.036500	0.361786	0.214397	0.392047	0.589634	4922.372173	19503.381811	3559.983011	7858.293112
112.537000	0.364084	0.214954	0.390371	0.591798	4922.992842	19442.131841	3554.009747	7833.643090
