sample name	sample
index	1403
start time	 05-10-2021  11:15:15 AM
880	0.409129
Peak Time (s)	92.536
Peak Height 	0.4091
calc peak height	90,93
Baseline Time (s)	9.535
Baseline Value 	-0.002706
subtract baseline	10,4
Abs	0.268592
Peak Time (s)	91.035
Peak Height 	0.2686
calc peak height	90,93
Baseline Time (s)	9.04
Baseline Value 	0.001547
subtract baseline	10,3
PK_550	0.150708
Peak Time (s)	90.037
Peak Height 	0.1507
calc peak height	90,93
Baseline Time (s)	10.538
Baseline Value 	3.8677E-4
subtract baseline	10,2
PK_880	0.250882
Peak Time (s)	91.035
Peak Height 	0.2509
calc peak height	90,93
Baseline Time (s)	10.035
Baseline Value 	0.001255
subtract baseline	10,1


Time (s)	A880-A510	A880-A775	A880-A975	A880	I510	I775	I975	I880	
0.034500	0.000116	-0.000455	0.002814	0.001754	6424.036288	44954.792533	3932.948715	23253.566707
0.535500	-0.003615	-0.000227	-0.003281	0.005101	6366.269260	44654.166021	3908.911252	23096.994992
1.035500	-0.002301	-0.000669	0.001068	0.003660	6388.645262	44750.299591	3923.589967	23164.283011
1.536000	-0.000433	-0.000279	-0.000947	0.000909	6426.474695	45053.685633	3925.469039	23293.283059
2.036000	-0.001842	-0.000147	0.002009	0.001220	6412.339233	45036.404637	3932.251868	23278.670733
2.536000	-0.000032	0.000124	0.000479	0.002257	6418.689504	44962.296964	3925.669494	23229.998265
3.036500	0.000091	0.001192	-0.000613	-0.000433	6441.870368	45327.372633	3929.763169	23356.547642
3.536500	-0.001875	-0.000045	0.000344	0.000767	6415.786263	45090.242426	3929.137466	23299.977565
4.037500	0.000548	0.000538	-0.001002	0.001573	6429.083856	45068.551157	3923.632503	23262.064933
4.535000	0.001115	0.000482	0.002985	0.001196	6436.878682	45099.808236	3934.827477	23279.813102
5.035000	-0.002165	-0.000190	0.000849	0.000656	6414.316905	45086.868849	3930.718103	23305.196191
5.535000	-0.001417	-0.000870	0.001554	-0.000031	6426.116039	45087.576465	3934.301476	23337.587824
6.035000	-0.001470	0.000542	-0.001868	0.000899	6418.029851	45134.474690	3923.144217	23293.791152
6.536000	-0.000635	-0.000056	0.002510	0.000374	6429.214245	45127.318639	3935.721853	23318.489726
7.036500	-0.000396	0.000738	-0.000118	0.000895	6426.892789	45153.908179	3927.627594	23293.970461
7.536500	-0.002009	-0.000357	0.001926	0.000384	6417.828265	45097.106129	3934.191101	23318.028467
8.037000	-0.001290	-0.000829	0.001310	-0.000379	6430.031263	45125.386331	3934.570080	23354.020662
8.537000	-0.000798	-0.000698	-0.001539	-0.000255	6433.060051	45126.113997	3926.935102	23348.166189
9.040000	0.000125	0.000737	0.000000	0.000922	6430.962464	45151.182067	3927.860291	23292.699918
9.535000	-0.000457	-0.000395	0.001665	0.000000	6433.766048	45130.752349	3934.505993	23336.122055
10.035000	0.000000	0.000394	0.006327	0.000457	6433.769951	45162.979088	3945.396370	23314.586942
10.538000	0.001630	0.000000	0.001116	-0.000273	6453.296122	45195.699080	3933.795976	23349.011575
11.036000	-0.001269	-0.000619	-0.000102	-0.000760	6433.336935	45182.825263	3931.914064	23371.981532
11.536000	0.000061	0.001019	-0.001504	0.000344	6435.205613	45234.847750	3925.489403	23319.906461
12.036000	-0.002449	-0.000063	0.001676	-0.000537	6421.784647	45215.190889	3935.920655	23361.456410
12.536500	-0.004072	0.001066	-0.003091	0.003274	6377.373514	44954.917504	3914.002311	23182.326183
13.037000	-0.001242	-0.000780	-0.000226	-0.001534	6439.954901	45242.498647	3933.587570	23408.571518
13.537500	0.001385	0.000137	-0.001802	-0.000471	6452.913058	45228.348722	3926.815122	23358.365658
14.034500	-0.001026	-0.000285	-0.000772	0.002449	6408.958707	44904.122089	3921.986642	23220.992574
14.535000	-0.000698	-0.000804	-0.002912	0.002071	6414.738063	44890.482337	3917.503643	23238.684492
15.037500	-0.000354	0.000579	-0.001012	-0.000321	6437.277358	45256.734321	3928.454286	23351.284947
15.535500	-0.000971	-0.000336	0.001271	-0.001043	6438.137065	45237.908325	3936.180394	23385.368467
16.036000	-0.000954	0.000029	0.004787	-0.000686	6435.331802	45238.680614	3944.362477	23368.484268
16.536500	-0.003996	-0.000793	-0.002629	0.002825	6381.644973	44818.743900	3916.309024	23203.343067
17.036500	0.001702	0.000484	0.003139	-0.002647	6473.646772	45474.645438	3945.177067	23461.307038
17.536500	-0.001933	0.000440	-0.001676	0.001680	6407.825820	45048.703389	3921.642539	23257.068722
18.037000	-0.003016	-0.000228	0.000012	0.001870	6397.408937	44965.638424	3925.465511	23248.142568
18.540500	-0.004071	-0.000371	0.003510	0.001720	6390.034331	44966.357631	3934.831161	23255.201948
19.035000	-0.001332	0.000134	0.007998	0.001300	6415.866403	45055.906096	3947.553738	23274.916852
19.535000	-0.002426	0.000548	0.004158	0.001595	6404.484425	45067.503292	3936.823759	23261.064181
20.035500	-0.001623	-0.000633	-0.004452	0.000745	6418.034248	45035.296786	3916.961478	23301.000847
20.536000	-0.001927	-0.001059	0.000815	0.001111	6412.543240	44958.733047	3929.466094	23283.824776
21.036500	-0.000558	0.000021	-0.002774	0.001425	6421.201479	45032.805051	3919.494949	23269.025199
21.536500	-0.001423	0.000543	-0.000664	0.001899	6410.210321	45037.455414	3923.663676	23246.779404
22.036500	-0.002029	0.000723	0.001680	0.001768	6406.316688	45067.634964	3929.997810	23252.917417
22.537000	-0.003355	0.000039	-0.005526	0.002248	6391.558977	44954.842247	3910.444930	23230.402037
23.040000	-0.001095	0.000544	0.000359	0.001941	6412.559051	45033.562765	3926.170328	23244.825514
23.537500	-0.002862	0.000609	0.001283	0.001992	6397.673223	45034.847094	3928.404624	23242.403995
24.035000	-0.001406	0.000732	0.000519	0.002901	6402.144194	44958.820938	3924.126572	23199.808051
24.535000	-0.001383	0.000338	-0.003367	0.002237	6407.768160	44984.915650	3915.929909	23230.930431
25.035500	-0.001194	0.000126	0.003245	0.001711	6413.630375	45015.281365	3934.169998	23255.596515
25.535500	-0.001583	-0.000918	-0.000853	0.001159	6414.960450	44967.564470	3925.070386	23281.531584
26.036500	-0.003047	-0.000118	-0.000262	0.003160	6386.636165	44851.527796	3921.473258	23187.655265
26.536500	-0.004525	-0.000049	0.002747	0.001688	6386.590265	45000.499686	3932.946236	23256.668922
27.037000	0.001050	-0.000081	-0.000334	-0.000769	6452.594226	45236.111480	3931.341104	23372.413127
27.537500	-0.000458	0.000549	0.003059	-0.000214	6435.527805	45243.426504	3938.659538	23346.226199
28.037500	-0.000556	0.000830	0.002133	0.000759	6426.697971	45176.023231	3933.756919	23300.346593
28.537500	-0.002283	0.001444	-0.001999	0.004598	6381.148813	44863.532149	3913.415218	23120.440674
29.035000	-0.002683	0.000578	-0.002007	0.000532	6411.088804	45173.675839	3923.727247	23311.073165
29.535500	0.000928	0.000404	0.004207	0.000592	6440.320030	45150.839914	3939.544154	23308.237557
30.036000	-0.003320	-0.000107	-0.004008	0.005327	6366.825946	44644.092511	3906.514441	23086.492370
30.536000	-0.002261	-0.000348	0.008538	0.004121	6385.217451	44736.848842	3941.623749	23142.740077
31.036500	-0.002914	0.000914	0.001317	0.002929	6389.599042	44973.607250	3926.092935	23198.471511
31.536000	-0.000270	0.000700	-0.000530	0.000229	6433.422956	45214.866515	3928.276743	23325.310476
32.037000	-0.003024	0.000040	-0.005843	0.005107	6371.009161	44679.325479	3902.463749	23096.738344
32.543000	-0.001282	-0.000175	-0.001892	0.003432	6398.812384	44819.820989	3916.638410	23174.923187
33.037500	0.002099	0.001103	0.001281	-0.000730	6460.988425	45347.685657	3935.399319	23370.568914
33.538000	-0.001485	0.001023	-0.001011	0.002127	6407.829970	45061.953106	3922.196788	23236.082251
34.035000	-0.002567	-0.000140	0.003084	0.003276	6389.605515	44838.206705	3929.732064	23182.222044
34.535500	-0.001493	0.000065	-0.004230	0.002075	6408.195593	44974.117935	3914.154222	23238.510720
35.036000	-0.000712	-0.000117	0.000605	0.001493	6419.374156	45012.874884	3927.947289	23265.844415
35.536000	0.000101	0.000894	0.003993	0.002015	6421.770862	45060.271654	3935.313216	23241.325844
36.036500	-0.000909	0.000660	0.000715	0.001841	6414.901951	45054.461420	3927.336992	23249.490931
36.536500	-0.000530	0.000363	0.007419	0.002084	6416.015172	45002.067336	3944.006272	23238.094675
37.036500	-0.000249	0.000592	-0.000698	0.001976	6419.209182	45034.771288	3923.381405	23243.160159
37.537500	-0.002758	0.000514	-0.004912	0.002024	6398.265630	45022.566965	3912.559091	23240.913198
38.035000	0.000325	-0.000294	-0.000376	0.001497	6427.877845	44995.301101	3925.425919	23265.660891
38.535500	-0.002481	0.000584	0.002815	0.001867	6401.806685	45044.525515	3932.661555	23248.278143
39.035000	-0.000097	0.000134	0.006413	0.001342	6425.677884	45051.807250	3943.320235	23272.933696
39.535500	-0.000190	-0.000577	0.001701	0.000751	6429.776118	45040.161879	3932.667115	23300.738365
40.035500	-0.001971	0.001103	-0.006692	0.003807	6390.130529	44906.976925	3903.594349	23157.400321
40.536000	-0.001415	0.000057	-0.000044	0.001656	6412.271099	45013.901637	3925.869793	23258.199573
41.036500	-0.002632	-0.000146	0.000233	0.001089	6406.940371	45049.178624	3928.030466	23284.840390
41.536500	-0.002106	0.000227	0.001313	0.001591	6407.136671	45036.772334	3929.512985	23261.261331
42.040000	-0.001701	-0.000561	0.001979	0.001216	6413.523850	44996.613629	3932.182805	23278.847667
42.537500	-0.002107	-0.000073	-0.002629	0.001522	6407.694048	45014.328954	3919.618544	23264.484771
43.035000	-0.002130	-0.000271	-0.000006	0.001415	6408.386162	45005.558597	3926.583028	23269.525654
43.534500	0.001495	0.000140	-0.000188	-0.002985	6474.738649	45474.105511	3937.428272	23477.357582
44.035500	-0.006321	0.000178	0.001375	0.005367	6342.290647	44667.576102	3920.022913	23084.603728
44.535500	-0.002962	-0.000376	-0.000740	0.003152	6387.398489	44827.405254	3920.276850	23188.030914
45.035500	-0.001842	0.000447	-0.000016	-0.000406	6425.698537	45252.119755	3931.226598	23355.260556
45.539000	0.000766	0.000014	0.002550	-0.000106	6444.752215	45180.805559	3937.065681	23341.139231
46.037000	-0.003524	0.000018	0.000331	0.005590	6363.051683	44630.812819	3916.805281	23074.248023
46.537000	-0.002478	0.000152	-0.003277	0.004907	6377.057794	44709.300389	3909.410503	23106.036298
47.037500	-0.002338	0.000329	0.001960	0.002707	6396.113547	44938.567203	3928.309501	23208.894267
47.535000	-0.002713	0.000353	0.000959	0.002019	6398.667321	45007.398106	3927.505962	23241.149544
48.034500	-0.003306	-0.000394	0.000652	0.005434	6366.075085	44606.229397	3918.015667	23081.498809
48.535500	-0.003568	0.000568	-0.000627	0.006574	6354.741923	44589.115835	3911.891386	23028.487625
49.035500	-0.001118	0.000017	0.000362	-0.000808	6434.980409	45249.418509	3933.231589	23374.256981
49.536000	0.000318	0.001023	0.004901	-0.001858	6455.564019	45450.218938	3947.712862	23423.925633
50.036500	-0.002038	0.000110	-0.003906	0.006157	6370.487655	44585.226884	3904.687751	23047.867764
50.536000	0.014445	0.000524	0.036796	0.234694	5010.627724	27568.802259	3522.170883	14786.934916
51.037000	0.010929	-0.016190	-0.001697	0.069009	5988.512444	37646.672943	3762.709112	20327.575816
51.540000	0.003262	-0.066267	-0.028870	-0.223961	8903.414370	63656.446197	4562.495399	37154.379753
52.037500	-0.004429	-0.091646	-0.025893	-0.260999	9326.586101	65308.432143	4731.132572	40207.616352
52.535000	0.001960	-0.056052	-0.008403	-0.211359	8712.700808	63323.690523	4594.427871	36173.530763
53.035000	0.014448	-0.034908	0.005156	-0.167205	8300.473049	60207.626200	4473.401609	32952.915888
53.535000	0.011471	-0.019137	0.011448	-0.104983	7540.715033	54398.514326	4273.037686	28935.809719
54.035000	0.001242	-0.017831	0.001747	-0.111864	7504.708179	55377.799767	4263.601475	29352.298758
54.536500	0.013157	-0.022756	0.013663	-0.148352	8053.444969	59330.745682	4434.366254	31674.414516
55.036500	0.026642	-0.015837	0.027880	-0.123182	7915.323790	57010.049750	4394.043050	30051.811968
55.536500	0.037010	-0.000728	0.051839	-0.027002	7007.221640	47802.806213	4152.169342	24649.737539
56.039500	0.047298	0.008437	0.058652	0.028927	6592.536008	43223.053146	4009.208882	22016.609357
56.537000	0.062763	0.018242	0.069435	0.058341	6474.257905	41444.659981	3959.073210	20762.013360
57.035000	0.081174	0.028582	0.084197	0.068873	6540.599177	41427.596479	3970.268340	20333.042009
57.535000	0.099159	0.039445	0.105032	0.117175	6291.780584	38248.791459	3899.483683	18493.715696
58.035500	0.116370	0.054805	0.125226	0.159490	6098.493336	36123.884122	3845.641198	17042.166852
58.535500	0.130184	0.060991	0.140116	0.201757	5892.511871	33478.384074	3782.691751	15726.787228
59.036000	0.142327	0.069613	0.152638	0.219494	5853.577616	32844.143648	3771.144100	15211.806791
59.536500	0.155258	0.077644	0.161007	0.245450	5764.849720	31634.975641	3733.209135	14495.117632
60.036500	0.166731	0.086052	0.177251	0.276667	5635.320868	30166.902826	3702.101994	13688.040403
60.537000	0.178409	0.091841	0.188610	0.296492	5583.558103	29300.963250	3684.980627	13204.771231
61.036500	0.183680	0.098246	0.199934	0.309633	5534.480243	28895.253402	3681.350071	12896.406536
61.537000	0.194097	0.102519	0.211359	0.337474	5428.923829	27524.260142	3649.222481	12273.095195
62.035000	0.196747	0.111084	0.208891	0.336093	5452.971021	28093.812347	3647.137928	12303.081279
62.535000	0.199315	0.115436	0.214108	0.333852	5481.949721	28478.585271	3661.546473	12351.941754
63.051500	0.203455	0.117256	0.217227	0.329647	5533.002288	28835.280949	3675.939629	12444.301706
63.536000	0.205634	0.120724	0.218297	0.330979	5538.236620	28963.001703	3675.419411	12414.946170
64.036000	0.209317	0.123636	0.224681	0.335323	5534.151825	28877.364125	3679.471309	12319.845904
64.536000	0.207468	0.124011	0.219958	0.332180	5542.158663	29088.280197	3676.331070	12388.553247
65.037000	0.213034	0.126274	0.222538	0.334897	5559.875249	29060.962313	3676.062019	12329.126590
65.539500	0.213648	0.127498	0.222716	0.336170	5555.768468	29058.064062	3673.894443	12301.415473
66.037000	0.214862	0.129777	0.224371	0.337954	5552.219459	29087.813678	3673.637270	12262.687149
66.534000	0.219527	0.131265	0.236169	0.339654	5570.731867	29075.094659	3693.831173	12225.963032
67.035000	0.225181	0.134760	0.233569	0.342535	5588.155214	29112.057382	3682.812760	12164.021004
67.535500	0.226601	0.136340	0.237500	0.344134	5587.025935	29110.854920	3687.482322	12129.814097
68.035500	0.224716	0.137817	0.240635	0.346661	5559.361055	29047.695805	3688.705257	12076.024278
68.536000	0.227919	0.140463	0.238426	0.349126	5563.966071	29058.553214	3679.355529	12023.847895
69.035000	0.231114	0.141745	0.243292	0.349272	5583.086154	29126.977106	3688.797660	12020.775039
69.536500	0.232239	0.142896	0.242713	0.352711	5568.571384	28989.415150	3680.753976	11948.515112
70.037000	0.229253	0.142636	0.244251	0.357718	5518.996079	28675.360538	3673.868675	11844.311698
70.537000	0.233189	0.143051	0.250975	0.357068	5547.325008	28738.558874	3688.570163	11857.768236
71.036500	0.235537	0.143623	0.245683	0.361147	5536.594579	28531.076530	3669.927668	11773.635129
71.535000	0.235292	0.145246	0.245646	0.363948	5517.827421	28461.750416	3664.361475	11716.327501
72.038000	0.235092	0.144842	0.248282	0.371095	5473.077544	28021.824574	3655.587118	11571.748151
72.535000	0.236576	0.146564	0.251627	0.371398	5480.222698	28103.950073	3661.496071	11565.677188
73.036000	0.238326	0.145634	0.252418	0.373244	5479.639530	27943.622944	3659.442692	11528.747534
73.536000	0.237445	0.147089	0.252501	0.376255	5456.183015	27854.183337	3653.769808	11468.835978
74.036500	0.235393	0.145550	0.249914	0.379728	5423.238546	27568.308676	3642.149653	11400.247874
74.536500	0.239125	0.146086	0.256336	0.381550	5434.578181	27495.464055	3650.954961	11364.481828
75.039500	0.239362	0.146455	0.253043	0.380784	5440.554529	27559.757882	3646.106358	11379.506349
75.537000	0.239549	0.146403	0.255805	0.382082	5433.939627	27483.296023	3648.910757	11354.067131
76.037500	0.242322	0.148111	0.261012	0.386925	5421.658118	27306.829679	3649.611891	11259.871000
76.534500	0.241963	0.148496	0.258496	0.384293	5435.149491	27476.674790	3649.834362	11310.941378
77.035000	0.241925	0.148235	0.258468	0.384410	5434.226196	27455.311209	3649.556222	11308.663012
77.535500	0.243283	0.149634	0.261949	0.385287	5437.091688	27484.836811	3654.573570	11291.617070
78.036000	0.243545	0.150881	0.255886	0.389149	5415.735774	27337.499718	3635.611244	11216.959087
78.536000	0.241662	0.148659	0.257218	0.387792	5412.629761	27288.910905	3640.704110	11243.102343
79.036500	0.244149	0.150566	0.259118	0.386200	5436.803341	27485.857742	3647.367095	11273.891279
79.536500	0.245751	0.150764	0.260788	0.386132	5446.772039	27500.938435	3650.705223	11275.222587
80.037000	0.245079	0.150464	0.261545	0.385850	5444.442332	27499.922027	3652.706910	11280.685380
80.537500	0.242646	0.151209	0.264502	0.389389	5409.014792	27342.391672	3651.583900	11212.329559
81.035000	0.244446	0.153569	0.265898	0.389008	5421.897650	27496.937680	3655.014450	11219.672661
81.534500	0.246635	0.152349	0.259050	0.387741	5442.446132	27499.559073	3644.291683	11244.098374
82.035500	0.246808	0.154228	0.262640	0.391613	5420.453738	27387.082655	3643.752083	11169.651976
82.535500	0.242827	0.153716	0.255324	0.394697	5378.987102	27185.517828	3624.149162	11110.850306
83.035500	0.245371	0.154375	0.257071	0.392130	5408.921706	27366.288499	3632.223436	11159.764504
83.536500	0.248130	0.153496	0.262836	0.391998	5426.010509	27324.272761	3643.391144	11162.289925
84.039000	0.247585	0.154167	0.261105	0.394806	5406.200239	27204.617092	3634.783502	11108.782111
84.539500	0.248547	0.155042	0.259397	0.395123	5410.000293	27235.801148	3630.969929	11102.751307
85.037000	0.245342	0.153418	0.265823	0.395560	5388.626295	27120.790111	3642.296314	11094.465958
85.537500	0.246913	0.152258	0.263809	0.395408	5398.713327	27064.695238	3638.757043	11097.341817
86.038000	0.248502	0.152771	0.260110	0.398234	5391.467874	26936.596295	3626.478271	11043.914863
86.534500	0.245519	0.152643	0.261883	0.398099	5374.857494	26936.934200	3630.050301	11046.448914
87.035500	0.246185	0.152847	0.261222	0.398684	5375.331815	26915.920353	3627.715787	11035.438504
87.535500	0.246955	0.151847	0.265467	0.399607	5374.441919	26810.004888	3633.954866	11018.082252
88.036000	0.246187	0.150547	0.261750	0.401589	5358.504037	26630.285049	3623.281692	10980.915679
88.536500	0.244411	0.149841	0.262353	0.401938	5346.265959	26572.815044	3623.752919	10974.391163
89.039500	0.244465	0.150521	0.261018	0.402092	5345.689362	26601.434469	3620.987578	10971.519093
89.537000	0.249257	0.151829	0.267700	0.403621	5364.504546	26589.400600	3630.603431	10942.996914
90.037000	0.247180	0.150708	0.262128	0.406113	5338.194742	26393.487931	3615.605091	10896.745331
90.534500	0.248492	0.149359	0.259477	0.406213	5345.146759	26315.359801	3610.549940	10894.894680
91.035500	0.250882	0.150412	0.268592	0.405951	5360.431560	26386.294874	3627.909923	10899.754718
91.535000	0.248449	0.149267	0.267564	0.406365	5344.029140	26302.238423	3625.214471	10892.081090
92.036000	0.246198	0.149760	0.266090	0.408462	5319.191313	26216.110796	3618.582367	10853.384707
92.536000	0.248401	0.149179	0.266745	0.409129	5327.935522	26149.329994	3618.560282	10841.119121
93.077500	0.248673	0.147637	0.267464	0.407332	5339.770625	26163.003567	3623.229018	10874.223604
93.536500	0.250249	0.147498	0.266050	0.409318	5337.420216	26049.637707	3616.927418	10837.648810
94.036500	0.248549	0.147406	0.268205	0.410615	5320.315454	25975.804218	3618.512118	10813.849047
94.536500	0.246941	0.148267	0.261588	0.412879	5298.393220	25901.487491	3602.253574	10772.481356
95.037000	0.247455	0.147916	0.264966	0.412144	5305.441237	25921.827341	3609.742115	10785.889494
95.535000	0.250558	0.147194	0.267517	0.412526	5320.876882	25863.490069	3613.719787	10778.926701
