sample name	sample
index	1493
start time	 05-18-2021  01:09:34 PM


Wavelength (nm)	Absorbance
494.344910	NaN
494.563924	NaN
494.782919	NaN
495.001897	-0.033845
495.220856	0.205146
495.439797	0.197456
495.658719	0.141809
495.877624	0.054603
496.096510	0.096208
496.315378	0.118619
496.534227	0.125572
496.753059	0.162385
496.971872	0.219055
497.190667	0.156595
497.409444	0.142295
497.628203	0.142202
497.846943	0.141478
498.065665	0.140847
498.284369	0.139341
498.503055	0.136591
498.721723	0.135763
498.940372	0.135336
499.159003	0.134410
499.377616	0.133516
499.596210	0.133060
499.814787	0.133515
500.033345	0.132463
500.251885	0.132868
500.470406	0.134933
500.688910	0.135562
500.907395	0.135252
501.125862	0.134705
501.344311	0.135968
501.562742	0.136229
501.781154	0.136159
501.999548	0.136831
502.217924	0.136740
502.436282	0.135708
502.654621	0.135280
502.872942	0.135800
503.091245	0.136418
503.309530	0.135820
503.527797	0.136439
503.746045	0.136293
503.964275	0.134927
504.182487	0.134556
504.400681	0.135134
504.618856	0.135046
504.837013	0.135290
505.055152	0.135497
505.273273	0.135257
505.491376	0.134685
505.709460	0.134484
505.927526	0.135030
506.145574	0.135851
506.363604	0.135355
506.581615	0.135761
506.799608	0.135369
507.017583	0.135330
507.235540	0.135556
507.453478	0.136393
507.671399	0.136659
507.889301	0.137518
508.107185	0.137219
508.325050	0.138294
508.542898	0.138577
508.760727	0.139205
508.978538	0.139925
509.196330	0.140590
509.414105	0.140543
509.631861	0.140761
509.849599	0.140863
510.067319	0.141707
510.285021	0.141341
510.502704	0.141493
510.720369	0.142347
510.938016	0.142237
511.155645	0.142592
511.373255	0.141459
511.590848	0.141804
511.808422	0.142600
512.025977	0.142627
512.243515	0.143291
512.461034	0.143737
512.678536	0.142985
512.896018	0.143064
513.113483	0.142780
513.330930	0.143233
513.548358	0.143396
513.765768	0.142826
513.983160	0.142288
514.200533	0.142289
514.417889	0.141550
514.635226	0.141442
514.852545	0.141299
515.069845	0.141929
515.287128	0.141803
515.504392	0.142141
515.721638	0.142513
515.938866	0.142503
516.156075	0.142825
516.373267	0.144032
516.590440	0.144726
516.807594	0.144620
517.024731	0.144081
517.241850	0.146065
517.458950	0.145827
517.676032	0.146496
517.893095	0.147692
518.110141	0.147355
518.327168	0.146694
518.544177	0.147273
518.761168	0.147483
518.978141	0.148524
519.195095	0.147382
519.412031	0.148306
519.628949	0.147889
519.845849	0.147309
520.062731	0.147718
520.279594	0.148043
520.496439	0.147215
520.713266	0.147784
520.930074	0.147871
521.146865	0.147340
521.363637	0.147045
521.580391	0.147434
521.797127	0.147586
522.013844	0.148019
522.230543	0.148577
522.447224	0.149008
522.663887	0.149410
522.880532	0.148769
523.097158	0.150424
523.313766	0.150514
523.530356	0.150229
523.746928	0.150747
523.963481	0.150150
524.180017	0.150533
524.396534	0.151186
524.613032	0.150881
524.829513	0.152045
525.045975	0.151072
525.262420	0.152179
525.478845	0.152906
525.695253	0.152995
525.911643	0.154271
526.128014	0.154261
526.344367	0.154020
526.560702	0.154453
526.777018	0.153946
526.993316	0.155000
527.209597	0.154019
527.425858	0.154836
527.642102	0.155197
527.858328	0.154549
528.074535	0.154900
528.290724	0.154911
528.506894	0.154709
528.723047	0.155326
528.939181	0.155994
529.155297	0.156504
529.371395	0.156355
529.587475	0.156420
529.803536	0.156929
530.019579	0.157091
530.235604	0.157386
530.451611	0.158454
530.667600	0.158043
530.883570	0.157602
531.099522	0.157995
531.315456	0.158164
531.531372	0.158608
531.747269	0.158593
531.963148	0.158704
532.179009	0.159148
532.394852	0.159419
532.610676	0.160172
532.826482	0.160459
533.042271	0.160199
533.258040	0.159935
533.473792	0.160543
533.689525	0.161033
533.905240	0.161007
534.120937	0.161308
534.336616	0.160952
534.552277	0.161686
534.767919	0.162011
534.983543	0.163020
535.199149	0.163351
535.414736	0.163237
535.630306	0.164009
535.845857	0.164753
536.061390	0.165107
536.276904	0.166430
536.492401	0.166009
536.707879	0.166158
536.923339	0.166142
537.138781	0.166436
537.354204	0.166239
537.569610	0.166441
537.784997	0.165997
538.000366	0.165824
538.215716	0.165033
538.431049	0.165461
538.646363	0.165376
538.861659	0.165536
539.076937	0.166512
539.292196	0.166723
539.507438	0.167044
539.722661	0.167511
539.937866	0.168003
540.153052	0.167865
540.368221	0.168034
540.583371	0.168697
540.798503	0.169380
541.013617	0.168848
541.228712	0.169524
541.443789	0.169026
541.658848	0.169736
541.873889	0.170081
542.088912	0.170843
542.303916	0.170961
542.518902	0.170958
542.733870	0.170683
542.948820	0.171208
543.163752	0.170810
543.378665	0.171197
543.593560	0.171657
543.808437	0.171888
544.023295	0.172600
544.238136	0.173206
544.452958	0.173689
544.667762	0.174226
544.882548	0.174213
545.097315	0.175203
545.312064	0.175625
545.526795	0.174942
545.741508	0.174970
545.956203	0.174736
546.170879	0.174918
546.385537	0.175336
546.600177	0.175542
546.814799	0.176014
547.029402	0.175933
547.243988	0.176198
547.458555	0.176740
547.673103	0.177124
547.887634	0.177667
548.102146	0.177627
548.316640	0.177650
548.531116	0.177721
548.745574	0.178009
548.960013	0.178430
549.174435	0.178638
549.388838	0.179102
549.603222	0.179658
549.817589	0.179103
550.031937	0.179378
550.246267	0.179432
550.460579	0.179709
550.674873	0.179728
550.889148	0.179656
551.103405	0.179862
551.317644	0.179989
551.531865	0.179873
551.746068	0.180618
551.960252	0.180688
552.174418	0.181034
552.388566	0.180827
552.602696	0.181449
552.816807	0.181903
553.030900	0.182100
553.244975	0.182536
553.459032	0.182841
553.673070	0.183590
553.887091	0.184096
554.101093	0.184157
554.315077	0.184740
554.529042	0.184841
554.742990	0.184878
554.956919	0.184718
555.170830	0.184429
555.384722	0.184645
555.598597	0.184169
555.812453	0.184418
556.026291	0.184735
556.240111	0.185090
556.453913	0.184729
556.667696	0.184648
556.881461	0.185302
557.095208	0.186015
557.308937	0.185916
557.522647	0.186406
557.736339	0.186373
557.950013	0.186535
558.163669	0.186574
558.377307	0.187144
558.590926	0.187613
558.804527	0.187842
559.018110	0.187646
559.231675	0.187814
559.445221	0.187743
559.658749	0.187873
559.872259	0.187706
560.085751	0.187568
560.299225	0.187815
560.512680	0.187818
560.726117	0.187766
560.939536	0.187864
561.152937	0.188126
561.366319	0.188199
561.579683	0.187904
561.793029	0.188420
562.006357	0.188546
562.219667	0.188193
562.432958	0.188359
562.646231	0.188745
562.859486	0.189060
563.072723	0.189515
563.285941	0.189786
563.499141	0.190774
563.712323	0.190940
563.925487	0.191219
564.138632	0.191799
564.351760	0.192430
564.564869	0.192328
564.777960	0.192120
564.991032	0.191902
565.204087	0.192306
565.417123	0.192578
565.630141	0.193133
565.843140	0.193535
566.056122	0.193577
566.269085	0.193371
566.482030	0.193497
566.694957	0.194229
566.907866	0.194406
567.120756	0.194588
567.333628	0.194340
567.546482	0.194157
567.759318	0.194483
567.972135	0.194869
568.184935	0.195169
568.397716	0.195550
568.610478	0.196098
568.823223	0.196525
569.035949	0.196289
569.248657	0.196756
569.461347	0.197140
569.674019	0.197181
569.886672	0.197608
570.099308	0.197964
570.311925	0.197707
570.524523	0.197388
570.737104	0.197446
570.949666	0.198086
571.162210	0.198080
571.374736	0.197791
571.587244	0.198082
571.799733	0.197965
572.012205	0.197889
572.224658	0.198593
572.437092	0.199109
572.649509	0.198903
572.861907	0.198831
573.074287	0.198957
573.286649	0.199510
573.498993	0.199798
573.711318	0.200007
573.923625	0.200543
574.135914	0.200691
574.348185	0.200305
574.560438	0.200967
574.772672	0.201149
574.984888	0.201229
575.197086	0.201158
575.409266	0.200907
575.621427	0.200738
575.833570	0.200560
576.045695	0.200337
576.257802	0.200731
576.469890	0.200882
576.681961	0.200846
576.894013	0.200923
577.106046	0.200999
577.318062	0.201272
577.530059	0.201358
577.742039	0.201863
577.954000	0.201878
578.165942	0.201825
578.377867	0.201589
578.589773	0.202063
578.801661	0.202599
579.013531	0.202863
579.225382	0.202928
579.437216	0.203315
579.649031	0.203616
579.860828	0.203571
580.072606	0.203770
580.284367	0.204125
580.496109	0.204437
580.707833	0.204359
580.919539	0.204927
581.131227	0.205283
581.342896	0.205213
581.554547	0.204816
581.766180	0.205537
581.977795	0.206128
582.189391	0.206716
582.400969	0.206129
582.612529	0.206156
582.824071	0.206100
583.035595	0.205967
583.247100	0.206234
583.458587	0.206286
583.670056	0.206330
583.881506	0.206191
584.092939	0.205940
584.304353	0.206673
584.515749	0.206976
584.727127	0.207056
584.938486	0.207611
585.149828	0.208154
585.361151	0.208313
585.572456	0.208139
585.783742	0.208169
585.995011	0.208823
586.206261	0.208820
586.417493	0.208768
586.628706	0.208799
586.839902	0.208558
587.051079	0.208231
587.262238	0.208558
587.473379	0.208995
587.684502	0.209309
587.895606	0.208820
588.106692	0.209245
588.317760	0.209640
588.528810	0.209774
588.739841	0.210050
588.950855	0.210584
589.161850	0.210864
589.372827	0.211088
589.583785	0.211520
589.794726	0.211940
590.005648	0.211958
590.216552	0.212265
590.427437	0.212485
590.638305	0.212719
590.849154	0.212736
591.059985	0.212880
591.270798	0.213354
591.481592	0.212869
591.692369	0.213082
591.903127	0.213661
592.113867	0.213932
592.324588	0.213985
592.535292	0.214404
592.745977	0.214391
592.956644	0.214695
593.167293	0.214930
593.377923	0.215266
593.588536	0.215331
593.799130	0.215222
594.009706	0.215156
594.220263	0.215572
594.430803	0.215609
594.641324	0.216096
594.851827	0.216219
595.062312	0.216156
595.272778	0.216646
595.483227	0.217003
595.693657	0.216990
595.904069	0.217089
596.114462	0.217605
596.324838	0.218004
596.535195	0.217757
596.745534	0.217795
596.955855	0.217960
597.166157	0.218022
597.376441	0.217875
597.586707	0.218357
597.796955	0.218831
598.007185	0.218677
598.217396	0.218666
598.427589	0.219509
598.637764	0.219470
598.847921	0.219879
599.058060	0.220011
599.268180	0.220225
599.478282	0.220098
599.688366	0.219841
599.898431	0.219803
600.108479	0.219752
600.318508	0.219683
600.528519	0.220123
600.738511	0.219823
600.948486	0.219818
601.158442	0.220191
601.368380	0.220354
601.578300	0.220574
601.788202	0.220750
601.998085	0.221084
602.207950	0.220889
602.417797	0.220797
602.627626	0.221206
602.837436	0.221477
603.047228	0.221404
603.257002	0.221701
603.466758	0.221985
603.676496	0.221911
603.886215	0.221576
604.095916	0.221861
604.305599	0.222016
604.515264	0.222053
604.724910	0.222236
604.934538	0.222218
605.144148	0.222352
605.353740	0.222382
605.563314	0.222806
605.772869	0.223066
605.982406	0.223184
606.191925	0.223329
606.401425	0.223435
606.610908	0.223429
606.820372	0.223816
607.029818	0.223575
607.239246	0.223996
607.448655	0.224136
607.658047	0.224545
607.867420	0.224692
608.076775	0.225138
608.286111	0.225161
608.495430	0.225314
608.704730	0.225558
608.914012	0.225760
609.123275	0.225538
609.332521	0.225624
609.541748	0.225476
609.750957	0.225702
609.960148	0.225642
610.169321	0.225603
610.378475	0.225675
610.587611	0.225371
610.796729	0.225768
611.005829	0.226055
611.214910	0.226221
611.423974	0.226645
611.633019	0.226691
611.842045	0.226935
612.051054	0.227058
612.260044	0.227207
612.469017	0.227829
612.677970	0.227814
612.886906	0.228032
613.095824	0.228307
613.304723	0.228443
613.513604	0.228964
613.722467	0.229093
613.931311	0.229424
614.140138	0.229684
614.348946	0.229496
614.557736	0.229552
614.766507	0.229697
614.975261	0.229615
615.183996	0.229500
615.392713	0.229261
615.601412	0.229390
615.810092	0.229474
616.018754	0.229244
616.227399	0.229526
616.436024	0.229636
616.644632	0.229417
616.853222	0.229748
617.061793	0.229847
617.270346	0.229737
617.478880	0.229962
617.687397	0.230058
617.895895	0.230554
618.104375	0.230839
618.312837	0.231118
618.521281	0.231323
618.729706	0.231351
618.938113	0.231608
619.146502	0.232158
619.354873	0.232282
619.563226	0.232669
619.771560	0.232650
619.979876	0.232712
620.188174	0.232625
620.396453	0.232912
620.604715	0.233107
620.812958	0.233092
621.021183	0.233076
621.229390	0.232911
621.437578	0.233047
621.645748	0.233038
621.853900	0.232956
622.062034	0.233163
622.270150	0.233171
622.478247	0.233149
622.686326	0.233316
622.894387	0.233649
623.102430	0.234287
623.310454	0.234146
623.518461	0.234410
623.726449	0.234567
623.934418	0.234467
624.142370	0.234685
624.350303	0.234823
624.558218	0.235103
624.766115	0.235101
624.973994	0.234679
625.181855	0.234765
625.389697	0.234910
625.597521	0.235346
625.805327	0.235945
626.013114	0.236356
626.220883	0.236526
626.428634	0.236588
626.636367	0.236689
626.844082	0.236875
627.051778	0.237251
627.259457	0.237623
627.467117	0.237547
627.674758	0.237260
627.882382	0.237340
628.089987	0.237461
628.297574	0.237417
628.505143	0.237675
628.712694	0.238077
628.920226	0.238147
629.127740	0.238136
629.335236	0.238202
629.542714	0.238761
629.750174	0.238793
629.957615	0.238801
630.165038	0.239462
630.372443	0.239470
630.579829	0.239621
630.787198	0.239803
630.994548	0.240015
631.201880	0.240241
631.409194	0.240360
631.616489	0.240288
631.823766	0.240510
632.031025	0.240460
632.238266	0.240785
632.445489	0.241059
632.652693	0.241106
632.859879	0.241386
633.067047	0.241581
633.274197	0.241709
633.481329	0.242096
633.688442	0.242352
633.895537	0.242648
634.102614	0.242775
634.309672	0.242804
634.516713	0.243248
634.723735	0.243103
634.930739	0.243394
635.137724	0.243527
635.344692	0.243632
635.551641	0.243576
635.758572	0.243443
635.965485	0.243476
636.172379	0.243423
636.379256	0.243483
636.586114	0.243596
636.792954	0.243514
636.999775	0.243453
637.206579	0.243474
637.413364	0.243809
637.620131	0.244183
637.826880	0.244186
638.033610	0.244480
638.240323	0.244513
638.447017	0.244600
638.653692	0.244740
638.860350	0.244846
639.066990	0.245019
639.273611	0.245102
639.480214	0.245091
639.686798	0.245436
639.893365	0.245581
640.099913	0.245849
640.306443	0.245957
640.512955	0.246136
640.719449	0.246519
640.925924	0.246720
641.132381	0.246647
641.338820	0.246694
641.545241	0.246830
641.751644	0.247025
641.958028	0.247184
642.164394	0.247543
642.370742	0.247934
642.577071	0.248012
642.783383	0.248306
642.989676	0.248625
643.195951	0.248861
643.402207	0.248807
643.608446	0.248804
643.814666	0.248868
644.020868	0.249264
644.227052	0.249254
644.433218	0.249370
644.639365	0.249531
644.845494	0.249735
645.051605	0.249853
645.257698	0.250031
645.463772	0.250012
645.669828	0.250022
645.875866	0.249992
646.081886	0.250074
646.287888	0.250435
646.493871	0.250339
646.699836	0.250368
646.905783	0.250590
647.111712	0.250785
647.317622	0.250870
647.523514	0.251299
647.729388	0.251268
647.935244	0.251755
648.141082	0.251696
648.346901	0.251925
648.552702	0.252469
648.758485	0.252777
648.964250	0.253011
649.169996	0.253688
649.375724	0.253694
649.581434	0.254127
649.787126	0.254147
649.992800	0.254616
650.198455	0.254794
650.404092	0.255102
650.609711	0.254949
650.815311	0.255158
651.020894	0.255291
651.226458	0.255407
651.432004	0.255359
651.637532	0.255357
651.843041	0.255087
652.048532	0.255293
652.254006	0.255118
652.459460	0.255666
652.664897	0.255747
652.870315	0.255888
653.075716	0.256073
653.281097	0.256520
653.486461	0.256748
653.691807	0.257187
653.897134	0.257568
654.102443	0.257577
654.307734	0.257569
654.513006	0.257786
654.718261	0.258006
654.923497	0.258322
655.128715	0.258401
655.333915	0.258717
655.539096	0.258807
655.744259	0.259055
655.949404	0.259605
656.154531	0.259789
656.359640	0.260054
656.564730	0.260165
656.769802	0.260285
656.974856	0.260541
657.179892	0.260484
657.384909	0.260665
657.589908	0.260641
657.794889	0.260651
657.999852	0.260712
658.204797	0.260982
658.409723	0.261055
658.614631	0.261412
658.819521	0.261462
659.024393	0.261850
659.229246	0.262174
659.434081	0.262360
659.638898	0.262709
659.843697	0.263051
660.048478	0.263041
660.253240	0.263368
660.457984	0.263442
660.662710	0.263619
660.867417	0.264047
661.072107	0.264497
661.276778	0.264873
661.481431	0.264793
661.686066	0.265028
661.890682	0.265294
662.095281	0.265337
662.299861	0.265562
662.504422	0.265688
662.708966	0.265420
662.913491	0.265054
663.117999	0.264967
663.322488	0.265381
663.526958	0.265457
663.731411	0.265688
663.935845	0.265624
664.140261	0.265721
664.344659	0.265958
664.549038	0.266040
664.753400	0.266304
664.957743	0.266437
665.162068	0.266511
665.366375	0.266621
665.570663	0.266672
665.774933	0.266981
665.979185	0.267291
666.183419	0.267494
666.387635	0.267805
666.591832	0.267799
666.796011	0.268176
667.000172	0.268390
667.204315	0.268852
667.408439	0.268985
667.612545	0.269208
667.816634	0.269118
668.020703	0.269271
668.224755	0.269348
668.428788	0.269826
668.632803	0.269799
668.836800	0.269951
669.040779	0.270203
669.244739	0.270474
669.448681	0.270747
669.652605	0.270974
669.856511	0.270947
670.060399	0.271332
670.264268	0.271544
670.468119	0.271869
670.671952	0.271842
670.875767	0.271596
671.079563	0.271844
671.283341	0.271981
671.487101	0.272319
671.690843	0.272790
671.894567	0.273044
672.098272	0.273254
672.301959	0.273310
672.505628	0.273719
672.709278	0.274270
672.912911	0.274416
673.116525	0.274703
673.320121	0.274840
673.523699	0.274925
673.727258	0.275259
673.930799	0.275435
674.134322	0.275530
674.337827	0.275666
674.541314	0.275993
674.744782	0.276467
674.948232	0.276665
675.151664	0.276812
675.355078	0.276997
675.558474	0.276766
675.761851	0.276887
675.965210	0.277297
676.168551	0.277754
676.371873	0.277606
676.575178	0.277389
676.778464	0.277617
676.981732	0.277931
677.184981	0.278281
677.388213	0.278832
677.591426	0.279101
677.794621	0.279206
677.997798	0.279350
678.200956	0.279654
678.404097	0.280030
678.607219	0.280282
678.810323	0.280441
679.013408	0.280718
679.216476	0.280885
679.419525	0.281207
679.622556	0.281522
679.825569	0.281728
680.028563	0.281817
680.231540	0.281851
680.434498	0.282098
680.637438	0.282514
680.840359	0.282787
681.043263	0.282923
681.246148	0.283200
681.449015	0.283351
681.651864	0.283385
681.854694	0.283650
682.057506	0.284078
682.260301	0.284221
682.463076	0.284168
682.665834	0.284282
682.868573	0.284560
683.071295	0.284585
683.273998	0.284602
683.476682	0.284622
683.679349	0.284873
683.881997	0.284967
684.084627	0.285221
684.287239	0.285535
684.489833	0.285465
684.692408	0.285600
684.894965	0.285749
685.097504	0.286093
685.300025	0.286304
685.502527	0.286443
685.705012	0.286570
685.907478	0.286667
686.109925	0.286809
686.312355	0.287079
686.514766	0.287171
686.717159	0.287470
686.919534	0.287651
687.121891	0.287848
687.324230	0.288084
687.526550	0.288155
687.728852	0.288327
687.931136	0.288422
688.133401	0.288688
688.335649	0.289000
688.537878	0.288930
688.740089	0.289134
688.942281	0.289527
689.144456	0.289600
689.346612	0.289907
689.548750	0.289916
689.750870	0.290151
689.952971	0.290262
690.155055	0.290278
690.357120	0.290604
690.559167	0.290588
690.761195	0.290545
690.963206	0.290697
691.165198	0.290852
691.367172	0.291054
691.569128	0.291171
691.771065	0.291411
691.972984	0.291568
692.174885	0.291847
692.376768	0.292231
692.578633	0.292359
692.780479	0.292471
692.982308	0.292630
693.184118	0.292754
693.385909	0.292727
693.587683	0.292863
693.789438	0.293358
693.991175	0.293370
694.192894	0.293256
694.394595	0.293423
694.596277	0.293623
694.797941	0.293650
694.999587	0.293733
695.201215	0.293805
695.402824	0.293728
695.604416	0.293320
695.805989	0.293328
696.007543	0.293174
696.209080	0.293156
696.410598	0.293177
696.612099	0.293177
696.813580	0.293329
697.015044	0.293403
697.216490	0.293367
697.417917	0.293638
697.619326	0.293449
697.820717	0.293798
698.022089	0.293875
698.223444	0.293898
698.424780	0.294118
698.626098	0.294313
698.827397	0.294423
699.028679	0.294861
699.229942	0.295031
699.431187	0.295171
699.632414	0.295382
699.833622	0.295535
700.034813	0.296025
700.235985	0.295961
700.437139	0.295768
700.638274	0.295984
700.839392	0.295989
701.040491	0.295912
701.241572	0.296184
701.442635	0.296305
701.643679	0.296703
701.844706	0.296519
702.045714	0.297022
702.246704	0.297288
702.447675	0.297390
702.648629	0.297594
702.849564	0.297738
703.050481	0.298059
703.251380	0.298195
703.452260	0.298299
703.653122	0.298448
703.853966	0.298327
704.054792	0.298449
704.255600	0.298477
704.456389	0.298436
704.657160	0.298643
704.857913	0.298704
705.058648	0.298638
705.259365	0.298568
705.460063	0.298378
705.660743	0.298283
705.861405	0.298237
706.062048	0.298445
706.262674	0.298498
706.463281	0.298108
706.663870	0.298026
706.864441	0.297934
707.064993	0.298059
707.265527	0.298306
707.466043	0.298450
707.666541	0.298461
707.867021	0.298628
708.067482	0.298493
708.267925	0.298710
708.468350	0.298782
708.668757	0.299199
708.869145	0.299156
709.069516	0.299182
709.269868	0.299351
709.470201	0.299482
709.670517	0.299482
709.870814	0.299531
710.071093	0.299657
710.271354	0.299696
710.471597	0.299533
710.671821	0.299503
710.872028	0.299302
711.072216	0.299487
711.272385	0.299575
711.472537	0.299089
711.672670	0.299066
711.872785	0.298904
712.072882	0.298640
712.272961	0.298245
712.473021	0.297983
712.673063	0.298138
712.873087	0.297751
713.073093	0.297594
713.273081	0.297490
713.473050	0.297457
713.673001	0.297486
713.872934	0.297450
714.072849	0.297956
714.272745	0.298321
714.472623	0.298060
714.672483	0.298051
714.872325	0.298000
715.072148	0.298200
715.271954	0.298093
715.471741	0.298095
715.671509	0.298008
715.871260	0.297715
716.070992	0.297260
716.270707	0.297266
716.470403	0.297161
716.670080	0.297166
716.869740	0.296986
717.069381	0.296963
717.269004	0.296976
717.468609	0.297136
717.668195	0.297084
717.867764	0.297242
718.067314	0.297262
718.266846	0.297036
718.466360	0.296788
718.665855	0.296597
718.865332	0.296582
719.064791	0.296255
719.264232	0.295751
719.463655	0.295586
719.663059	0.295270
719.862445	0.295129
720.061813	0.295169
720.261163	0.294912
720.460494	0.295059
720.659807	0.294870
720.859102	0.294756
721.058379	0.294946
721.257638	0.294881
721.456878	0.294780
721.656100	0.294901
721.855304	0.294907
722.054490	0.294791
722.253657	0.294652
722.452806	0.294374
722.651937	0.294543
722.851050	0.294538
723.050145	0.294483
723.249221	0.294703
723.448279	0.294492
723.647319	0.294236
723.846340	0.294511
724.045344	0.294344
724.244329	0.294401
724.443296	0.294339
724.642245	0.294230
724.841175	0.294288
725.040088	0.293869
725.238982	0.293763
725.437857	0.293677
725.636715	0.293690
725.835554	0.293837
726.034376	0.294150
726.233179	0.294130
726.431963	0.293973
726.630730	0.293912
726.829478	0.294048
727.028208	0.294282
727.226920	0.294452
727.425614	0.294361
727.624289	0.294023
727.822946	0.293574
728.021585	0.293339
728.220206	0.293413
728.418808	0.293165
728.617392	0.292910
728.815958	0.292291
729.014506	0.291804
729.213036	0.291485
729.411547	0.291555
729.610040	0.291451
729.808515	0.291181
730.006972	0.290831
730.205410	0.290711
730.403831	0.290570
730.602233	0.290498
730.800616	0.290599
730.998982	0.290387
731.197329	0.289982
731.395658	0.289679
731.593969	0.289509
731.792262	0.289340
731.990536	0.288952
732.188793	0.288779
732.387031	0.288476
732.585250	0.288027
732.783452	0.287754
732.981635	0.287596
733.179800	0.287379
733.377947	0.287154
733.576076	0.286871
733.774186	0.286795
733.972278	0.286456
734.170352	0.286270
734.368408	0.286131
734.566446	0.285957
734.764465	0.286039
734.962466	0.286051
735.160449	0.286050
735.358413	0.285982
735.556360	0.285794
735.754288	0.285836
735.952198	0.285601
736.150090	0.285403
736.347963	0.285193
736.545818	0.284658
736.743655	0.284346
736.941474	0.283747
737.139275	0.283575
737.337057	0.283146
737.534821	0.283085
737.732567	0.283170
737.930295	0.282855
738.128005	0.282792
738.325696	0.282673
738.523369	0.282431
738.721024	0.282250
738.918660	0.281893
739.116279	0.281956
739.313879	0.281578
739.511461	0.281007
739.709024	0.281194
739.906570	0.281051
740.104097	0.280919
740.301606	0.280795
740.499097	0.280780
740.696569	0.280741
740.894024	0.280752
741.091460	0.280650
741.288878	0.280617
741.486277	0.280352
741.683659	0.280195
741.881022	0.280123
742.078367	0.279981
742.275694	0.279904
742.473002	0.279577
742.670293	0.279224
742.867565	0.279020
743.064819	0.278828
743.262054	0.278760
743.459272	0.278283
743.656471	0.278206
743.853652	0.278016
744.050815	0.277722
744.247959	0.277586
744.445085	0.277104
744.642194	0.276846
744.839283	0.276697
745.036355	0.276429
745.233408	0.276347
745.430444	0.275760
745.627461	0.275749
745.824459	0.275764
746.021440	0.275786
746.218402	0.275621
746.415346	0.275468
746.612272	0.275109
746.809180	0.274838
747.006069	0.274444
747.202940	0.274529
747.399793	0.274221
747.596628	0.273881
747.793444	0.273674
747.990243	0.273726
748.187023	0.273344
748.383784	0.273266
748.580528	0.272892
748.777253	0.272921
748.973960	0.272710
749.170649	0.272648
749.367320	0.272393
749.563973	0.272305
749.760607	0.272115
749.957223	0.272197
750.153821	0.272273
750.350400	0.272171
750.546962	0.272148
750.743505	0.271918
750.940030	0.271611
751.136536	0.271698
751.333025	0.271263
751.529495	0.271147
751.725947	0.270823
751.922381	0.270731
752.118796	0.270823
752.315194	0.270563
752.511573	0.270597
752.707934	0.270359
752.904276	0.270018
753.100601	0.270044
753.296907	0.269788
753.493195	0.269531
753.689465	0.269214
753.885716	0.268952
754.081949	0.268817
754.278164	0.268440
754.474361	0.268439
754.670540	0.268367
754.866700	0.268237
755.062843	0.268110
755.258967	0.268206
755.455072	0.268013
755.651160	0.267832
755.847229	0.267845
756.043280	0.267866
756.239313	0.267546
756.435328	0.267606
756.631324	0.267132
756.827302	0.267055
757.023262	0.266750
757.219204	0.266699
757.415127	0.266761
757.611033	0.266432
757.806920	0.266320
758.002788	0.266197
758.198639	0.265665
758.394471	0.265728
758.590286	0.265443
758.786081	0.265370
758.981859	0.265267
759.177619	0.264933
759.373360	0.264628
759.569083	0.264268
759.764788	0.264173
759.960474	0.264273
760.156143	0.264241
760.351793	0.264194
760.547425	0.264066
760.743038	0.263936
760.938634	0.263743
761.134211	0.263820
761.329770	0.263647
761.525311	0.263548
761.720833	0.263246
761.916338	0.263105
762.111824	0.262748
762.307292	0.262554
762.502741	0.262301
762.698173	0.261998
762.893586	0.262032
763.088981	0.262053
763.284358	0.261899
763.479716	0.261660
763.675057	0.261249
763.870379	0.261266
764.065683	0.261091
764.260968	0.260967
764.456236	0.260942
764.651485	0.260584
764.846716	0.260452
765.041929	0.260385
765.237123	0.260363
765.432299	0.260489
765.627457	0.260376
765.822597	0.260449
766.017719	0.260327
766.212822	0.260299
766.407907	0.260133
766.602974	0.259871
766.798023	0.259882
766.993054	0.259944
767.188066	0.259858
767.383060	0.259485
767.578036	0.259311
767.772993	0.258922
767.967933	0.258684
768.162854	0.258615
768.357757	0.258865
768.552642	0.258678
768.747508	0.258363
768.942356	0.258142
769.137186	0.258453
769.331998	0.258259
769.526792	0.258501
769.721567	0.258761
769.916324	0.258469
770.111063	0.258200
770.305784	0.258282
770.500486	0.258373
770.695171	0.258455
770.889837	0.258144
771.084484	0.258112
771.279114	0.257990
771.473725	0.257506
771.668318	0.257952
771.862893	0.257841
772.057450	0.257559
772.251988	0.257248
772.446509	0.257050
772.641011	0.257253
772.835494	0.257196
773.029960	0.256994
773.224407	0.256986
773.418836	0.256793
773.613247	0.256986
773.807640	0.257010
774.002014	0.257383
774.196370	0.257269
774.390708	0.257115
774.585028	0.257094
774.779330	0.257206
774.973613	0.257624
775.167878	0.257426
775.362125	0.257216
775.556354	0.257164
775.750564	0.257081
775.944756	0.256933
776.138930	0.256801
776.333086	0.256807
776.527223	0.257079
776.721343	0.256925
776.915444	0.257028
777.109526	0.257009
777.303591	0.256880
777.497637	0.256892
777.691666	0.257250
777.885676	0.257418
778.079667	0.257564
778.273641	0.257458
778.467596	0.257510
778.661533	0.257629
778.855452	0.257805
779.049352	0.258089
779.243235	0.258138
779.437099	0.258300
779.630945	0.258417
779.824773	0.258263
780.018582	0.258499
780.212373	0.258672
780.406146	0.258593
780.599901	0.258436
780.793638	0.258397
780.987356	0.258625
781.181056	0.258304
781.374738	0.258336
781.568402	0.258485
781.762047	0.258305
781.955674	0.258190
782.149283	0.258054
782.342874	0.257926
782.536447	0.257879
782.730001	0.257853
782.923537	0.258134
783.117055	0.258274
783.310555	0.258089
783.504036	0.257970
783.697499	0.258016
783.890944	0.258385
784.084371	0.258774
784.277780	0.258833
784.471170	0.258609
784.664542	0.258619
784.857896	0.258515
785.051231	0.258841
785.244549	0.259115
785.437848	0.259209
785.631129	0.259206
785.824392	0.259134
786.017636	0.259230
786.210863	0.259428
786.404071	0.259400
786.597260	0.259563
786.790432	0.259497
786.983585	0.259645
787.176721	0.259895
787.369838	0.259863
787.562936	0.260154
787.756017	0.260380
787.949079	0.260548
788.142123	0.260963
788.335149	0.261350
788.528156	0.261702
788.721146	0.261912
788.914117	0.261898
789.107070	0.262252
789.300005	0.262476
789.492921	0.262762
789.685819	0.262725
789.878699	0.262579
790.071561	0.262632
790.264405	0.262805
790.457230	0.262656
790.650037	0.262779
790.842826	0.262819
791.035597	0.262839
791.228349	0.262795
791.421084	0.263100
791.613800	0.263324
791.806497	0.263482
791.999177	0.263660
792.191838	0.263879
792.384481	0.264055
792.577106	0.264421
792.769713	0.264569
792.962301	0.264628
793.154871	0.264690
793.347423	0.264965
793.539957	0.264912
793.732473	0.264952
793.924970	0.265125
794.117449	0.265315
794.309910	0.265264
794.502353	0.265270
794.694777	0.265430
794.887183	0.265564
795.079571	0.265785
795.271941	0.266211
795.464293	0.266433
795.656626	0.266752
795.848941	0.266823
796.041238	0.267175
796.233516	0.267767
796.425777	0.267929
796.618019	0.268290
796.810243	0.268314
797.002449	0.268177
797.194636	0.268249
797.386805	0.268224
797.578956	0.268268
797.771089	0.268380
797.963204	0.268389
798.155300	0.268930
798.347378	0.269024
798.539438	0.269078
798.731480	0.269382
798.923503	0.269912
799.115509	0.270239
799.307496	0.270740
799.499465	0.270865
799.691415	0.270954
799.883348	0.270793
800.075262	0.271261
800.267158	0.271836
800.459035	0.271925
800.650895	0.271854
800.842736	0.271802
801.034559	0.271795
801.226364	0.272015
801.418150	0.272150
801.609919	0.272335
801.801669	0.272464
801.993401	0.272378
802.185114	0.272769
802.376810	0.273001
802.568487	0.273349
802.760146	0.273771
802.951787	0.273989
803.143409	0.274482
803.335014	0.274593
803.526600	0.274919
803.718168	0.275646
803.909717	0.275849
804.101249	0.276359
804.292762	0.276794
804.484257	0.276909
804.675734	0.277262
804.867192	0.277331
805.058632	0.277789
805.250054	0.277846
805.441458	0.277762
805.632844	0.277856
805.824211	0.277652
806.015561	0.277815
806.206891	0.278154
806.398204	0.278179
806.589499	0.278565
806.780775	0.279016
806.972033	0.279212
807.163273	0.279510
807.354495	0.280160
807.545698	0.280733
807.736883	0.281051
807.928050	0.281181
808.119199	0.281694
808.310329	0.282015
808.501441	0.282344
808.692535	0.282448
808.883611	0.282618
809.074669	0.282832
809.265708	0.283157
809.456729	0.283313
809.647732	0.283833
809.838717	0.283998
810.029683	0.284360
810.220632	0.284859
810.411562	0.285544
810.602474	0.286299
810.793367	0.286569
810.984242	0.286990
811.175100	0.287792
811.365938	0.288034
811.556759	0.288571
811.747562	0.288432
811.938346	0.288424
812.129112	0.288905
812.319860	0.288963
812.510589	0.289523
812.701300	0.289701
812.891994	0.289814
813.082668	0.290186
813.273325	0.290589
813.463964	0.291480
813.654584	0.292335
813.845186	0.292637
814.035769	0.293105
814.226335	0.293066
814.416882	0.293451
814.607411	0.293790
814.797922	0.294218
814.988415	0.294475
815.178889	0.294752
815.369345	0.294533
815.559783	0.294669
815.750203	0.294970
815.940605	0.295448
816.130988	0.295986
816.321353	0.296397
816.511700	0.296992
816.702028	0.297503
816.892339	0.297938
817.082631	0.298161
817.272905	0.298586
817.463161	0.298637
817.653398	0.298787
817.843617	0.298973
818.033819	0.299271
818.224001	0.299562
818.414166	0.299684
818.604312	0.300128
818.794440	0.300932
818.984550	0.301537
819.174642	0.302309
819.364716	0.302758
819.554771	0.303193
819.744808	0.303360
819.934827	0.303380
820.124827	0.303727
820.314810	0.304015
820.504774	0.304229
820.694720	0.304319
820.884647	0.304509
821.074557	0.305035
821.264448	0.305449
821.454321	0.306303
821.644176	0.307074
821.834012	0.307318
822.023831	0.307670
822.213631	0.308314
822.403413	0.308905
822.593176	0.309289
822.782922	0.309994
822.972649	0.310448
823.162358	0.310662
823.352049	0.311053
823.541721	0.312046
823.731376	0.312826
823.921012	0.313292
824.110629	0.313722
824.300229	0.314613
824.489811	0.314817
824.679374	0.315204
824.868919	0.315639
825.058445	0.315898
825.247954	0.316102
825.437444	0.316121
825.626916	0.316290
825.816370	0.316635
826.005806	0.316868
826.195223	0.317414
826.384622	0.318044
826.574003	0.318420
826.763366	0.318918
826.952711	0.319172
827.142037	0.319497
827.331345	0.320165
827.520635	0.320873
827.709906	0.321111
827.899160	0.321587
828.088395	0.321845
828.277612	0.322734
828.466810	0.323339
828.655991	0.324150
828.845153	0.324917
829.034297	0.325505
829.223423	0.325983
829.412531	0.326710
829.601620	0.327162
829.790691	0.327796
829.979744	0.327985
830.168779	0.328396
830.357795	0.328675
830.546793	0.329022
830.735773	0.329399
830.924735	0.329917
831.113679	0.330303
831.302604	0.330691
831.491511	0.330969
831.680400	0.331424
831.869271	0.331927
832.058123	0.332684
832.246957	0.333266
832.435773	0.333500
832.624571	0.333712
832.813351	0.334170
833.002112	0.334693
833.190855	0.334981
833.379580	0.335110
833.568287	0.335649
833.756975	0.335815
833.945645	0.336126
834.134297	0.336786
834.322931	0.336988
834.511547	0.337596
834.700144	0.338123
834.888723	0.338790
835.077284	0.339431
835.265826	0.339663
835.454351	0.340239
835.642857	0.340824
835.831345	0.341633
836.019815	0.342507
836.208266	0.342770
836.396699	0.343443
836.585114	0.344472
836.773511	0.345084
836.961890	0.345629
837.150250	0.346364
837.338592	0.347006
837.526916	0.347274
837.715222	0.347942
837.903510	0.348525
838.091779	0.348727
838.280030	0.348976
838.468263	0.349595
838.656477	0.350480
838.844674	0.350861
839.032852	0.351411
839.221012	0.351713
839.409153	0.352053
839.597277	0.352788
839.785382	0.353281
839.973469	0.353715
840.161538	0.354194
840.349589	0.354348
840.537621	0.355074
840.725635	0.355440
840.913631	0.355863
841.101609	0.356541
841.289568	0.356728
841.477509	0.357116
841.665432	0.357611
841.853337	0.358020
842.041224	0.358600
842.229092	0.358562
842.416942	0.359087
842.604774	0.359837
842.792588	0.360332
842.980383	0.360944
843.168160	0.361655
843.355919	0.362128
843.543660	0.362679
843.731382	0.363255
843.919087	0.363985
844.106773	0.364401
844.294441	0.364823
844.482090	0.364812
844.669722	0.365189
844.857335	0.365673
845.044930	0.366036
845.232507	0.366338
845.420065	0.366461
845.607605	0.366808
845.795127	0.367250
845.982631	0.367771
846.170117	0.368652
846.357584	0.369278
846.545033	0.369815
846.732464	0.370231
846.919877	0.370890
847.107272	0.371593
847.294648	0.372321
847.482006	0.373055
847.669346	0.373464
847.856667	0.373805
848.043971	0.374620
848.231256	0.375014
848.418523	0.375480
848.605771	0.376186
848.793002	0.376942
848.980214	0.377418
849.167408	0.377887
849.354584	0.378829
849.541742	0.379277
849.728881	0.379669
849.916002	0.380043
850.103105	0.380953
850.290190	0.381326
850.477256	0.381782
850.664304	0.382107
850.851334	0.382648
851.038346	0.382789
851.225340	0.383255
851.412315	0.383585
851.599272	0.384193
851.786211	0.384611
851.973132	0.385301
852.160034	0.385574
852.346918	0.386150
852.533784	0.386374
852.720632	0.386549
852.907462	0.387206
853.094273	0.387594
853.281066	0.388175
853.467841	0.388594
853.654598	0.389072
853.841336	0.389506
854.028056	0.389813
854.214758	0.390256
854.401442	0.390943
854.588107	0.391312
854.774755	0.391856
854.961384	0.392311
855.147995	0.392616
855.334587	0.393297
855.521162	0.393850
855.707718	0.394644
855.894256	0.395297
856.080775	0.395949
856.267277	0.396459
856.453760	0.396716
856.640225	0.397268
856.826672	0.398103
857.013101	0.398157
857.199511	0.398715
857.385903	0.399207
857.572277	0.399713
857.758633	0.400012
857.944970	0.400517
858.131290	0.401457
858.317591	0.402088
858.503873	0.402307
858.690138	0.403086
858.876384	0.403612
859.062612	0.403859
859.248822	0.403761
859.435014	0.404351
859.621188	0.404848
859.807343	0.404992
859.993480	0.405090
860.179599	0.405836
860.365699	0.406330
860.551781	0.406957
860.737846	0.407114
860.923891	0.408091
861.109919	0.408377
861.295929	0.408411
861.481920	0.408768
861.667893	0.409183
861.853848	0.409172
862.039784	0.409211
862.225702	0.409238
862.411603	0.409830
862.597484	0.410391
862.783348	0.410430
862.969193	0.411093
863.155021	0.411639
863.340830	0.411746
863.526620	0.412032
863.712393	0.412576
863.898147	0.412770
864.083883	0.413746
864.269601	0.413834
864.455301	0.414524
864.640982	0.414528
864.826645	0.414412
865.012290	0.414853
865.197917	0.415190
865.383526	0.415271
865.569116	0.416172
865.754688	0.416439
865.940242	0.416954
866.125777	0.417347
866.311295	0.418061
866.496794	0.418771
866.682275	0.419346
866.867737	0.419902
867.053182	0.420344
867.238608	0.420470
867.424016	0.420803
867.609406	0.421116
867.794778	0.421283
867.980131	0.421667
868.165466	0.421912
868.350783	0.422186
868.536082	0.422582
868.721362	0.422908
868.906625	0.423294
869.091869	0.423411
869.277094	0.423648
869.462302	0.424620
869.647491	0.425250
869.832662	0.425590
870.017815	0.426214
870.202950	0.426786
870.388066	0.427451
870.573165	0.427564
870.758245	0.427816
870.943306	0.428346
871.128350	0.428393
871.313375	0.428900
871.498382	0.429736
871.683371	0.430249
871.868342	0.430406
872.053294	0.430455
872.238229	0.431078
872.423144	0.431708
872.608042	0.432145
872.792922	0.432743
872.977783	0.432656
873.162626	0.432855
873.347451	0.433196
873.532258	0.433165
873.717046	0.433267
873.901816	0.433561
874.086568	0.433766
874.271302	0.433448
874.456017	0.433560
874.640715	0.433990
874.825394	0.434142
875.010055	0.434158
875.194697	0.434114
875.379322	0.434354
875.563928	0.434795
875.748516	0.434762
875.933085	0.435157
876.117637	0.435492
876.302170	0.435745
876.486685	0.436200
876.671182	0.436588
876.855661	0.437529
877.040121	0.437881
877.224563	0.437988
877.408987	0.438269
877.593393	0.438708
877.777780	0.438610
877.962150	0.438831
878.146501	0.438742
878.330833	0.438988
878.515148	0.439107
878.699444	0.439409
878.883722	0.439858
879.067982	0.440044
879.252224	0.440538
879.436447	0.440968
879.620653	0.441732
879.804840	0.442219
879.989008	0.442177
880.173159	0.442643
880.357291	0.442906
880.541405	0.442908
880.725501	0.443288
880.909579	0.442812
881.093638	0.442801
881.277680	0.442017
881.461703	0.441933
881.645707	0.442542
881.829694	0.442356
882.013662	0.442703
882.197612	0.443176
882.381544	0.443299
882.565458	0.443836
882.749353	0.443451
882.933230	0.443416
883.117089	0.443500
883.300930	0.443377
883.484753	0.443465
883.668557	0.443300
883.852343	0.442716
884.036111	0.442897
884.219861	0.443159
884.403592	0.443536
884.587305	0.443958
884.771000	0.444168
884.954677	0.443657
885.138335	0.443484
885.321976	0.443586
885.505598	0.443541
885.689201	0.443543
885.872787	0.442891
886.056354	0.443179
886.239904	0.443364
886.423434	0.443157
886.606947	0.444004
886.790442	0.444405
886.973918	0.444236
887.157376	0.443913
887.340816	0.443513
887.524237	0.443661
887.707641	0.443562
887.891026	0.443633
888.074393	0.443576
888.257741	0.442462
888.441072	0.442149
888.624384	0.442243
888.807678	0.442410
888.990954	0.442618
889.174211	0.443249
889.357451	0.443365
889.540672	0.443251
889.723875	0.443358
889.907059	0.444202
890.090226	0.444650
890.273374	0.444934
890.456504	0.445127
890.639616	0.445121
890.822709	0.444310
891.005785	0.445036
891.188842	0.444752
891.371881	0.444829
891.554901	0.444644
891.737904	0.444254
891.920888	0.444121
892.103854	0.444381
892.286802	0.443840
892.469731	0.444312
892.652643	0.443567
892.835536	0.443912
893.018410	0.443897
893.201267	0.443567
893.384106	0.443351
893.566926	0.443206
893.749728	0.442856
893.932511	0.443261
894.115277	0.442830
894.298024	0.442501
894.480753	0.442303
894.663464	0.441533
894.846157	0.441301
895.028831	0.441090
895.211487	0.440851
895.394125	0.440894
895.576745	0.440779
895.759346	0.441375
895.941930	0.440913
896.124495	0.440721
896.307041	0.441181
896.489570	0.441953
896.672080	0.441915
896.854573	0.441625
897.037046	0.441586
897.219502	0.441292
897.401940	0.440391
897.584359	0.440609
897.766760	0.440380
897.949143	0.439193
898.131507	0.438453
898.313854	0.438426
898.496182	0.437923
898.678492	0.437591
898.860783	0.437256
899.043057	0.437167
899.225312	0.436222
899.407549	0.435798
899.589768	0.436209
899.771968	0.435985
899.954151	0.435649
900.136315	0.435378
900.318461	0.434430
900.500588	0.434394
900.682698	0.434641
900.864789	0.434705
901.046862	0.434199
901.228917	0.433881
901.410953	0.433128
901.592971	0.432625
901.774972	0.432555
901.956953	0.432370
902.138917	0.431377
902.320862	0.429846
902.502790	0.430079
902.684699	0.429454
902.866589	0.429500
903.048462	0.429486
903.230316	0.429419
903.412152	0.428948
903.593970	0.428890
903.775770	0.428838
903.957551	0.429034
904.139314	0.427991
904.321059	0.428104
904.502786	0.427358
904.684494	0.426592
904.866185	0.426136
905.047857	0.425918
905.229510	0.425551
905.411146	0.425399
905.592763	0.425246
905.774363	0.425386
905.955943	0.425431
906.137506	0.424867
906.319051	0.424795
906.500577	0.424314
906.682085	0.424168
906.863575	0.423654
907.045046	0.423077
907.226500	0.422327
907.407935	0.421573
907.589352	0.420607
907.770750	0.420538
907.952131	0.420287
908.133493	0.419596
908.314837	0.419117
908.496163	0.418319
908.677470	0.418221
908.858760	0.417952
909.040031	0.417852
909.221284	0.417358
909.402518	0.416725
909.583735	0.415818
909.764933	0.415671
909.946113	0.415179
910.127275	0.415081
910.308418	0.413229
910.489544	0.412582
910.670651	0.411458
910.851740	0.410842
911.032810	0.410260
911.213863	0.409989
911.394897	0.408992
911.575913	0.408104
911.756911	0.407358
911.937890	0.408020
912.118851	0.407657
912.299794	0.407909
912.480719	0.407735
912.661626	0.407834
912.842514	0.407416
913.023384	0.407157
913.204236	0.407336
913.385070	0.407131
913.565886	0.406318
913.746683	0.405548
913.927462	0.404413
914.108223	0.403696
914.288965	0.402819
914.469690	0.402171
914.650396	0.401723
914.831084	0.400363
915.011754	0.399484
915.192405	0.398808
915.373038	0.398021
915.553653	0.397451
915.734250	0.396257
915.914829	0.395397
916.095389	0.394479
916.275931	0.394173
916.456455	0.394064
916.636961	0.393535
916.817448	0.393028
916.997917	0.392597
917.178368	0.392430
917.358801	0.392649
917.539216	0.391563
917.719612	0.390835
917.899990	0.389439
918.080350	0.388179
918.260692	0.386858
918.441015	0.386085
918.621320	0.384810
918.801607	0.383453
918.981876	0.382359
919.162127	0.381560
919.342359	0.380781
919.522573	0.379847
919.702769	0.378991
919.882947	0.377990
920.063106	0.377545
920.243247	0.377070
920.423370	0.376054
920.603475	0.374219
920.783562	0.373598
920.963630	0.373159
921.143680	0.373017
921.323712	0.372467
921.503725	0.372075
921.683721	0.370925
921.863698	0.370634
922.043657	0.370281
922.223598	0.370111
922.403520	0.369866
922.583424	0.369073
922.763311	0.368126
922.943178	0.367495
923.123028	0.367373
923.302859	0.366743
923.482673	0.364911
923.662467	0.363828
923.842244	0.363088
924.022003	0.361826
924.201743	0.360448
924.381465	0.358860
924.561169	0.357639
924.740854	0.356660
924.920522	0.355367
925.100171	0.355332
925.279802	0.354911
925.459414	0.354660
925.639009	0.353531
925.818585	0.352677
925.998143	0.352603
926.177683	0.351490
926.357205	0.350369
926.536708	0.350204
926.716193	0.349487
926.895660	0.348757
927.075109	0.347711
927.254539	0.347511
927.433951	0.346861
927.613345	0.345525
927.792721	0.344430
927.972079	0.343345
928.151418	0.341996
928.330739	0.340587
928.510042	0.339120
928.689327	0.336605
928.868593	0.335343
929.047841	0.333255
929.227071	0.332121
929.406283	0.331505
929.585476	0.330160
929.764652	0.328648
929.943809	0.328378
930.122948	0.326893
930.302068	0.327309
930.481171	0.326783
930.660255	0.327571
930.839321	0.326678
931.018369	0.326682
931.197398	0.326027
931.376409	0.325149
931.555402	0.323055
931.734377	0.323373
931.913334	0.322355
932.092272	0.321155
932.271192	0.320014
932.450094	0.319001
932.628978	0.317441
932.807844	0.316599
932.986691	0.315172
933.165520	0.314877
933.344331	0.313169
933.523123	0.311658
933.701898	0.309825
933.880654	0.308501
934.059392	0.308003
934.238111	0.306547
934.416813	0.305354
934.595496	0.305279
934.774161	0.303777
934.952808	0.302556
935.131437	0.302182
935.310047	0.300523
935.488639	0.298910
935.667213	0.297965
935.845769	0.297560
936.024306	0.297776
936.202825	0.297014
936.381326	0.295254
936.559809	0.294307
936.738274	0.292349
936.916720	0.291611
937.095148	0.290698
937.273558	0.290057
937.451950	0.288302
937.630323	0.287455
937.808678	0.285696
937.987015	0.286093
938.165334	0.285073
938.343635	0.284471
938.521917	0.285144
938.700181	0.284596
938.878427	0.283022
939.056655	0.282331
939.234864	0.279321
939.413055	0.278312
939.591228	0.276492
939.769383	0.274515
939.947519	0.273702
940.125638	0.271975
940.303738	0.268538
940.481820	0.267023
940.659883	0.264980
940.837929	0.264104
941.015956	0.261730
941.193965	0.260604
941.371955	0.260765
941.549928	0.258603
941.727882	0.257109
941.905818	0.257849
942.083736	0.256668
942.261636	0.256574
942.439517	0.256027
942.617380	0.256970
942.795225	0.256511
942.973052	0.254857
943.150860	0.254603
943.328651	0.253767
943.506423	0.253567
943.684176	0.252104
943.861912	0.250563
944.039629	0.248539
944.217328	0.245871
944.395009	0.244624
944.572672	0.242403
944.750317	0.241112
944.927943	0.238871
945.105551	0.236476
945.283141	0.235266
945.460712	0.234021
945.638265	0.232085
945.815801	0.231884
945.993317	0.230871
946.170816	0.230721
946.348297	0.229641
946.525759	0.229044
946.703203	0.226201
946.880629	0.225122
947.058036	0.222266
947.235425	0.222832
947.412797	0.222274
947.590149	0.220051
947.767484	0.217877
947.944800	0.216172
948.122099	0.214157
948.299379	0.214706
948.476640	0.212682
948.653884	0.211681
948.831109	0.210070
949.008316	0.207922
949.185505	0.207153
949.362676	0.208014
949.539828	0.207447
949.716962	0.206496
949.894078	0.204832
950.071176	0.203073
950.248256	0.202731
950.425317	0.199633
950.602360	0.198543
950.779385	0.195588
950.956391	0.193421
951.133380	0.191593
951.310350	0.190908
951.487302	0.190733
951.664235	0.190345
951.841151	0.188397
952.018048	0.188961
952.194927	0.187027
952.371788	0.184827
952.548631	0.184401
952.725455	0.182293
952.902261	0.181697
953.079049	0.180078
953.255819	0.179309
953.432570	0.181549
953.609303	0.181085
953.786018	0.180242
953.962715	0.182038
954.139394	0.178550
954.316054	0.177671
954.492696	0.176814
954.669320	0.175644
954.845926	0.174299
955.022513	0.172534
955.199083	0.171798
955.375634	0.170263
955.552166	0.169822
955.728681	0.171395
955.905177	0.169922
956.081655	0.167556
956.258115	0.167003
956.434557	0.165389
956.610980	0.163057
956.787385	0.161512
956.963772	0.162559
957.140141	0.159398
957.316492	0.157884
957.492824	0.158230
957.669138	0.157266
957.845434	0.157414
958.021712	0.156752
958.197971	0.156406
958.374212	0.156272
958.550435	0.154515
958.726640	0.157446
958.902826	0.155714
959.078995	0.156348
959.255145	0.155462
959.431277	0.152366
959.607390	0.153157
959.783486	0.152715
959.959563	0.149483
960.135622	0.148290
960.311662	0.143520
960.487685	0.141777
960.663689	0.139925
960.839675	0.139997
961.015643	0.141594
961.191593	0.140517
961.367524	0.141354
961.543437	0.142701
961.719332	0.142436
961.895209	0.142691
962.071067	0.143148
962.246907	0.144893
962.422730	0.146014
962.598533	0.145799
962.774319	0.144086
962.950086	0.141426
963.125835	0.138881
963.301566	0.137799
963.477279	0.138129
963.652973	0.138282
963.828650	0.136465
964.004308	0.134321
964.179947	0.130313
964.355569	0.129017
964.531172	0.128448
964.706757	0.129825
964.882324	0.128676
965.057873	0.126260
965.233403	0.126747
965.408916	0.125973
965.584410	0.123881
965.759885	0.127236
965.935343	0.130529
966.110782	0.127582
966.286203	0.126770
966.461606	0.125969
966.636991	0.125642
966.812357	0.125378
966.987705	0.125233
967.163035	0.127560
967.338347	0.126860
967.513641	0.123366
967.688916	0.127983
967.864173	0.129230
968.039412	0.130539
968.214632	0.133980
968.389835	0.134414
968.565019	0.133761
968.740185	0.132802
968.915333	0.131562
969.090462	0.133568
969.265573	0.131484
969.440667	0.131540
969.615741	0.131498
969.790798	0.131949
969.965836	0.131557
970.140856	0.133226
970.315858	0.135263
970.490842	0.135392
970.665808	0.135649
970.840755	0.134467
971.015684	0.132598
971.190595	0.132727
971.365487	0.132221
971.540362	0.130461
971.715218	0.131580
971.890056	0.131381
972.064875	0.131660
972.239677	0.131045
972.414460	0.134191
972.589225	0.133818
972.763972	0.131904
972.938700	0.130250
973.113411	0.132751
973.288103	0.128619
973.462777	0.129197
973.637432	0.128054
973.812070	0.129108
973.986689	0.125818
974.161290	0.127088
974.335873	0.128864
974.510437	0.129118
974.684984	0.127449
974.859512	0.128509
975.034022	0.125776
975.208513	0.125995
975.382987	0.127067
975.557442	0.128388
975.731879	0.128984
975.906298	0.127379
976.080698	0.129231
976.255080	0.131467
976.429445	0.130577
976.603790	0.132762
976.778118	0.133989
976.952427	0.134353
977.126719	0.134760
977.300992	0.133656
977.475246	0.136709
977.649483	0.134378
977.823701	0.130432
977.997901	0.132512
978.172083	0.132500
978.346247	0.131668
978.520392	0.129099
978.694519	0.125995
978.868628	0.126884
979.042719	0.127921
979.216791	0.129272
979.390845	0.130883
979.564882	0.130060
979.738899	0.130249
979.912899	0.129162
980.086880	0.130711
980.260843	0.133287
980.434788	0.134346
980.608715	0.132175
980.782623	0.131560
980.956514	0.132455
981.130386	0.133378
981.304240	0.133273
981.478075	0.135091
981.651892	0.133418
981.825692	0.134562
981.999472	0.130461
982.173235	0.130905
982.346980	0.131401
982.520706	0.130177
982.694414	0.130181
982.868104	0.130252
983.041775	0.129418
983.215428	0.131632
983.389064	0.129123
983.562680	0.131750
983.736279	0.132026
983.909860	0.131524
984.083422	0.133101
984.256966	0.131410
984.430491	0.131660
984.603999	0.133798
984.777488	0.131436
984.950959	0.132390
985.124412	0.133514
985.297847	0.134133
985.471263	0.134125
985.644661	0.131203
985.818041	0.131558
985.991403	0.130527
986.164747	0.128889
986.338072	0.128257
986.511379	0.129247
986.684668	0.129250
986.857938	0.128395
987.031191	0.127691
987.204425	0.128856
987.377641	0.128199
987.550839	0.127291
987.724018	0.127496
987.897179	0.128428
988.070322	0.128072
988.243447	0.126479
988.416554	0.126266
988.589642	0.127084
988.762712	0.125869
988.935764	0.127394
989.108798	0.128483
989.281813	0.129243
989.454811	0.128844
989.627790	0.130646
989.800751	0.131461
989.973693	0.130845
990.146617	0.130292
990.319524	0.131362
990.492412	0.131073
990.665281	0.132353
990.838133	0.133026
991.010966	0.134560
991.183781	0.132446
991.356578	0.132410
991.529356	0.134487
991.702117	0.135388
991.874859	0.134432
992.047583	0.134759
992.220288	0.132496
992.392976	0.130129
992.565645	0.132003
992.738296	0.131768
992.910929	0.132323
993.083543	0.132224
993.256139	0.131679
993.428718	0.133105
993.601277	0.131022
993.773819	0.133481
993.946342	0.135157
994.118848	0.131384
994.291335	0.132017
994.463803	0.130389
994.636254	0.129998
994.808686	0.131493
994.981100	0.133059
995.153496	0.134995
995.325874	0.132461
995.498233	0.131841
995.670574	0.133427
995.842897	0.132142
996.015202	0.131882
996.187488	0.130958
996.359757	0.128725
996.532007	0.127274
996.704239	0.127246
996.876452	0.128269
997.048648	0.129754
997.220825	0.128508
997.392984	0.129066
997.565124	0.130897
997.737247	0.130365
997.909351	0.131395
998.081437	0.131991
998.253505	0.133276
998.425554	0.133476
998.597586	0.131451
998.769599	0.132383
998.941594	0.133041
999.113571	0.132004
999.285529	0.132231
999.457469	0.131166
999.629391	0.131339
999.801295	0.131169
999.973181	0.130653
1000.145048	0.130961
1000.316897	0.130211
1000.488728	0.130944
1000.660541	0.131384
1000.832335	0.131556
1001.004111	0.134328
1001.175869	0.134751
1001.347609	0.133419
1001.519331	0.134330
1001.691034	0.133802
1001.862719	0.134731
1002.034386	0.133133
1002.206035	0.134014
1002.377665	0.133604
1002.549277	0.130599
1002.720871	0.128349
1002.892447	0.127586
1003.064004	0.126415
1003.235544	0.127590
1003.407065	0.125574
1003.578568	0.124998
1003.750052	0.123652
1003.921519	0.123079
1004.092967	0.124133
1004.264397	0.124218
1004.435809	0.124083
1004.607202	0.125959
1004.778577	0.122443
1004.949934	0.123907
1005.121273	0.124620
1005.292594	0.124611
1005.463896	0.126931
1005.635180	0.127138
1005.806446	0.128100
1005.977694	0.130910
1006.148923	0.127411
1006.320135	0.130111
1006.491328	0.130540
1006.662503	0.129874
1006.833659	0.131285
1007.004798	0.129180
1007.175918	0.128762
1007.347020	0.128362
1007.518103	0.126778
1007.689169	0.127591
1007.860216	0.128795
1008.031245	0.129104
1008.202256	0.131398
1008.373248	0.130321
1008.544223	0.129896
1008.715179	0.130777
1008.886117	0.131331
1009.057036	0.131474
1009.227938	0.131543
1009.398821	0.130739
1009.569686	0.130324
1009.740533	0.127663
1009.911361	0.127449
1010.082172	0.129075
1010.252964	0.128983
1010.423738	0.128022
1010.594493	0.129142
1010.765231	0.131091
1010.935950	0.128765
1011.106651	0.127610
1011.277334	0.129225
1011.447998	0.130031
1011.618645	0.129208
1011.789273	0.127614
1011.959882	0.128233
1012.130474	0.126471
1012.301048	0.126636
1012.471603	0.129008
1012.642140	0.130169
1012.812658	0.131323
1012.983159	0.130508
1013.153641	0.130726
1013.324105	0.133005
1013.494551	0.132355
1013.664979	0.132213
1013.835388	0.132506
1014.005779	0.130421
1014.176152	0.131485
1014.346507	0.128944
1014.516843	0.130391
1014.687162	0.129919
1014.857462	0.127596
1015.027744	0.128207
1015.198007	0.127965
1015.368252	0.124674
1015.538480	0.126162
1015.708689	0.125064
1015.878879	0.125790
1016.049052	0.123482
1016.219206	0.122720
1016.389342	0.120835
1016.559460	0.119316
1016.729559	0.118827
1016.899641	0.118811
1017.069704	0.121150
1017.239749	0.121257
1017.409775	0.121644
1017.579784	0.122838
1017.749774	0.122512
1017.919746	0.125966
1018.089700	0.126645
1018.259635	0.128204
1018.429553	0.129872
1018.599452	0.127972
1018.769333	0.127281
1018.939195	0.127581
1019.109040	0.127956
1019.278866	0.128749
1019.448674	0.128194
1019.618464	0.130701
1019.788235	0.130098
1019.957989	0.131162
1020.127724	0.129099
1020.297441	0.129405
1020.467139	0.128201
1020.636820	0.126987
1020.806482	0.128262
1020.976126	0.128316
1021.145752	0.127348
1021.315359	0.127844
1021.484948	0.127866
1021.654519	0.129408
1021.824072	0.130350
1021.993607	0.131821
1022.163123	0.130912
1022.332621	0.128043
1022.502101	0.128773
1022.671563	0.126873
1022.841007	0.126957
1023.010432	0.124613
1023.179839	0.123968
1023.349228	0.122903
1023.518598	0.122403
1023.687951	0.124762
1023.857285	0.125525
1024.026601	0.123633
1024.195899	0.124596
1024.365178	0.123905
1024.534439	0.124465
1024.703682	0.125264
1024.872907	0.126311
1025.042114	0.126187
1025.211302	0.124749
1025.380472	0.127755
1025.549624	0.128630
1025.718758	0.128056
1025.887873	0.128406
1026.056970	0.129820
1026.226049	0.129550
1026.395110	0.128174
1026.564153	0.126506
1026.733177	0.127919
1026.902183	0.126111
1027.071171	0.125997
1027.240141	0.124735
1027.409092	0.125043
1027.578026	0.124665
1027.746940	0.122604
1027.915837	0.122237
1028.084716	0.124140
1028.253576	0.121301
1028.422418	0.122856
1028.591242	0.121752
1028.760048	0.123367
1028.928835	0.122621
1029.097604	0.122931
1029.266355	0.124808
1029.435088	0.124760
1029.603803	0.125130
1029.772499	0.124290
1029.941177	0.123349
1030.109837	0.126458
1030.278478	0.126427
1030.447102	0.127493
1030.615707	0.127413
1030.784294	0.129202
1030.952863	0.132406
1031.121413	0.133399
1031.289945	0.135826
1031.458460	0.135342
1031.626955	0.134616
1031.795433	0.134619
1031.963892	0.134817
1032.132334	0.134362
1032.300756	0.133852
1032.469161	0.132385
1032.637548	0.131004
1032.805916	0.130576
1032.974266	0.129159
1033.142598	0.128048
1033.310911	0.127739
1033.479207	0.126492
1033.647484	0.125546
1033.815743	0.126193
1033.983983	0.124941
1034.152206	0.125903
1034.320410	0.123619
1034.488596	0.123643
1034.656764	0.122526
1034.824914	0.122721
1034.993045	0.123182
1035.161158	0.123692
1035.329253	0.123618
1035.497330	0.122701
1035.665388	0.121043
1035.833428	0.123221
1036.001450	0.123722
1036.169454	0.123867
1036.337440	0.124362
1036.505407	0.122746
1036.673356	0.121366
1036.841287	0.119636
1037.009200	0.120956
1037.177094	0.121357
1037.344970	0.120850
1037.512828	0.121193
1037.680668	0.122194
1037.848489	0.122165
1038.016293	0.122878
1038.184078	0.122468
1038.351845	0.121260
1038.519593	0.121797
1038.687324	0.119770
1038.855036	0.120139
1039.022730	0.120652
1039.190406	0.121670
1039.358063	0.122020
1039.525702	0.122639
1039.693323	0.124465
1039.860926	0.125091
1040.028511	0.125034
1040.196077	0.125636
1040.363625	0.127177
1040.531155	0.125977
1040.698667	0.123967
1040.866161	0.122787
1041.033636	0.123010
1041.201093	0.121856
1041.368532	0.122575
1041.535952	0.121595
1041.703355	0.123268
1041.870739	0.124207
1042.038105	0.125637
1042.205452	0.125677
1042.372782	0.127593
1042.540093	0.128008
1042.707386	0.127326
1042.874661	0.126700
1043.041918	0.129914
1043.209156	0.131081
1043.376376	0.128186
1043.543578	0.126815
1043.710762	0.127511
1043.877927	0.125925
1044.045074	0.124467
1044.212203	0.125252
1044.379314	0.125186
1044.546407	0.123090
1044.713481	0.120922
1044.880537	0.121593
1045.047575	0.123990
1045.214595	0.125145
1045.381596	0.125292
1045.548579	0.125679
1045.715544	0.126495
1045.882491	0.128127
1046.049420	0.127112
1046.216330	0.128453
1046.383222	0.129950
1046.550096	0.129507
1046.716951	0.130063
1046.883789	0.131446
1047.050608	0.132217
1047.217409	0.132365
1047.384192	0.133639
1047.550956	0.132671
1047.717703	0.131404
1047.884431	0.130496
1048.051140	0.129223
1048.217832	0.128569
1048.384505	0.129039
1048.551161	0.129986
1048.717798	0.130427
1048.884416	0.127467
1049.051017	0.130749
1049.217599	0.131690
1049.384163	0.131723
1049.550709	0.132007
1049.717237	0.131174
1049.883746	0.129114
1050.050237	0.126150
1050.216710	0.125459
1050.383165	0.126963
1050.549601	0.125547
1050.716019	0.125134
1050.882420	0.124554
1051.048801	0.125017
1051.215165	0.124827
1051.381510	0.126908
1051.547837	0.129209
1051.714146	0.132102
1051.880437	0.129847
1052.046709	0.128989
1052.212964	0.129088
1052.379200	0.131473
1052.545417	0.134080
1052.711617	0.133131
1052.877798	0.131645
1053.043961	0.130755
1053.210106	0.128322
1053.376233	0.130756
1053.542341	0.130349
1053.708432	0.131966
1053.874504	0.131467
1054.040557	0.127769
1054.206593	0.128892
1054.372610	0.128731
1054.538609	0.130717
1054.704590	0.130161
1054.870553	0.128594
1055.036497	0.129133
1055.202424	0.127565
1055.368331	0.125766
1055.534221	0.128425
1055.700093	0.128167
1055.865946	0.129151
1056.031781	0.127439
1056.197598	0.129078
1056.363397	0.130007
1056.529177	0.131650
1056.694939	0.129773
1056.860683	0.131498
1057.026409	0.129574
1057.192116	0.129557
1057.357806	0.128258
1057.523477	0.129696
1057.689130	0.130216
1057.854764	0.130603
1058.020381	0.130205
1058.185979	0.131874
1058.351559	0.132947
1058.517120	0.135163
1058.682664	0.136147
1058.848189	0.137411
1059.013696	0.136153
1059.179185	0.135314
1059.344656	0.137671
1059.510108	0.138869
1059.675542	0.139383
1059.840958	0.136890
1060.006356	0.134677
1060.171735	0.132769
1060.337096	0.131191
1060.502439	0.132387
1060.667764	0.131430
1060.833071	0.127111
1060.998359	0.126982
1061.163629	0.127260
1061.328881	0.127731
1061.494115	0.128199
1061.659330	0.130549
1061.824527	0.130274
1061.989706	0.127027
1062.154867	0.127114
1062.320010	0.127512
1062.485134	0.126386
1062.650240	0.124939
1062.815328	0.126031
1062.980398	0.126360
1063.145449	0.125344
1063.310482	0.128015
1063.475497	0.130280
1063.640494	0.132099
1063.805473	0.132628
1063.970433	0.129562
1064.135375	0.130837
1064.300299	0.129288
1064.465204	0.130322
1064.630092	0.129525
1064.794961	0.129668
1064.959812	0.129912
1065.124645	0.129813
1065.289459	0.130053
1065.454256	0.133560
1065.619034	0.134329
1065.783793	0.135609
1065.948535	0.133124
1066.113258	0.138309
1066.277964	0.136525
1066.442651	0.137312
1066.607319	0.136833
1066.771970	0.137941
1066.936602	0.135479
1067.101216	0.135706
1067.265812	0.134697
1067.430389	0.136354
1067.594949	0.132591
1067.759490	0.134059
1067.924013	0.135407
1068.088518	0.136292
1068.253004	0.135097
1068.417472	0.135800
1068.581922	0.134932
1068.746354	0.131914
1068.910768	0.133057
1069.075163	0.132156
1069.239540	0.130958
1069.403899	0.127361
1069.568240	0.126859
1069.732562	0.128927
1069.896866	0.130775
1070.061152	0.132086
1070.225420	0.136715
1070.389670	0.134805
1070.553901	0.136544
1070.718114	0.137714
1070.882309	0.139265
1071.046486	0.138893
1071.210644	0.137522
1071.374784	0.139003
1071.538906	0.140604
1071.703010	0.139200
1071.867096	0.140246
1072.031163	0.139198
1072.195212	0.142170
1072.359243	0.145579
1072.523256	0.147163
1072.687250	0.150309
1072.851226	0.150747
1073.015184	0.149044
1073.179124	0.149873
1073.343045	0.149576
1073.506949	0.151007
1073.670834	0.147357
1073.834701	0.145910
1073.998549	0.144139
1074.162380	0.142476
1074.326192	0.139942
1074.489986	0.139484
1074.653761	0.138624
1074.817519	0.139074
1074.981258	0.135140
1075.144979	0.134399
1075.308682	0.133200
1075.472367	0.133893
1075.636033	0.132452
1075.799681	0.130152
1075.963311	0.132435
1076.126923	0.133549
1076.290516	0.134603
1076.454092	0.139029
1076.617649	0.140910
1076.781187	0.140938
1076.944708	0.141751
1077.108210	0.142176
1077.271695	0.145885
1077.435160	0.143409
1077.598608	0.140897
1077.762038	0.140499
1077.925449	0.138570
1078.088842	0.138387
1078.252217	0.137076
1078.415573	0.136118
1078.578912	0.133150
1078.742232	0.131943
1078.905534	0.129463
1079.068817	0.133034
1079.232083	0.131860
1079.395330	0.132687
1079.558559	0.133522
1079.721770	0.135266
1079.884962	0.135811
1080.048136	0.140924
1080.211293	0.141066
1080.374430	0.147783
1080.537550	0.146002
1080.700651	0.148836
1080.863735	0.150009
1081.026800	0.146422
1081.189846	0.147352
1081.352875	0.145180
1081.515885	0.143226
1081.678877	0.143835
1081.841851	0.138886
1082.004807	0.139905
1082.167744	0.138432
1082.330663	0.139746
1082.493564	0.141325
1082.656447	0.141683
1082.819312	0.145572
1082.982158	0.146562
1083.144986	0.144881
1083.307796	0.147357
1083.470587	0.150493
1083.633361	0.149296
1083.796116	0.149505
1083.958853	0.151880
1084.121571	0.149839
1084.284272	0.151233
1084.446954	0.151553
1084.609618	0.154977
1084.772264	0.153903
1084.934892	0.150107
1085.097501	0.152290
1085.260092	0.149665
1085.422665	0.148585
1085.585220	0.150109
1085.747756	0.145058
1085.910274	0.145190
1086.072774	0.144529
1086.235256	0.144849
1086.397720	0.144896
1086.560165	0.147161
1086.722592	0.153178
1086.885001	0.155254
1087.047392	0.153608
1087.209764	0.156625
1087.372119	0.158812
1087.534455	0.157862
1087.696772	0.155284
1087.859072	0.157654
1088.021353	0.155680
1088.183616	0.150349
1088.345861	0.149236
1088.508088	0.149267
1088.670296	0.148821
1088.832486	0.142905
1088.994658	0.141570
1089.156812	0.145165
1089.318948	0.141482
1089.481065	0.141028
1089.643164	0.143129
1089.805245	0.142937
1089.967308	0.141943
1090.129352	0.143158
1090.291378	0.148211
1090.453386	0.152455
1090.615376	0.151169
1090.777347	0.152473
1090.939301	0.153060
1091.101236	0.153813
1091.263153	0.152328
1091.425051	0.151904
1091.586932	0.152284
1091.748794	0.154174
1091.910638	0.151932
1092.072463	0.150709
1092.234271	0.151096
1092.396060	0.149738
1092.557831	0.143127
1092.719584	0.144486
1092.881319	0.146758
1093.043035	0.144154
1093.204733	0.141333
1093.366413	0.143745
1093.528075	0.144848
1093.689718	0.146457
1093.851343	0.148681
1094.012950	0.157565
1094.174539	0.157319
1094.336110	0.162462
1094.497662	0.166866
1094.659196	0.167275
1094.820712	0.165624
1094.982210	0.164972
1095.143689	0.161092
1095.305151	0.160246
1095.466594	0.160427
1095.628018	0.157236
1095.789425	0.154029
1095.950813	0.147032
1096.112183	0.146434
1096.273535	0.149480
1096.434869	0.152752
1096.596184	0.159811
1096.757482	0.155906
1096.918761	0.153262
1097.080021	0.157455
1097.241264	0.156829
1097.402488	0.162156
1097.563694	0.163774
1097.724882	0.161598
1097.886052	0.163802
1098.047203	0.162553
1098.208336	0.165868
1098.369451	0.162927
1098.530548	0.162392
1098.691627	0.160336
1098.852687	0.157797
1099.013729	0.160954
1099.174753	0.159947
1099.335758	0.156095
1099.496746	0.154682
1099.657715	0.153847
1099.818666	0.154307
1099.979599	0.156095
1100.140513	0.159846
1100.301409	0.160046
1100.462287	0.156929
1100.623147	0.160702
1100.783989	0.158775
1100.944812	0.154240
1101.105617	0.154356
1101.266404	0.155239
1101.427173	0.152181
1101.587923	0.150587
1101.748656	0.149834
1101.909370	0.146724
1102.070066	0.144881
1102.230743	0.142971
1102.391403	0.145490
1102.552044	0.142647
1102.712667	0.143605
1102.873271	0.146551
1103.033858	0.149863
1103.194426	0.154057
1103.354976	0.156250
1103.515508	0.152900
1103.676021	0.160827
1103.836517	0.160941
1103.996994	0.166523
1104.157453	0.168635
1104.317893	0.171611
1104.478316	0.160699
1104.638720	0.156451
1104.799106	0.156404
1104.959474	0.157184
1105.119823	0.157501
1105.280155	0.161713
1105.440468	0.161033
1105.600763	0.158791
1105.761039	0.158806
1105.921298	0.164753
1106.081538	0.168882
1106.241760	0.163325
1106.401964	0.159347
1106.562149	0.152151
1106.722316	0.149924
1106.882465	0.150728
1107.042596	0.148083
1107.202709	0.146084
1107.362803	0.147135
1107.522879	0.147331
1107.682937	0.154531
1107.842977	0.161003
1108.002999	0.164712
1108.163002	0.170285
1108.322987	0.168892
1108.482954	0.170550
1108.642902	0.161397
1108.802833	0.166333
1108.962745	0.159151
1109.122639	0.161789
1109.282515	0.162066
1109.442372	0.164186
1109.602211	0.157882
1109.762032	0.160768
1109.921835	0.159163
1110.081620	0.165423
1110.241386	0.159707
1110.401134	0.166305
1110.560864	0.157765
1110.720576	0.154762
1110.880269	0.150949
1111.039945	0.155640
1111.199602	0.157740
1111.359240	0.161412
1111.518861	0.158133
1111.678463	0.160118
1111.838047	0.161015
1111.997613	0.167444
1112.157161	0.167318
1112.316690	0.167803
1112.476202	0.164469
1112.635695	0.162013
1112.795169	0.160771
1112.954626	0.158986
1113.114064	0.160674
1113.273484	0.153577
1113.432886	0.151152
1113.592270	0.159129
1113.751635	0.158194
1113.910983	0.158442
1114.070312	0.158224
1114.229622	0.159720
1114.388915	0.167318
1114.548189	0.164256
1114.707445	0.168700
1114.866683	0.169467
1115.025903	0.165556
1115.185104	0.166748
1115.344287	0.162268
1115.503452	0.162989
1115.662599	0.161724
1115.821727	0.164664
1115.980838	0.168438
1116.139930	0.173681
1116.299004	0.177166
1116.458059	0.176733
1116.617097	0.178800
1116.776116	0.182288
1116.935117	0.176030
1117.094099	0.173553
1117.253064	0.175891
1117.412010	0.174221
1117.570938	0.173715
1117.729848	0.168826
1117.888740	0.160664
1118.047613	0.166594
1118.206468	0.164674
1118.365305	0.172314
1118.524124	0.175948
1118.682924	0.177130
1118.841707	0.179458
1119.000471	0.178133
1119.159216	0.181388
1119.317944	0.196748
1119.476653	0.194097
1119.635344	0.198701
1119.794017	0.194358
1119.952672	0.193770
1120.111308	0.184699
1120.269927	0.181372
1120.428527	0.176836
1120.587108	0.173575
1120.745672	0.166865
1120.904217	0.164020
1121.062744	0.166704
1121.221253	0.158816
1121.379744	0.158964
1121.538216	0.161915
1121.696671	0.164681
1121.855107	0.165037
1122.013524	0.156676
1122.171924	0.159537
1122.330305	0.162076
1122.488668	0.161481
1122.647013	0.169811
1122.805340	0.167767
1122.963648	0.162707
1123.121938	0.162388
1123.280210	0.163463
1123.438464	0.174859
1123.596700	0.173114
1123.754917	0.172989
1123.913116	0.169710
1124.071297	0.169937
1124.229459	0.172975
1124.387604	0.173429
1124.545730	0.176901
1124.703838	0.187740
1124.861928	0.176500
1125.019999	0.170403
1125.178052	0.169077
1125.336088	0.173399
1125.494104	0.181633
1125.652103	0.183015
1125.810083	0.192233
1125.968045	0.181801
1126.125989	0.172491
1126.283915	0.187383
1126.441823	0.194084
1126.599712	0.188240
1126.757583	0.182674
1126.915436	0.173163
1127.073270	0.171936
1127.231087	0.164760
1127.388885	0.181373
1127.546665	0.178835
1127.704426	0.179317
1127.862170	0.176309
1128.019895	0.185888
1128.177602	0.192397
1128.335291	0.199440
1128.492961	0.197807
1128.650614	0.193018
1128.808248	0.176058
1128.965864	0.184774
1129.123461	0.184059
1129.281041	0.180224
1129.438602	0.181074
1129.596145	0.176093
1129.753670	0.171017
1129.911176	0.175972
1130.068665	0.188396
1130.226135	0.185637
1130.383587	0.177217
1130.541020	0.177049
1130.698436	0.180457
1130.855833	0.174810
1131.013212	0.179293
1131.170573	0.187249
1131.327915	0.178403
1131.485239	0.173405
1131.642545	0.182258
1131.799833	0.179888
1131.957103	0.177937
1132.114354	0.179133
1132.271588	0.179639
1132.428803	0.166977
1132.585999	0.158797
1132.743178	0.166188
1132.900338	0.166329
1133.057480	0.165431
1133.214604	0.167586
1133.371710	0.166720
1133.528797	0.167269
1133.685866	0.163874
1133.842917	0.165878
1133.999950	0.172262
1134.156964	0.170371
1134.313960	0.173822
1134.470938	0.174014
1134.627898	0.180389
1134.784840	0.182536
1134.941763	0.183412
1135.098668	0.182708
1135.255555	0.198732
1135.412424	0.192679
1135.569274	0.185385
1135.726107	0.182961
1135.882921	0.180854
1136.039716	0.186563
1136.196494	0.177317
1136.353253	0.177173
1136.509995	0.181175
1136.666717	0.164203
1136.823422	0.166636
1136.980109	0.167827
1137.136777	0.181396
1137.293427	0.183542
1137.450059	0.180214
1137.606672	0.198303
1137.763267	0.188490
1137.919844	0.187698
1138.076403	0.201554
1138.232944	0.183618
1138.389466	0.188497
1138.545971	0.176389
1138.702457	0.177192
1138.858924	0.167179
1139.015374	0.154090
1139.171805	0.164623
1139.328218	0.167360
1139.484613	0.162520
1139.640990	0.176773
1139.797348	0.184761
1139.953688	0.180306
1140.110010	0.180195
1140.266314	0.183812
1140.422600	0.190538
1140.578867	0.184774
1140.735116	0.179786
1140.891347	0.176557
1141.047559	0.176309
1141.203754	0.171509
1141.359930	0.164437
1141.516088	0.155571
1141.672228	0.155058
1141.828349	0.154774
1141.984452	0.156950
1142.140537	0.156410
1142.296604	0.162159
1142.452653	0.165815
1142.608683	0.165557
1142.764695	0.174257
1142.920689	0.187709
1143.076665	0.200905
1143.232622	0.196204
1143.388562	0.200001
1143.544483	0.198502
1143.700385	0.203597
1143.856270	0.198285
1144.012136	0.190641
1144.167985	0.186462
1144.323814	0.176975
1144.479626	0.170721
1144.635420	0.177317
1144.791195	0.183882
1144.946952	0.187198
1145.102691	0.177190
1145.258411	0.183216
1145.414113	0.191128
1145.569798	0.190216
1145.725463	0.192742
1145.881111	0.182235
1146.036741	0.172255
1146.192352	0.167889
1146.347945	0.166830
1146.503519	0.167632
1146.659076	0.157490
1146.814614	0.150593
1146.970134	0.155371
1147.125636	0.158072
1147.281120	0.162124
1147.436585	0.176012
1147.592032	0.175534
1147.747461	0.174099
1147.902872	0.183484
1148.058265	0.187756
1148.213639	0.197697
1148.368995	0.201046
1148.524333	0.210896
1148.679653	0.220241
1148.834954	0.213258
1148.990237	0.207481
1149.145502	0.217890
1149.300749	0.207262
1149.455977	0.210735
1149.611188	0.200434
1149.766380	0.202713
1149.921553	0.191594
1150.076709	0.184701
1150.231846	0.177813
1150.386966	0.181079
1150.542066	0.170751
1150.697149	0.164890
1150.852214	0.167420
1151.007260	0.177872
1151.162288	0.163223
1151.317298	0.168174
1151.472289	0.169830
1151.627263	0.175107
1151.782218	0.173327
1151.937155	0.171505
1152.092073	0.169965
1152.246974	0.161189
1152.401856	0.160822
1152.556720	0.174899
1152.711566	0.169135
1152.866393	0.174069
1153.021203	0.177004
1153.175994	0.176546
1153.330767	0.181301
1153.485521	0.203401
1153.640258	0.205019
1153.794976	0.189398
1153.949676	0.180735
1154.104358	0.189563
1154.259021	0.183463
1154.413667	0.187982
1154.568294	0.198484
1154.722903	0.196820
1154.877493	0.179380
1155.032066	0.180733
1155.186620	0.189421
1155.341156	0.198768
1155.495674	0.195641
1155.650173	0.187688
1155.804654	0.185086
1155.959118	0.185402
1156.113562	0.186666
1156.267989	0.197587
1156.422397	0.194277
1156.576788	0.185188
1156.731160	0.176106
1156.885513	0.175992
1157.039849	0.174270
1157.194166	0.176535
1157.348465	0.146891
1157.502746	0.156119
1157.657009	0.151841
1157.811253	0.162544
1157.965479	0.185048
1158.119687	0.186011
1158.273877	0.184817
1158.428048	0.184112
1158.582201	0.170808
1158.736337	0.195292
1158.890453	0.165311
1159.044552	0.158590
1159.198632	0.159545
1159.352694	0.146249
1159.506738	0.149653
1159.660764	0.148893
1159.814771	0.160242
1159.968761	0.153803
1160.122732	0.156949
1160.276685	0.173246
1160.430619	0.177865
1160.584535	0.155733
1160.738434	0.161678
1160.892313	0.167558
1161.046175	0.158667
1161.200019	0.152766
1161.353844	0.145865
1161.507651	0.138382
1161.661440	0.148744
1161.815210	0.161805
1161.968962	0.171671
1162.122697	0.166667
1162.276412	0.165115
1162.430110	0.190522
1162.583789	0.189517
1162.737451	0.210556
1162.891094	0.198993
1163.044718	0.193899
1163.198325	0.173671
1163.351913	0.179359
1163.505483	0.180923
1163.659035	0.180896
1163.812569	0.167226
1163.966084	0.172119
1164.119581	0.167036
1164.273060	0.181345
1164.426521	0.182413
1164.579964	0.189727
1164.733388	0.192108
1164.886794	0.188503
1165.040182	0.177925
1165.193551	0.165525
1165.346903	0.180579
1165.500236	0.187990
1165.653551	0.189001
1165.806848	0.188586
1165.960126	0.184431
1166.113386	0.178468
1166.266628	0.166544
1166.419852	0.167336
1166.573058	0.184749
1166.726245	0.160095
1166.879414	0.161217
1167.032565	0.153974
1167.185698	0.168733
1167.338812	0.159395
1167.491909	0.161077
1167.644987	0.177483
1167.798046	0.165720
1167.951088	0.169538
1168.104111	0.175126
1168.257117	0.159747
1168.410103	0.172045
1168.563072	0.146810
1168.716023	0.161811
1168.868955	0.150074
1169.021869	0.142534
1169.174765	0.168929
1169.327642	0.160696
1169.480501	0.161577
1169.633343	0.187676
1169.786165	0.179202
1169.938970	0.182152
1170.091757	0.195994
1170.244525	0.210569
1170.397275	0.224271
1170.550007	0.221698
1170.702720	0.228827
1170.855415	0.224383
1171.008092	0.201397
1171.160751	0.198380
1171.313392	0.202030
1171.466014	0.117501
1171.618619	0.153594
1171.771205	0.153594
1171.923772	0.153594
