sample name	sample
index	49
start time	 02-11-2021  02:25:36 PM
880	0.001268
Peak Time (s)	92.036
Peak Height 	0.001268
calc peak height	90,93
Baseline Time (s)	10.036
Baseline Value 	-0.002071
subtract baseline	10,4
Abs	0.006053
Peak Time (s)	91.035
Peak Height 	0.006053
calc peak height	90,93
Baseline Time (s)	10.036
Baseline Value 	-0.001426
subtract baseline	10,3
PK_550	-0.000223
Peak Time (s)	91.535
Peak Height 	-2.2334E-4
calc peak height	90,93
Baseline Time (s)	10.536
Baseline Value 	-8.7551E-5
subtract baseline	10,2
PK_880	-0.004829
Peak Time (s)	91.535
Peak Height 	-0.004829
calc peak height	90,93
Baseline Time (s)	9.538
Baseline Value 	0.002806
subtract baseline	10,1


Time (s)	A880-A510	A880-A775	A880-A975	A880	I510	I775	I975	I880	
0.039000	-0.003459	-0.000581	-0.004339	0.004804	4563.698086	19564.257547	3296.992174	10703.270823
0.538000	-0.003807	-0.000805	-0.008389	0.002139	4572.254395	19657.572720	3295.812670	10750.972952
1.088500	-0.005146	0.001988	-0.005245	0.002606	4565.579610	19747.007969	3298.095422	10742.584037
1.998500	-0.005058	0.001787	0.001760	0.000706	4572.926498	19812.682311	3305.790425	10776.743720
2.544000	-0.002712	0.002278	0.007358	0.000813	4581.238038	19827.543075	3310.614911	10774.817838
2.657000	-0.003000	-0.000116	0.000405	-0.000618	4585.498182	19790.270810	3305.763296	10800.623976
3.037000	-0.000762	0.000179	0.001926	0.000013	4591.506053	19777.260982	3306.540394	10789.231570
3.537500	-0.002940	0.001369	0.002351	0.000030	4583.305386	19822.652641	3306.898027	10788.930494
4.035000	-0.005172	0.000554	-0.000628	0.003815	4561.038034	19645.446051	3301.022279	10720.942440
4.535500	-0.002490	0.001956	0.007136	0.000115	4584.668516	19842.119510	3311.035805	10787.399569
5.038000	0.000950	-0.000146	0.001504	-0.001352	4603.074053	19817.501280	3307.366552	10813.905207
5.536000	0.003026	0.000487	0.010590	-0.000933	4609.336031	19825.797701	3315.041122	10806.322634
6.036000	0.002734	0.000338	0.007467	-0.000363	4606.077643	19797.961845	3311.752948	10796.030124
6.536500	0.001872	0.000008	-0.006198	-0.001551	4607.308654	19831.165440	3300.845425	10817.506007
7.037000	-0.004465	-0.000445	0.006886	-0.001632	4583.816319	19816.783006	3312.362952	10818.977794
7.536500	0.000718	-0.000117	0.006480	-0.000802	4600.129112	19797.369677	3311.267141	10803.959559
8.037500	-0.001504	-0.000990	0.006938	-0.001128	4593.003178	19776.199695	3311.961130	10809.846608
8.534000	-0.003943	-0.000781	0.009268	-0.002180	4587.813018	19824.993093	3314.974022	10828.906868
9.034500	0.000625	0.000690	-0.000130	0.000051	4596.568393	19795.561864	3304.713548	10788.542815
9.538000	0.000000	-0.000212	-0.002811	-0.000376	4595.824302	19777.203450	3302.756343	10796.255067
10.036000	-0.002180	-0.000070	0.000000	0.000000	4586.253835	19768.184067	3304.871330	10789.470833
10.536000	-0.000792	0.000000	0.008349	-0.000429	4593.050413	19787.432179	3312.593754	10797.208052
11.036000	0.001868	0.000722	0.001711	0.000132	4600.940992	19793.636881	3306.248810	10787.081439
11.536500	0.000647	0.000860	-0.005631	0.000469	4595.081199	19785.966208	3299.595740	10781.008941
12.036500	0.001358	0.001422	0.001018	0.000997	4595.766544	19787.284009	3304.889731	10771.496484
12.536500	-0.001246	0.000635	0.005699	0.000280	4588.698516	19784.592522	3309.620006	10784.421649
13.037500	-0.001756	0.000022	0.012873	-0.000298	4588.949017	19783.226125	3316.517702	10794.842541
13.535000	0.002135	0.000398	0.005887	-0.000000	4602.446714	19786.249822	3310.032930	10789.472308
14.034500	0.000352	0.000146	0.004659	0.000840	4592.583404	19744.123964	3308.212023	10774.337721
14.537500	-0.002651	-0.000628	0.002889	0.000258	4583.536370	19736.726505	3307.169713	10784.825030
15.035500	-0.004834	0.000421	0.008706	0.002735	4566.254727	19681.750670	3310.107311	10740.275861
15.535500	0.003044	0.001391	0.007769	0.002069	4598.078563	19744.726275	3309.868315	10752.232879
16.036500	-0.000729	0.000567	0.012709	0.000261	4590.703906	19782.706999	3315.869379	10784.769352
16.540000	-0.002053	0.000606	-0.001710	0.000334	4585.481038	19781.357996	3303.094972	10783.444238
17.037000	-0.000235	-0.000781	0.013364	-0.000487	4595.359418	19759.546298	3317.128601	10798.268034
17.537500	0.003626	0.002552	0.006642	0.000960	4604.448597	19832.434407	3309.852237	10772.164456
18.034500	0.001709	0.000257	0.015591	-0.002187	4609.097833	19865.488331	3320.675240	10829.030888
18.535000	0.001117	-0.000876	-0.008525	0.000275	4597.576177	19726.491605	3297.283913	10784.503135
19.038000	-0.002485	0.000146	-0.007342	0.000822	4582.052437	19744.806275	3297.828402	10774.661358
19.536000	-0.004613	-0.000139	0.002343	0.000895	4573.876969	19731.015258	3306.134683	10773.344187
20.035000	0.000155	0.001618	0.007171	0.002091	4587.162457	19752.601570	3309.321726	10751.830613
20.535000	-0.000607	0.001169	0.002844	0.001595	4586.170187	19754.437618	3305.961047	10760.748434
21.036500	-0.002494	-0.000251	0.009988	0.001101	4580.978940	19718.762392	3312.690599	10769.630824
21.537000	-0.002488	-0.000558	-0.003089	0.000775	4582.212520	19719.483668	3301.520859	10775.494562
22.037000	-0.002124	-0.000018	0.011818	0.001705	4580.107177	19704.469773	3313.782503	10758.766392
22.534500	-0.001444	-0.000452	0.005616	0.000771	4586.121223	19723.734877	3309.114817	10775.573070
23.037500	-0.000135	-0.000217	0.026525	0.001063	4589.923549	19721.517106	3327.708924	10770.311849
23.535500	-0.002532	0.000726	-0.003657	0.002310	4576.344526	19709.841046	3299.710022	10747.905091
24.035500	-0.003271	0.001640	0.009789	0.002044	4574.588796	19755.255941	3311.676759	10752.671424
24.536000	-0.003120	0.001733	0.010615	0.002410	4573.791393	19744.749512	3312.085259	10746.106872
25.036500	0.002906	0.001067	0.002440	0.001420	4599.999217	19757.246879	3305.760817	10763.895321
25.536500	0.001104	0.000676	-0.005505	0.001855	4591.600077	19725.440443	3298.515714	10756.076311
26.036000	-0.001827	0.000162	0.004882	0.001147	4583.291601	19732.910065	3308.138916	10768.808809
26.536500	-0.001844	0.000599	0.001534	0.001785	4580.853986	19725.145312	3304.652990	10757.333924
27.037500	0.000237	0.000857	0.015052	0.001676	4589.023772	19739.295914	3316.702078	10759.292022
27.535000	0.000608	0.001580	0.007160	0.003154	4584.886852	19710.204513	3308.376260	10732.762348
28.035500	-0.003689	-0.000165	0.011482	-0.002093	4588.436503	19845.473166	3316.880137	10827.328146
28.537500	-0.001627	0.000188	0.008450	-0.000229	4589.178371	19786.988896	3312.506446	10793.612813
29.035500	0.000542	-0.000208	0.001784	0.000417	4594.884899	19746.755648	3306.064055	10781.954166
29.536000	-0.000827	0.001595	0.003305	0.001061	4587.343885	19791.504108	3306.830859	10770.355315
30.035500	-0.003657	0.000033	0.006294	0.003760	4566.817884	19627.574994	3307.084436	10721.919607
30.536500	0.000430	0.000022	0.011534	0.000523	4594.064373	19751.532391	3314.583339	10780.043987
31.036500	-0.001662	-0.000383	0.005060	-0.000396	4589.669491	19771.371645	3309.653367	10796.620757
31.536500	-0.001573	0.000044	0.001237	0.002646	4578.658274	19670.719420	3303.646587	10741.877564
32.037500	-0.000039	0.001051	0.013171	0.003599	4580.816485	19672.772194	3313.300224	10724.794747
32.537500	-0.001510	-0.001379	0.002492	-0.000785	4591.695435	19747.943754	3307.736355	10803.651082
33.035500	-0.001554	0.000826	0.014757	0.001057	4584.645294	19761.956953	3316.993215	10770.422786
33.535000	-0.001426	-0.000170	0.012026	0.000060	4588.847927	19762.021315	3315.437520	10788.395570
34.035500	-0.001239	0.000554	0.000172	0.001936	4582.542223	19717.581409	3303.337721	10754.614423
34.536000	-0.003235	0.000487	-0.003537	0.000666	4579.840421	19763.974753	3301.229051	10777.468723
35.036500	-0.000259	0.000259	-0.000364	0.002565	4583.849571	19682.036280	3302.328391	10743.317494
35.536500	0.000770	0.001440	0.014923	0.003178	4585.404059	19703.924334	3315.239768	10732.339658
36.034000	-0.000437	-0.000227	0.006712	0.002647	4582.881214	19660.280118	3308.428555	10741.862434
36.537000	-0.001135	0.001382	0.001833	0.002997	4578.982048	19708.629391	3303.858764	10735.583552
37.035000	0.000008	0.001929	0.006828	0.003187	4582.529179	19722.385838	3308.055894	10732.183270
37.535000	-0.004154	0.000222	0.004979	0.002000	4571.485451	19702.361994	3307.475119	10753.471512
38.038000	-0.000657	-0.000236	0.005233	0.002253	4583.528663	19675.063849	3307.475343	10748.925876
38.535500	-0.000352	0.000049	0.002306	0.001905	4585.965290	19699.354355	3305.220546	10755.164989
39.035500	-0.003026	-0.001891	-0.003550	0.000995	4579.392385	19659.787122	3300.933181	10771.534596
39.536000	-0.003181	0.001322	-0.000957	0.003096	4571.027040	19702.517415	3301.357983	10733.811536
40.036000	-0.002832	0.000621	0.008178	0.002546	4574.356231	19696.682827	3309.807533	10743.657796
40.536500	0.003724	0.001230	0.016161	0.003060	4596.907039	19700.351262	3316.454665	10734.448462
41.037000	-0.003774	-0.001093	0.006240	0.001032	4576.474371	19689.026034	3309.434201	10770.863889
41.537500	-0.002574	0.000620	0.003424	0.002357	4576.016108	19703.967731	3305.802440	10747.064035
42.035000	-0.002369	-0.000315	0.010225	0.001319	4580.631994	19707.923917	3312.707503	10765.711138
42.537500	-0.003112	-0.000098	0.016424	0.001858	4575.869562	19695.535004	3317.772413	10756.023940
43.037500	0.000333	-0.000498	0.003559	0.002164	4587.557428	19668.407331	3306.088171	10750.523730
43.536000	-0.002913	-0.000373	0.001235	0.002320	4574.894832	19667.205876	3303.927585	10747.724996
44.036000	-0.001892	0.000006	0.000486	0.002245	4578.960011	19684.607722	3303.342455	10749.058351
44.536000	-0.002352	-0.000215	0.006880	-0.002298	4594.212697	19851.513401	3312.949735	10831.048788
45.036000	-0.002951	-0.000213	0.007826	-0.000293	4584.467670	19773.954293	3312.008090	10794.751217
45.536000	0.000140	-0.000044	0.000987	0.000317	4593.748949	19756.968172	3305.455634	10783.759183
46.037000	-0.002636	-0.000200	-0.010098	0.001985	4577.164854	19686.714018	3294.492666	10753.729182
46.534500	-0.002646	0.000617	0.026525	0.001202	4580.037560	19748.309748	3327.581043	10767.816841
47.035000	-0.000110	0.000873	0.013013	0.000692	4591.406297	19777.870361	3315.755183	10776.990049
47.535000	-0.001065	-0.000161	0.010102	0.000576	4588.268712	19742.451412	3313.259875	10779.093468
48.035500	-0.002025	-0.000326	0.004462	0.003025	4575.572815	19642.015436	3306.124992	10735.085990
48.536000	-0.001421	0.001029	-0.001675	0.003321	4576.713755	19682.583403	3300.544890	10729.772185
49.035500	-0.000139	0.000609	0.002077	0.000181	4593.213609	19787.393580	3306.526348	10786.207235
49.536500	-0.003075	0.000232	0.010330	0.000410	4581.389326	19763.996671	3313.610296	10782.080714
50.036500	-0.004378	0.000026	-0.003089	0.003505	4565.097482	19637.086879	3299.172075	10726.483893
50.537000	0.001874	0.000971	0.012443	-0.001835	4608.392083	19879.567045	3317.512382	10822.646607
51.037000	-0.001104	-0.001166	0.004638	-0.001362	4595.384419	19778.453538	3310.133235	10814.089328
51.534500	-0.002536	-0.000304	-0.001948	0.005223	4565.553670	19558.789063	3298.677024	10695.784928
52.037500	-0.038379	-0.019060	-0.019055	0.163322	3988.949080	14020.385848	3175.172513	8333.261713
52.535500	-0.041328	-0.012232	-0.002150	0.037177	4324.906247	17967.611983	3272.126523	10146.575382
53.035500	-0.031621	-0.006161	-0.006135	-0.078713	4781.069632	22819.887802	3373.667520	12346.593839
53.535500	-0.033908	-0.007438	-0.003642	-0.139031	5040.743559	25705.831868	3443.229241	13746.175003
54.036000	-0.030766	-0.005265	0.004858	-0.138707	5054.260871	25802.715975	3453.047270	13738.128888
54.536500	-0.018317	-0.004228	-0.005163	-0.118607	5017.766553	24823.502678	3417.773880	13250.340644
55.036500	-0.015510	-0.001020	-0.006061	-0.092628	4911.092124	23708.825426	3388.301617	12652.431975
55.537000	-0.013373	-0.001421	-0.005054	-0.077015	4851.621789	22959.185409	3373.033107	12309.940415
56.034000	-0.010957	-0.001676	0.000447	-0.055802	4771.699221	21996.634921	3357.172838	11863.904203
56.537500	-0.007427	-0.002422	0.009190	-0.043061	4733.771712	21415.791656	3353.227253	11606.266964
57.035500	-0.011069	-0.002715	0.002998	-0.030827	4670.268955	20892.240250	3335.507158	11365.914839
57.535000	-0.011016	-0.003543	0.002694	-0.024325	4645.130182	20592.826875	3329.149665	11240.909434
58.036000	-0.011858	-0.003386	-0.000323	-0.020378	4626.699150	20439.985335	3322.746418	11165.925560
58.536500	-0.010774	-0.003798	0.016396	-0.014215	4607.375454	20177.964269	3332.492390	11050.203429
59.036000	-0.012541	-0.004483	0.008111	-0.008233	4578.326496	19916.322601	3319.377098	10939.444659
59.536500	-0.010070	-0.003869	-0.003607	-0.007069	4583.191203	19894.906065	3307.898268	10918.071173
60.036500	-0.012565	-0.002272	-0.001583	-0.004732	4565.283456	19866.116185	3307.623657	10875.318176
60.537500	-0.010339	-0.001205	0.012555	-0.003547	4569.123431	19861.551425	3319.157709	10853.730364
61.037500	-0.011050	-0.002328	0.000795	-0.004573	4570.286753	19857.789716	3309.574923	10872.416480
61.538000	-0.009651	-0.001360	-0.001177	-0.004887	4576.632972	19907.616862	3308.116074	10878.154029
62.035500	-0.005971	-0.002118	0.011389	-0.003934	4586.786804	19841.118521	3318.453941	10860.768869
62.535500	-0.008806	-0.000504	0.001740	-0.003583	4574.929962	19890.173908	3309.535934	10854.390423
63.036000	-0.009658	-0.000814	-0.000150	-0.010140	4596.224955	20134.862196	3313.672283	10974.587137
63.536500	-0.005696	0.000273	0.001560	-0.008450	4604.780720	20111.087849	3313.689634	10943.427035
64.037000	-0.004012	0.000161	0.001394	-0.010195	4617.784976	20175.577930	3315.100698	10975.609908
64.539500	-0.004907	-0.000871	-0.007587	-0.012191	4621.976196	20213.727789	3308.902037	11012.558786
65.037500	-0.008056	0.000286	0.004783	-0.011786	4608.469901	20243.545392	3319.579652	11005.045006
65.537500	-0.009458	-0.001573	0.012626	-0.012255	4604.943422	20188.478975	3327.173524	11013.755152
66.034500	-0.007506	0.000248	-0.008497	-0.009457	4601.751290	20149.808745	3305.707626	10961.976254
66.535500	-0.001199	0.001852	0.003185	-0.009073	4624.232186	20198.058756	3315.698757	10954.900538
67.035500	-0.006755	-0.001993	-0.012398	-0.011828	4613.564604	20154.969188	3304.375298	11005.828879
67.536000	-0.006002	-0.000498	-0.013200	-0.010174	4610.141784	20148.674856	3302.244612	10975.206137
68.036000	-0.008479	-0.001183	0.004208	-0.008418	4594.182756	20052.590377	3316.028813	10942.842931
68.536500	-0.006850	-0.000563	0.000653	-0.009477	4604.298840	20118.592004	3313.797151	10962.344319
69.037000	-0.005987	-0.001334	0.006520	-0.010429	4611.168294	20125.773617	3319.924358	10979.927530
69.536500	-0.008938	0.000430	0.012320	-0.008098	4591.262271	20103.425453	3323.077749	10936.958678
70.037000	-0.006488	0.000189	0.004215	-0.005611	4591.127880	19996.334187	3313.526671	10891.377230
70.534500	-0.007620	-0.000884	0.005710	-0.008063	4596.075643	20050.398167	3317.058575	10936.318531
71.037500	-0.007803	-0.002175	-0.008033	-0.008457	4596.868451	20015.221889	3305.241202	10943.564833
71.535500	-0.010282	-0.000945	-0.011056	-0.007474	4583.910541	20024.884892	3301.764296	10925.499343
72.036000	-0.006388	0.000011	-0.012089	-0.005114	4589.639303	19969.949817	3298.845615	10882.290777
72.536000	-0.006374	-0.000970	-0.004243	-0.006986	4596.711777	20004.762408	3307.267676	10916.537239
73.036000	-0.002985	0.000308	-0.004874	-0.005056	4602.204514	19979.255725	3305.029404	10881.232178
73.536500	-0.005520	-0.000866	-0.006162	-0.005770	4595.350821	19961.284288	3304.529706	10894.276673
74.036000	-0.004912	-0.000965	-0.000334	-0.004107	4591.398046	19892.654309	3308.171674	10863.934103
74.537000	-0.004014	0.000019	-0.004385	-0.004465	4596.106622	19944.928770	3304.940977	10870.453387
75.034500	-0.005028	-0.000433	0.008883	-0.004885	4593.878251	19943.673371	3317.054599	10878.120309
75.540000	-0.003718	-0.000305	-0.007389	-0.004421	4597.051855	19930.530131	3302.294584	10869.641331
76.034500	-0.008310	0.000005	-0.006540	-0.004458	4580.020564	19944.083750	3303.062438	10870.322447
76.535500	-0.009011	-0.000499	-0.003650	-0.005028	4579.532458	19946.668614	3306.073143	10880.714370
77.036000	-0.009249	0.000130	-0.000917	-0.003620	4573.426364	19916.295538	3307.232594	10855.055294
77.536000	-0.006487	-0.001269	0.000320	-0.003609	4583.647836	19861.491476	3308.309023	10854.862085
78.036000	-0.008041	-0.001338	-0.009176	-0.004169	4579.947291	19880.530681	3300.535956	10865.056140
78.536500	-0.010058	-0.003283	-0.005654	-0.005387	4576.976657	19852.299442	3304.639168	10887.275317
79.037000	-0.005952	-0.002806	-0.004052	-0.004647	4589.522106	19842.092960	3305.389740	10873.769356
79.537500	-0.009105	-0.000869	0.001464	-0.001908	4567.629962	19811.059894	3307.819980	10823.979389
80.034000	-0.005393	-0.000984	-0.007625	-0.003358	4586.794809	19862.769360	3301.173606	10850.292841
80.537500	-0.007589	-0.001084	0.001072	-0.003074	4577.557058	19847.863168	3308.499029	10845.127992
81.035000	-0.005331	-0.001056	0.006689	-0.002627	4584.295680	19831.647542	3313.071970	10837.011129
81.535500	-0.004929	-0.003306	-0.004088	-0.002308	4584.604581	19732.373214	3303.323967	10831.222232
82.035500	-0.007833	-0.000937	0.014183	-0.000385	4566.704937	19749.584996	3317.773997	10796.427097
82.536000	-0.004792	0.000816	0.009470	-0.000808	4579.531766	19833.708903	3313.929388	10804.071909
83.036000	-0.002759	-0.000789	-0.003038	-0.001895	4591.173534	19813.624835	3303.877321	10823.737390
83.536000	-0.007679	0.000464	0.008075	0.000886	4562.586545	19754.582364	3311.184721	10773.500667
84.036500	-0.006967	-0.001053	0.005921	-0.002098	4576.246944	19811.290114	3311.920265	10827.425305
84.537500	-0.006138	-0.001855	0.001035	-0.002549	4580.999444	19797.695003	3308.006009	10835.601069
85.034500	-0.007399	-0.001298	-0.005821	-0.001154	4571.144286	19765.315461	3300.828969	10810.319927
85.534500	-0.008563	-0.002452	0.004614	0.000678	4560.101695	19650.437872	3308.314720	10777.248652
86.035500	-0.008960	-0.001236	-0.009612	0.000509	4559.265901	19703.654801	3296.159630	10780.300062
86.535500	-0.006252	-0.001127	-0.001372	-0.000739	4573.853500	19755.870520	3304.320231	10802.810959
87.036000	-0.008154	-0.001345	-0.004232	-0.001559	4569.855071	19779.157876	3302.551155	10817.659989
87.535500	-0.008778	-0.001565	0.011927	0.002023	4554.380888	19632.929549	3313.596094	10753.059645
88.036500	-0.008289	-0.000170	0.006390	0.002266	4555.281999	19677.074434	3308.480317	10748.689262
88.536500	-0.003877	0.000222	0.004222	0.000261	4578.959863	19769.378784	3308.337116	10784.770673
89.037000	-0.007391	-0.001047	0.001386	-0.000336	4568.150826	19743.439822	3306.373524	10795.527957
89.534500	-0.007597	-0.000514	-0.010914	0.003708	4552.536569	19608.632854	3292.349121	10722.849611
90.037500	-0.007903	-0.001761	-0.009390	-0.001075	4568.992153	19744.405527	3297.698645	10808.894767
90.535000	-0.009936	-0.001789	0.003939	-0.000564	4559.621099	19723.635688	3308.813610	10799.657548
91.035500	-0.005938	-0.000588	0.006053	0.000265	4571.301158	19737.973169	3309.945932	10784.685995
91.535500	-0.004829	-0.000223	0.004746	0.000694	4573.819062	19735.492090	3308.417125	10776.958705
92.036000	-0.010168	-0.002229	-0.004529	0.001268	4552.058987	19636.408707	3299.856373	10766.626042
92.536500	-0.008249	-0.003055	-0.001337	-0.001890	4570.722536	19725.942614	3305.353522	10823.646579
93.036500	-0.006471	-0.000312	-0.001214	0.000040	4570.161552	19757.280644	3303.780700	10788.741738
93.537000	-0.002660	-0.001145	0.009223	0.000271	4583.454105	19716.317038	3312.748815	10784.589860
94.037000	-0.003458	-0.000667	-0.005338	0.002556	4571.999695	19646.872032	3298.058533	10743.478847
94.534500	-0.006001	-0.000687	0.002599	0.001278	4567.327088	19695.183274	3306.023637	10766.448322
95.034500	-0.006361	-0.000335	-0.005169	0.001212	4566.243561	19711.274497	3299.354712	10767.637922
95.535500	-0.005313	-0.000165	-0.003311	0.002009	4567.163991	19687.137434	3300.265992	10753.297764
96.035500	-0.005977	-0.001048	0.006407	0.000470	4570.398811	19712.336937	3310.077187	10780.987043
96.536000	-0.007873	-0.001568	0.004599	0.000570	4563.033493	19688.529741	3308.396692	10779.188763
97.035500	-0.005990	-0.001954	0.002318	0.000459	4570.390214	19677.968710	3306.494037	10781.191740
