sample name	sample
index	1411
start time	 05-10-2021  11:38:39 AM
880	0.369991
Peak Time (s)	92.035
Peak Height 	0.37
calc peak height	90,93
Baseline Time (s)	9.535
Baseline Value 	-0.002241
subtract baseline	10,4
Abs	0.228676
Peak Time (s)	92.035
Peak Height 	0.2287
calc peak height	90,93
Baseline Time (s)	10.536
Baseline Value 	9.4967E-4
subtract baseline	10,3
PK_550	0.119717
Peak Time (s)	91.035
Peak Height 	0.1197
calc peak height	90,93
Baseline Time (s)	10.036
Baseline Value 	5.0621E-4
subtract baseline	10,2
PK_880	0.207573
Peak Time (s)	91.535
Peak Height 	0.2076
calc peak height	90,93
Baseline Time (s)	11.536
Baseline Value 	9.2474E-4
subtract baseline	10,1


Time (s)	A880-A510	A880-A775	A880-A975	A880	I510	I775	I975	I880	
0.035000	-0.001799	-0.000828	0.003055	0.000976	6492.573865	44287.932311	3931.442906	22663.769968
0.538000	-0.007047	-0.001395	-0.001918	0.005043	6415.274638	43848.962031	3908.448580	22479.137844
1.036000	-0.001834	-0.000074	-0.000222	0.003143	6474.148613	44153.561814	3917.538414	22565.184651
1.535500	-0.000051	-0.000312	-0.000750	0.000419	6511.957196	44390.172785	3923.125505	22689.193331
2.036500	-0.000540	0.000231	0.001795	-0.000034	6511.649036	44485.376356	3930.801951	22709.888235
2.536500	-0.003242	-0.000635	-0.006013	0.005797	6440.410991	43849.553887	3896.310550	22445.103655
3.036500	0.000578	-0.000644	0.003018	-0.002175	6539.219199	44606.591564	3939.472476	22807.960647
3.534000	0.000142	0.000048	-0.000986	0.000298	6514.593829	44436.012891	3922.831443	22694.684673
4.037500	-0.001877	-0.000457	0.001633	0.002652	6477.891452	44163.849907	3923.510405	22587.489889
4.535000	-0.002558	-0.000302	-0.001010	0.004118	6459.998181	44039.599704	3913.073438	22520.993984
5.035500	-0.001045	0.000009	0.001515	0.000047	6506.707301	44456.361365	3929.873389	22706.173306
5.538500	0.000449	0.000078	-0.000895	-0.000302	6522.254115	44496.286243	3924.595096	22722.122897
6.036000	-0.002136	0.000082	0.001512	-0.000482	6501.982321	44513.919444	3931.224050	22730.357257
6.536000	-0.000338	0.000078	0.004909	-0.000146	6514.299799	44481.438572	3939.119576	22715.018906
7.036500	0.001029	0.001045	0.000962	0.000598	6519.556167	44502.782871	3927.042240	22681.007340
7.536500	-0.001004	-0.000505	-0.000561	-0.000885	6514.910784	44496.360566	3926.941420	22748.832659
8.036500	-0.001514	-0.000204	0.001152	-0.000617	6508.351268	44499.518499	3930.647027	22736.551071
8.534500	-0.002506	-0.000092	-0.005044	-0.000314	6497.458928	44481.212252	3914.078344	22722.660380
9.035000	-0.000837	-0.000102	-0.000527	-0.000289	6511.294827	44477.900820	3925.505034	22721.552480
9.535000	-0.000454	-0.000330	0.000136	0.000000	6512.083879	44428.448531	3926.459141	22708.323109
10.036000	0.000868	0.000000	0.000951	-0.000278	6525.603020	44486.606101	3929.260080	22721.048389
10.536000	0.001328	0.000662	0.000000	0.000328	6524.362720	44491.951977	3925.273921	22693.344338
11.036000	0.001511	0.000258	-0.001474	0.000041	6528.336543	44480.661448	3922.242250	22706.430977
11.536000	0.000000	0.000378	0.004106	0.000745	6509.633269	44424.931598	3934.743337	22674.302668
12.036500	-0.001749	-0.000149	-0.000464	0.002500	6480.230151	44207.570680	3918.556540	22594.400732
12.537000	-0.000273	0.000180	-0.002570	0.000154	6512.312344	44462.481471	3919.166321	22701.291851
13.034500	-0.001120	0.000270	-0.001793	-0.000716	6512.499849	44554.319540	3923.358873	22741.056158
13.537500	0.000593	-0.000055	-0.000283	-0.000132	6522.038595	44467.317047	3925.726144	22714.340975
14.035000	-0.004329	-0.000631	0.001383	0.002304	6460.357726	44180.281287	3923.756700	22603.277287
14.538000	-0.002159	0.000157	0.002920	0.001897	6481.841164	44293.982928	3928.733029	22621.818563
15.041000	0.000961	-0.000133	0.000793	-0.000830	6531.064927	44526.688817	3930.273093	22746.311965
15.536000	0.001103	0.000546	0.002184	-0.000428	6528.858148	44553.214289	3932.813553	22727.892242
16.038000	-0.003239	-0.000171	0.003881	0.002173	6470.513386	44236.438069	3930.488799	22609.231234
16.536000	0.000110	0.000376	0.000095	-0.000285	6519.248797	44523.230022	3927.086118	22721.364656
17.037500	0.001621	-0.000268	0.002054	-0.003676	6560.896762	44787.076937	3940.865431	22877.062947
17.536500	0.001084	0.000096	0.002287	0.000950	6517.046958	44378.424709	3929.537393	22664.968954
18.037500	-0.001794	-0.000706	-0.001298	0.001143	6491.210340	44283.569004	3919.885340	22656.134963
18.535000	-0.001020	0.000358	-0.000706	0.001387	6495.655075	44361.729362	3920.771006	22645.039332
19.035000	0.000387	0.000290	0.008794	0.001174	6509.275997	44375.566064	3945.773541	22654.718648
19.538500	0.000001	0.000672	0.003520	0.001491	6503.367734	44381.753004	3931.313683	22640.304642
20.036000	-0.003388	0.000233	-0.000602	0.001459	6475.231992	44342.907120	3920.852220	22641.727731
20.536000	-0.001119	-0.000091	-0.000483	0.000856	6499.285806	44369.560546	3922.692975	22669.249304
21.036500	-0.000967	0.000550	-0.000935	0.000985	6499.475188	44418.451687	3921.212935	22663.350585
21.536500	-0.000861	-0.000065	-0.001408	0.000861	6501.409628	44371.583034	3920.325841	22669.027943
22.037000	-0.001881	0.000019	0.002559	0.002793	6476.675312	44195.565357	3925.513073	22581.053115
22.537500	-0.001485	0.000041	-0.000611	0.000904	6495.808439	44377.557204	3922.244126	22667.052217
23.037500	0.001142	-0.000044	-0.000754	0.001323	6514.394811	44329.517748	3920.814126	22647.959650
23.535000	0.001507	0.000431	0.002634	0.001423	6516.622836	44365.298644	3929.215307	22643.396783
24.035500	-0.001349	-0.000576	0.002079	0.002308	6485.178951	44185.224859	3925.527050	22603.118523
24.535500	-0.000852	0.000083	-0.004452	0.000740	6502.505705	44397.227633	3912.911233	22674.543887
25.036000	-0.001531	-0.000047	0.006558	0.001249	6492.527718	44336.245493	3939.773906	22651.315022
25.536000	0.001869	-0.000092	0.002696	0.000932	6523.836421	44362.213972	3930.634634	22665.785072
26.036500	-0.000693	0.000150	-0.004359	0.001873	6494.321887	44295.591448	3910.284601	22622.879147
26.536500	0.001284	-0.000507	-0.001526	0.000809	6519.926878	44334.343856	3920.155442	22671.378111
27.037000	0.001006	0.000251	0.003199	-0.001144	6534.110711	44593.586863	3937.276429	22760.698384
27.541500	0.000333	0.000487	-0.001921	-0.000911	6526.427351	44593.845647	3923.530166	22749.983604
28.037500	-0.002380	-0.000016	0.003009	0.003520	6466.455816	44123.318744	3924.806671	22548.092746
28.540500	-0.000904	-0.000213	-0.002872	0.002471	6487.540330	44204.127192	3912.529483	22595.700062
29.038500	0.001364	0.000037	0.000758	-0.000419	6530.997879	44503.637870	3929.127620	22727.489792
29.538000	0.000213	0.000150	0.004958	-0.000404	6521.124984	44512.973186	3939.911547	22726.804827
30.036000	-0.002350	-0.000193	0.003491	-0.000788	6502.754872	44516.917086	3937.111211	22744.368814
30.539000	0.000270	0.000339	-0.004156	0.003392	6489.659705	44169.097985	3906.972448	22553.882009
31.036500	-0.001186	0.000177	0.000375	0.001881	6490.123305	44297.386682	3922.267192	22622.544108
31.536500	0.001334	-0.000139	0.002580	-0.000517	6531.571759	44496.229223	3934.064133	22731.989282
32.037000	-0.001432	-0.000091	-0.000364	0.003742	6472.505140	44095.203100	3915.660031	22538.043355
32.540000	-0.003600	-0.000073	-0.000404	0.004186	6450.780145	44054.751076	3914.432965	22517.896039
33.037500	0.000401	0.000549	-0.000170	-0.000359	6522.332428	44546.891446	3926.596559	22724.733264
33.538000	0.000619	-0.000309	0.003777	-0.002585	6543.060113	44678.118915	3942.504681	22826.820328
34.035500	-0.002754	0.000381	0.003452	0.002650	6470.586857	44243.620433	3928.166299	22587.579586
34.538500	-0.001869	0.000252	0.005364	0.001948	6483.840427	44298.239538	3934.886159	22619.505422
35.036000	-0.000774	0.000496	0.002829	0.002052	6492.135958	44311.497843	3928.099734	22614.738066
35.539000	-0.000206	0.001011	0.002975	0.002022	6497.158426	44363.380692	3928.551354	22616.105469
36.036500	-0.002081	0.000010	0.001613	0.002393	6478.343193	44232.737059	3924.117931	22599.232344
36.539500	0.001951	0.001337	0.001682	0.002799	6508.769659	44320.433069	3923.259015	22580.812895
37.037500	0.000485	0.001199	0.001113	0.002433	6499.510762	44342.101761	3922.738798	22597.410028
37.538000	0.000376	0.000209	0.003490	0.001614	6505.477031	44325.829134	3930.921036	22634.684529
38.035000	0.001662	0.000902	0.002678	0.003078	6503.986081	44252.477253	3925.091352	22568.147564
38.535000	0.000684	0.000848	0.003451	0.001863	6505.980354	44363.116066	3930.182703	22623.365940
39.036000	0.000014	0.000175	0.004222	0.001652	6502.115675	44319.046877	3932.704762	22632.968070
39.538500	-0.000618	-0.000169	-0.002184	0.001243	6500.238994	44325.210874	3917.381322	22651.596881
40.036000	-0.000917	0.000068	-0.001809	0.003393	6479.715118	44143.309848	3912.885688	22553.845128
40.539500	0.000727	-0.000113	-0.000327	0.001705	6507.662613	44286.521894	3920.926154	22630.525792
41.037000	-0.000661	0.000741	0.004646	0.002023	6493.334508	44337.592537	3932.840906	22616.083572
41.540000	-0.002250	0.000733	0.001277	0.002142	6479.033429	44325.555372	3923.902380	22610.676938
42.035000	-0.000890	-0.000296	-0.001777	0.002638	6486.254672	44180.397578	3914.876925	22588.110241
42.537500	-0.000203	0.000235	0.002873	0.001855	6498.585392	44305.460885	3928.720325	22623.733226
43.035500	-0.000927	-0.000171	0.001338	0.001648	6494.253160	44286.531544	3925.320949	22633.164105
43.538000	-0.000746	-0.000014	0.003594	0.001477	6497.197854	44317.655504	3931.539527	22640.927613
44.036000	0.001330	0.000692	0.000047	0.003434	6498.196992	44198.666911	3917.483348	22551.982294
44.538500	0.001453	0.000810	0.003200	0.000905	6520.539148	44450.866624	3931.997913	22666.983510
45.036500	0.002487	0.000768	0.001954	0.000449	6533.163501	44490.563735	3929.968581	22687.830106
45.539500	0.000423	0.000714	0.004229	-0.000214	6521.296184	44548.829211	3937.534584	22718.117089
46.037000	-0.002512	0.000102	0.000115	0.003276	6467.387561	44157.655368	3918.057806	22559.172437
46.540000	0.001531	0.000141	0.003534	-0.000255	6531.020953	44497.854168	3935.846653	22719.982810
47.035000	-0.000173	-0.000148	0.002716	-0.000699	6520.354607	44512.738296	3934.880599	22740.293282
47.540500	-0.000542	0.000214	-0.001919	0.002265	6492.303798	44264.337207	3915.462882	22605.067563
48.038000	-0.001156	0.001000	-0.000670	0.004213	6470.879553	44153.910706	3913.692531	22516.694471
48.538500	0.000502	0.000407	0.003452	0.000531	6515.670637	44448.096895	3933.607176	22684.045696
49.036000	0.000349	0.000742	0.003411	-0.000221	6520.725022	44552.107518	3935.440787	22718.411191
49.539000	0.002846	0.000323	0.003079	-0.002140	6558.238538	44696.088264	3939.541296	22806.359181
50.036500	-0.003347	-0.000451	0.001373	0.002035	6470.775202	44223.034634	3924.420187	22615.531410
50.539500	-0.000569	-0.000018	0.002835	0.004179	6476.055878	44060.623549	3922.679066	22518.226206
51.037000	0.014898	-0.018812	0.089938	0.401315	4356.025716	18720.896703	3357.613046	10736.878344
51.545500	-0.001531	-0.024169	-0.002206	-0.010013	6588.210446	43128.386224	3946.260709	23171.285957
52.034500	-0.028774	-0.051453	-0.026754	-0.192044	8188.729016	60331.673136	4440.606693	33747.386082
52.540500	-0.042729	-0.062145	-0.043099	-0.224899	8426.180503	63336.437447	4503.585145	36174.856924
53.035000	-0.008278	-0.098236	-0.025777	-0.276519	9648.323762	65535.000000	4794.040999	40379.749407
53.538000	-0.001673	-0.076195	-0.007792	-0.247708	9309.483563	64566.865964	4745.322106	37971.359432
54.036000	0.002296	-0.027339	0.001232	-0.125439	7769.320727	54982.329543	4302.313384	29355.469796
54.538500	-0.003754	-0.021153	0.001007	-0.109995	7531.812865	53884.716561	4249.618627	28429.804446
55.036500	-0.005221	-0.027129	-0.002290	-0.157417	8054.328936	58986.077666	4403.011854	31380.153869
55.539500	0.011626	-0.025415	0.015947	-0.161332	8309.152088	59717.093068	4486.098641	31638.400417
56.037500	0.020875	-0.010555	0.034419	-0.091746	7601.085936	52995.101223	4300.581955	27377.528039
56.540500	0.036846	0.000919	0.054851	-0.013549	6966.919066	45866.443126	4115.596985	23337.347208
57.034500	0.052035	0.012446	0.063741	0.038181	6634.724897	42071.052578	3993.451552	21037.712179
57.538000	0.063036	0.020910	0.079759	0.074520	6420.254566	39638.374140	3939.592163	19578.471415
58.035500	0.079627	0.031091	0.093623	0.112666	6247.403889	37349.793985	3878.454757	18172.520107
58.538000	0.092195	0.041915	0.109657	0.183655	5819.836090	32898.307330	3752.085513	15863.174928
59.036500	0.101385	0.046592	0.112867	0.163141	6030.044399	34687.419127	3804.682462	16492.197073
59.539500	0.115118	0.053382	0.127653	0.180484	6003.728419	33925.261436	3798.876430	15958.492377
60.036500	0.128829	0.062291	0.138682	0.167357	6204.742408	35538.042169	3855.136382	16360.508899
60.539500	0.139935	0.068788	0.153003	0.197826	6058.468488	33787.504892	3817.182482	15445.692271
61.037000	0.148316	0.073894	0.163415	0.231580	5876.412868	31818.304955	3764.751371	14504.425331
61.538000	0.151195	0.076526	0.168601	0.275521	5603.412989	29198.044987	3683.694139	13383.746093
62.038000	0.161991	0.086330	0.188847	0.337142	5299.370322	26244.851658	3604.778180	11991.445103
62.538000	0.160823	0.088753	0.181157	0.312700	5434.194130	27731.965327	3635.827018	12520.187278
63.036000	0.162838	0.093052	0.179312	0.308519	5471.317121	28220.811899	3640.252626	12613.654678
63.538000	0.169241	0.096219	0.182645	0.305393	5529.460295	28589.760734	3652.613817	12684.114789
64.038000	0.173127	0.098278	0.189302	0.306807	5544.749741	28627.910905	3662.783609	12652.180864
64.539500	0.172574	0.100121	0.186868	0.308760	5529.246702	28621.366027	3654.264257	12608.230569
65.037000	0.177554	0.102895	0.191780	0.311987	5540.083903	28594.611014	3657.527041	12536.062813
65.540000	0.179135	0.103923	0.195840	0.314438	5534.701741	28510.678929	3660.652855	12481.595156
66.037000	0.177803	0.106298	0.190673	0.321489	5483.385975	28236.825539	3637.200367	12326.614618
66.535000	0.181262	0.106976	0.195291	0.318570	5522.343502	28447.240503	3651.591492	12390.480001
67.035500	0.183228	0.106888	0.195596	0.318933	5532.220350	28420.763463	3651.479843	12382.511705
67.539000	0.186279	0.110080	0.200698	0.321429	5535.648704	28461.680158	3656.512822	12327.939549
68.035500	0.186780	0.109641	0.199012	0.321727	5536.904716	28418.380200	3652.678128	12321.434554
68.536000	0.187451	0.111930	0.201257	0.323970	5527.202873	28421.119112	3652.681588	12272.698642
69.036500	0.190630	0.111759	0.200286	0.323432	5550.207448	28442.612369	3651.848286	12284.367461
69.537000	0.191920	0.113198	0.197220	0.324721	5550.209967	28451.373040	3643.498059	12256.411819
70.037000	0.190515	0.114388	0.206227	0.330779	5504.216331	28167.065608	3649.141645	12126.233750
70.537000	0.193615	0.114154	0.205767	0.328255	5538.805706	28300.437038	3653.115634	12180.251216
71.034500	0.195732	0.115775	0.202235	0.330495	5538.039826	28264.292674	3642.053324	12132.292860
71.538000	0.194571	0.116433	0.213483	0.333598	5511.788967	28122.175313	3657.706907	12066.281012
72.035000	0.194226	0.115720	0.211342	0.338595	5479.246980	27793.209657	3643.972367	11960.929418
72.548500	0.196152	0.117016	0.211961	0.339169	5487.445620	27834.588696	3644.058471	11948.909771
73.035500	0.195878	0.116184	0.216300	0.341442	5472.028948	27657.271931	3648.010666	11901.466634
73.539500	0.199581	0.117058	0.215680	0.344288	5477.199147	27545.247841	3641.390663	11842.385694
74.036500	0.197856	0.117559	0.210580	0.350788	5427.921282	27207.713959	3619.617931	11708.934014
74.536500	0.199881	0.118274	0.215222	0.349481	5447.772462	27320.957009	3630.710793	11735.602143
75.037000	0.200485	0.118506	0.215336	0.351788	5437.610180	27204.722434	3626.604276	11688.570361
75.537500	0.199312	0.118173	0.213339	0.352763	5424.841604	27131.776463	3621.071736	11668.772526
76.035000	0.198803	0.118036	0.212438	0.357662	5392.985900	26852.920486	3610.382020	11569.955828
76.535500	0.200401	0.119665	0.222273	0.355859	5412.974830	27042.562498	3631.974904	11606.180544
77.035500	0.201083	0.120162	0.220102	0.357494	5407.358176	26979.522970	3624.850451	11573.323535
77.535500	0.200159	0.119068	0.220191	0.357119	5404.125727	26939.745860	3625.715753	11580.844922
78.036000	0.198928	0.118951	0.217299	0.361855	5369.284122	26673.073863	3611.605557	11486.251398
78.536000	0.203441	0.120746	0.218708	0.361407	5398.218946	26795.901967	3615.015674	11495.139173
79.036500	0.204765	0.120776	0.217278	0.362121	5401.798193	26758.411311	3611.077904	11480.955159
79.536500	0.204299	0.119233	0.222054	0.361943	5400.113118	26683.682851	3620.210342	11484.502961
80.037000	0.202436	0.119704	0.218283	0.367262	5358.290889	26420.107026	3603.536620	11379.493777
80.534500	0.203615	0.119509	0.221126	0.362601	5392.241462	26662.824424	3617.275584	11471.443519
81.034500	0.204150	0.120672	0.220552	0.364036	5386.984057	26647.958534	3613.573281	11443.031551
81.535000	0.206556	0.120692	0.224299	0.364599	5397.767946	26618.350918	3619.446998	11431.906171
82.035000	0.203958	0.120940	0.221744	0.368699	5358.783491	26409.250404	3607.219540	11351.349768
82.539000	0.204398	0.119326	0.219226	0.363651	5390.682527	26595.563956	3611.845224	11450.641168
83.035500	0.203658	0.119347	0.221214	0.363752	5385.765793	26591.194662	3615.314557	11448.637107
83.540500	0.206934	0.121698	0.222938	0.365147	5396.773057	26643.341259	3615.921393	11421.097296
84.036500	0.201443	0.119741	0.222751	0.367845	5349.205614	26390.564650	3610.618313	11368.055224
84.534500	0.205085	0.119784	0.220704	0.364085	5392.164533	26596.877674	3613.763286	11442.063947
85.034500	0.205422	0.121062	0.221145	0.364881	5389.472958	26623.096203	3613.109111	11426.334847
85.540000	0.206407	0.120396	0.224541	0.364218	5399.129445	26622.931554	3620.602610	11439.429064
86.038000	0.203255	0.118914	0.220516	0.367176	5363.519440	26382.041487	3607.756214	11381.175492
86.535500	0.207287	0.121192	0.225768	0.365073	5399.272186	26619.709185	3621.292176	11422.543092
87.036000	0.203684	0.120229	0.222871	0.363381	5388.084037	26659.514184	3619.058706	11455.978583
87.538000	0.209074	0.120939	0.217370	0.364625	5412.426100	26630.350619	3606.670318	11431.386469
88.036500	0.203431	0.119129	0.220290	0.367313	5363.743310	26386.267061	3607.093243	11378.484388
88.539000	0.204837	0.119301	0.216653	0.362923	5397.514382	26633.843107	3608.468468	11465.044765
89.036500	0.203150	0.119905	0.220788	0.363968	5381.544582	26609.839492	3614.131661	11444.370168
89.537500	0.206546	0.119967	0.218693	0.364032	5401.039971	26609.717213	3610.171427	11443.106965
90.034500	0.204952	0.119110	0.223971	0.369635	5359.117097	26260.216735	3609.576829	11333.060626
90.535000	0.206477	0.118794	0.220836	0.364231	5399.462261	26535.071279	3613.736846	11439.174402
91.035000	0.205762	0.119717	0.224328	0.365230	5389.422414	26530.941214	3618.334506	11419.458175
91.535500	0.207573	0.119418	0.217870	0.365894	5396.135194	26478.665271	3605.271355	11406.366213
92.035500	0.206127	0.117527	0.228676	0.369991	5363.851267	26156.332914	3617.569130	11326.111037
92.536000	0.207270	0.119086	0.227205	0.366687	5389.720940	26417.758699	3620.963772	11390.777439
93.036000	0.210260	0.118679	0.217628	0.366777	5406.737062	26390.912718	3603.228804	11389.020249
93.575500	0.204529	0.116847	0.225910	0.365178	5382.530725	26378.361096	3621.360686	11420.483413
94.040000	0.202721	0.117554	0.224024	0.372909	5327.516637	26002.306819	3603.705590	11269.405775
94.537500	0.207865	0.117359	0.225986	0.367660	5387.513222	26272.266644	3616.906383	11371.687881
95.034000	0.206725	0.114743	0.226827	0.365619	5392.783918	26241.419908	3622.245905	11411.796729
95.535000	0.207169	0.116138	0.221028	0.367460	5384.615861	26217.484830	3608.172598	11375.604680
96.036000	0.203886	0.116983	0.225581	0.374457	5325.327892	25890.049433	3603.722115	11239.474559
