sample name	sample
index	489
start time	 03-11-2021  02:08:16 PM


Wavelength (nm)	Absorbance
494.344910	NaN
494.563924	NaN
494.782919	NaN
495.001897	-0.263922
495.220856	0.110819
495.439797	0.150363
495.658719	0.040106
495.877624	-0.118956
496.096510	-0.059642
496.315378	-0.308182
496.534227	-0.290526
496.753059	-0.318668
496.971872	-0.217073
497.190667	0.051358
497.409444	0.062992
497.628203	0.066467
497.846943	0.068878
498.065665	0.069651
498.284369	0.071545
498.503055	0.070040
498.721723	0.069908
498.940372	0.070911
499.159003	0.070963
499.377616	0.070047
499.596210	0.069963
499.814787	0.071724
500.033345	0.070657
500.251885	0.070882
500.470406	0.072423
500.688910	0.072109
500.907395	0.071204
501.125862	0.071885
501.344311	0.072597
501.562742	0.073948
501.781154	0.071764
501.999548	0.072562
502.217924	0.071871
502.436282	0.071969
502.654621	0.072271
502.872942	0.072191
503.091245	0.072528
503.309530	0.072298
503.527797	0.071372
503.746045	0.072346
503.964275	0.073028
504.182487	0.074089
504.400681	0.073304
504.618856	0.073937
504.837013	0.074289
505.055152	0.073564
505.273273	0.073408
505.491376	0.072429
505.709460	0.071777
505.927526	0.071194
506.145574	0.069742
506.363604	0.070142
506.581615	0.070040
506.799608	0.069616
507.017583	0.069467
507.235540	0.070383
507.453478	0.071067
507.671399	0.070566
507.889301	0.070507
508.107185	0.071973
508.325050	0.072288
508.542898	0.071959
508.760727	0.071881
508.978538	0.072374
509.196330	0.072062
509.414105	0.072660
509.631861	0.073759
509.849599	0.074357
510.067319	0.073302
510.285021	0.073388
510.502704	0.073258
510.720369	0.073769
510.938016	0.074402
511.155645	0.074215
511.373255	0.074172
511.590848	0.074036
511.808422	0.074181
512.025977	0.074373
512.243515	0.074058
512.461034	0.073888
512.678536	0.074099
512.896018	0.073512
513.113483	0.074538
513.330930	0.073816
513.548358	0.074209
513.765768	0.073909
513.983160	0.074064
514.200533	0.074520
514.417889	0.074371
514.635226	0.074036
514.852545	0.073681
515.069845	0.073465
515.287128	0.073590
515.504392	0.072624
515.721638	0.072777
515.938866	0.073269
516.156075	0.073241
516.373267	0.074153
516.590440	0.074464
516.807594	0.075341
517.024731	0.075286
517.241850	0.076120
517.458950	0.076665
517.676032	0.077165
517.893095	0.077527
518.110141	0.077787
518.327168	0.077541
518.544177	0.077498
518.761168	0.077310
518.978141	0.077080
519.195095	0.076292
519.412031	0.076114
519.628949	0.075026
519.845849	0.074198
520.062731	0.073762
520.279594	0.073756
520.496439	0.073464
520.713266	0.073585
520.930074	0.073943
521.146865	0.074470
521.363637	0.074164
521.580391	0.074701
521.797127	0.074827
522.013844	0.074741
522.230543	0.075358
522.447224	0.076044
522.663887	0.076038
522.880532	0.075549
523.097158	0.075621
523.313766	0.076604
523.530356	0.077023
523.746928	0.077298
523.963481	0.078354
524.180017	0.078228
524.396534	0.078313
524.613032	0.078662
524.829513	0.078913
525.045975	0.078814
525.262420	0.078600
525.478845	0.078803
525.695253	0.079021
525.911643	0.078240
526.128014	0.078982
526.344367	0.078992
526.560702	0.078660
526.777018	0.079256
526.993316	0.079584
527.209597	0.079726
527.425858	0.079026
527.642102	0.079862
527.858328	0.080509
528.074535	0.079985
528.290724	0.079956
528.506894	0.080444
528.723047	0.080374
528.939181	0.080678
529.155297	0.081046
529.371395	0.081806
529.587475	0.081245
529.803536	0.081093
530.019579	0.080944
530.235604	0.081111
530.451611	0.081601
530.667600	0.081004
530.883570	0.081342
531.099522	0.081227
531.315456	0.081129
531.531372	0.082009
531.747269	0.082532
531.963148	0.083039
532.179009	0.083932
532.394852	0.083880
532.610676	0.084550
532.826482	0.084505
533.042271	0.084665
533.258040	0.084691
533.473792	0.084455
533.689525	0.083911
533.905240	0.083897
534.120937	0.083442
534.336616	0.082744
534.552277	0.082723
534.767919	0.082607
534.983543	0.083062
535.199149	0.083406
535.414736	0.083298
535.630306	0.084150
535.845857	0.084356
536.061390	0.084413
536.276904	0.084713
536.492401	0.084944
536.707879	0.085277
536.923339	0.085557
537.138781	0.085907
537.354204	0.086026
537.569610	0.085947
537.784997	0.085972
538.000366	0.086168
538.215716	0.086816
538.431049	0.086796
538.646363	0.086404
538.861659	0.086047
539.076937	0.085988
539.292196	0.086523
539.507438	0.086613
539.722661	0.086825
539.937866	0.086908
540.153052	0.087208
540.368221	0.087475
540.583371	0.088020
540.798503	0.088207
541.013617	0.088474
541.228712	0.088437
541.443789	0.088498
541.658848	0.089089
541.873889	0.089424
542.088912	0.088858
542.303916	0.088822
542.518902	0.088861
542.733870	0.088900
542.948820	0.089027
543.163752	0.089009
543.378665	0.089278
543.593560	0.088826
543.808437	0.088328
544.023295	0.088757
544.238136	0.089143
544.452958	0.089255
544.667762	0.089855
544.882548	0.089814
545.097315	0.089671
545.312064	0.089602
545.526795	0.089997
545.741508	0.090325
545.956203	0.090374
546.170879	0.090692
546.385537	0.090860
546.600177	0.090739
546.814799	0.090563
547.029402	0.090639
547.243988	0.090983
547.458555	0.090814
547.673103	0.091106
547.887634	0.091062
548.102146	0.091038
548.316640	0.091404
548.531116	0.091475
548.745574	0.092157
548.960013	0.092233
549.174435	0.092550
549.388838	0.092939
549.603222	0.092983
549.817589	0.093179
550.031937	0.093012
550.246267	0.093019
550.460579	0.092842
550.674873	0.092665
550.889148	0.092774
551.103405	0.092281
551.317644	0.092137
551.531865	0.092567
551.746068	0.092589
551.960252	0.092985
552.174418	0.093116
552.388566	0.093662
552.602696	0.093696
552.816807	0.093777
553.030900	0.094220
553.244975	0.094516
553.459032	0.094230
553.673070	0.094528
553.887091	0.094459
554.101093	0.094136
554.315077	0.093832
554.529042	0.093642
554.742990	0.094039
554.956919	0.094112
555.170830	0.093946
555.384722	0.094189
555.598597	0.094155
555.812453	0.094261
556.026291	0.094719
556.240111	0.094776
556.453913	0.095008
556.667696	0.095182
556.881461	0.095062
557.095208	0.095546
557.308937	0.095454
557.522647	0.095701
557.736339	0.095981
557.950013	0.096226
558.163669	0.096290
558.377307	0.096613
558.590926	0.096261
558.804527	0.096333
559.018110	0.096267
559.231675	0.096581
559.445221	0.096565
559.658749	0.096271
559.872259	0.096077
560.085751	0.096572
560.299225	0.096637
560.512680	0.097172
560.726117	0.097488
560.939536	0.097353
561.152937	0.097554
561.366319	0.097675
561.579683	0.097806
561.793029	0.098115
562.006357	0.098304
562.219667	0.098422
562.432958	0.098113
562.646231	0.098161
562.859486	0.098285
563.072723	0.098258
563.285941	0.098293
563.499141	0.098378
563.712323	0.098590
563.925487	0.098346
564.138632	0.098004
564.351760	0.098197
564.564869	0.098268
564.777960	0.098445
564.991032	0.098271
565.204087	0.098376
565.417123	0.098797
565.630141	0.098594
565.843140	0.098802
566.056122	0.099455
566.269085	0.099827
566.482030	0.100076
566.694957	0.100101
566.907866	0.100780
567.120756	0.100805
567.333628	0.100668
567.546482	0.100579
567.759318	0.100548
567.972135	0.100558
568.184935	0.100693
568.397716	0.100730
568.610478	0.101234
568.823223	0.100896
569.035949	0.101072
569.248657	0.101025
569.461347	0.101311
569.674019	0.101519
569.886672	0.101552
570.099308	0.101536
570.311925	0.101466
570.524523	0.101394
570.737104	0.101505
570.949666	0.101544
571.162210	0.101620
571.374736	0.101868
571.587244	0.102008
571.799733	0.102144
572.012205	0.102158
572.224658	0.102201
572.437092	0.102406
572.649509	0.102443
572.861907	0.102551
573.074287	0.102833
573.286649	0.102647
573.498993	0.102533
573.711318	0.102475
573.923625	0.102817
574.135914	0.102988
574.348185	0.102981
574.560438	0.103054
574.772672	0.103345
574.984888	0.103714
575.197086	0.104190
575.409266	0.104437
575.621427	0.104624
575.833570	0.104268
576.045695	0.104130
576.257802	0.104037
576.469890	0.104133
576.681961	0.104028
576.894013	0.103387
577.106046	0.103037
577.318062	0.103151
577.530059	0.102983
577.742039	0.103462
577.954000	0.104008
578.165942	0.104136
578.377867	0.104337
578.589773	0.104348
578.801661	0.105099
579.013531	0.105621
579.225382	0.105529
579.437216	0.105785
579.649031	0.105781
579.860828	0.105668
580.072606	0.105677
580.284367	0.105940
580.496109	0.106155
580.707833	0.105776
580.919539	0.105736
581.131227	0.106102
581.342896	0.106226
581.554547	0.106247
581.766180	0.106400
581.977795	0.106752
582.189391	0.106661
582.400969	0.106755
582.612529	0.107126
582.824071	0.107037
583.035595	0.106993
583.247100	0.107241
583.458587	0.107144
583.670056	0.107014
583.881506	0.106741
584.092939	0.106840
584.304353	0.106863
584.515749	0.106958
584.727127	0.107132
584.938486	0.107302
585.149828	0.107345
585.361151	0.107722
585.572456	0.107893
585.783742	0.108057
585.995011	0.108142
586.206261	0.108208
586.417493	0.108244
586.628706	0.108202
586.839902	0.108270
587.051079	0.108335
587.262238	0.108468
587.473379	0.108599
587.684502	0.108796
587.895606	0.108706
588.106692	0.108926
588.317760	0.109261
588.528810	0.109634
588.739841	0.109838
588.950855	0.109620
589.161850	0.109682
589.372827	0.109834
589.583785	0.109903
589.794726	0.110230
590.005648	0.110400
590.216552	0.110218
590.427437	0.110114
590.638305	0.110244
590.849154	0.110462
591.059985	0.110539
591.270798	0.110554
591.481592	0.110581
591.692369	0.110718
591.903127	0.110700
592.113867	0.110770
592.324588	0.110589
592.535292	0.110413
592.745977	0.110708
592.956644	0.110516
593.167293	0.110465
593.377923	0.111078
593.588536	0.110953
593.799130	0.111381
594.009706	0.111794
594.220263	0.112630
594.430803	0.112741
594.641324	0.112749
594.851827	0.113246
595.062312	0.113583
595.272778	0.113505
595.483227	0.113758
595.693657	0.113691
595.904069	0.113638
596.114462	0.113214
596.324838	0.113481
596.535195	0.113480
596.745534	0.113699
596.955855	0.113806
597.166157	0.113503
597.376441	0.113282
597.586707	0.113313
597.796955	0.113491
598.007185	0.113535
598.217396	0.113578
598.427589	0.113755
598.637764	0.113612
598.847921	0.113486
599.058060	0.113754
599.268180	0.114245
599.478282	0.114391
599.688366	0.114359
599.898431	0.114576
600.108479	0.114959
600.318508	0.114995
600.528519	0.115091
600.738511	0.115520
600.948486	0.115746
601.158442	0.115782
601.368380	0.115981
601.578300	0.116077
601.788202	0.116417
601.998085	0.116300
602.207950	0.116672
602.417797	0.116644
602.627626	0.116658
602.837436	0.116990
603.047228	0.117038
603.257002	0.116915
603.466758	0.116811
603.676496	0.116815
603.886215	0.116817
604.095916	0.117085
604.305599	0.117163
604.515264	0.117359
604.724910	0.117380
604.934538	0.117658
605.144148	0.118040
605.353740	0.118488
605.563314	0.118513
605.772869	0.118677
605.982406	0.118738
606.191925	0.119200
606.401425	0.118976
606.610908	0.118934
606.820372	0.118700
607.029818	0.118925
607.239246	0.118689
607.448655	0.118817
607.658047	0.118703
607.867420	0.118709
608.076775	0.118443
608.286111	0.118533
608.495430	0.118678
608.704730	0.118988
608.914012	0.118624
609.123275	0.119127
609.332521	0.119020
609.541748	0.119277
609.750957	0.119163
609.960148	0.119377
610.169321	0.119545
610.378475	0.119513
610.587611	0.119518
610.796729	0.119633
611.005829	0.119565
611.214910	0.119903
611.423974	0.119931
611.633019	0.120058
611.842045	0.120142
612.051054	0.120174
612.260044	0.120020
612.469017	0.120145
612.677970	0.120272
612.886906	0.120493
613.095824	0.120390
613.304723	0.120420
613.513604	0.120492
613.722467	0.120723
613.931311	0.120934
614.140138	0.121158
614.348946	0.121095
614.557736	0.121236
614.766507	0.120865
614.975261	0.120972
615.183996	0.121030
615.392713	0.121268
615.601412	0.121253
615.810092	0.121327
616.018754	0.121411
616.227399	0.121437
616.436024	0.121714
616.644632	0.122134
616.853222	0.122378
617.061793	0.122682
617.270346	0.122749
617.478880	0.122791
617.687397	0.123236
617.895895	0.123564
618.104375	0.123844
618.312837	0.123505
618.521281	0.123610
618.729706	0.123541
618.938113	0.123592
619.146502	0.123697
619.354873	0.123726
619.563226	0.123412
619.771560	0.123433
619.979876	0.123399
620.188174	0.123553
620.396453	0.123677
620.604715	0.123791
620.812958	0.123693
621.021183	0.123521
621.229390	0.123793
621.437578	0.124025
621.645748	0.124051
621.853900	0.124480
622.062034	0.124998
622.270150	0.124892
622.478247	0.124882
622.686326	0.125073
622.894387	0.125478
623.102430	0.125568
623.310454	0.125412
623.518461	0.125326
623.726449	0.125397
623.934418	0.124938
624.142370	0.125222
624.350303	0.125207
624.558218	0.125416
624.766115	0.125247
624.973994	0.125147
625.181855	0.125280
625.389697	0.125538
625.597521	0.125344
625.805327	0.125621
626.013114	0.125507
626.220883	0.125404
626.428634	0.125398
626.636367	0.125440
626.844082	0.125543
627.051778	0.125923
627.259457	0.125959
627.467117	0.126185
627.674758	0.126330
627.882382	0.126698
628.089987	0.127128
628.297574	0.126991
628.505143	0.127159
628.712694	0.127174
628.920226	0.127182
629.127740	0.127337
629.335236	0.127524
629.542714	0.127752
629.750174	0.127771
629.957615	0.127872
630.165038	0.127884
630.372443	0.127950
630.579829	0.128239
630.787198	0.128185
630.994548	0.128171
631.201880	0.127975
631.409194	0.128005
631.616489	0.127847
631.823766	0.127874
632.031025	0.128341
632.238266	0.128283
632.445489	0.128058
632.652693	0.128053
632.859879	0.128108
633.067047	0.128308
633.274197	0.128172
633.481329	0.128358
633.688442	0.128516
633.895537	0.128474
634.102614	0.128638
634.309672	0.128815
634.516713	0.128868
634.723735	0.129032
634.930739	0.129102
635.137724	0.129303
635.344692	0.129387
635.551641	0.129495
635.758572	0.129726
635.965485	0.129958
636.172379	0.130257
636.379256	0.130350
636.586114	0.130324
636.792954	0.130532
636.999775	0.130581
637.206579	0.130713
637.413364	0.130774
637.620131	0.130590
637.826880	0.130678
638.033610	0.130627
638.240323	0.130755
638.447017	0.130753
638.653692	0.130812
638.860350	0.130910
639.066990	0.130987
639.273611	0.130899
639.480214	0.131209
639.686798	0.131085
639.893365	0.131050
640.099913	0.131213
640.306443	0.131437
640.512955	0.131463
640.719449	0.131655
640.925924	0.131666
641.132381	0.132014
641.338820	0.131903
641.545241	0.132096
641.751644	0.132110
641.958028	0.131974
642.164394	0.132326
642.370742	0.132378
642.577071	0.132346
642.783383	0.132434
642.989676	0.132490
643.195951	0.132668
643.402207	0.132907
643.608446	0.133096
643.814666	0.133465
644.020868	0.133440
644.227052	0.133568
644.433218	0.133733
644.639365	0.133930
644.845494	0.134019
645.051605	0.133941
645.257698	0.134134
645.463772	0.134132
645.669828	0.133990
645.875866	0.133931
646.081886	0.133945
646.287888	0.133927
646.493871	0.134069
646.699836	0.134028
646.905783	0.134312
647.111712	0.134211
647.317622	0.134451
647.523514	0.134491
647.729388	0.134608
647.935244	0.134649
648.141082	0.134773
648.346901	0.134730
648.552702	0.134804
648.758485	0.135077
648.964250	0.135070
649.169996	0.134968
649.375724	0.135364
649.581434	0.135318
649.787126	0.135553
649.992800	0.135591
650.198455	0.135437
650.404092	0.135457
650.609711	0.135279
650.815311	0.135443
651.020894	0.135794
651.226458	0.135758
651.432004	0.135840
651.637532	0.135615
651.843041	0.135709
652.048532	0.135756
652.254006	0.135993
652.459460	0.136151
652.664897	0.136312
652.870315	0.136199
653.075716	0.136300
653.281097	0.136452
653.486461	0.136738
653.691807	0.136870
653.897134	0.137089
654.102443	0.136944
654.307734	0.137054
654.513006	0.137162
654.718261	0.137286
654.923497	0.137415
655.128715	0.137597
655.333915	0.137752
655.539096	0.137829
655.744259	0.138062
655.949404	0.138322
656.154531	0.138220
656.359640	0.138061
656.564730	0.138281
656.769802	0.138396
656.974856	0.138328
657.179892	0.138336
657.384909	0.138428
657.589908	0.138615
657.794889	0.138682
657.999852	0.138920
658.204797	0.139292
658.409723	0.139443
658.614631	0.139584
658.819521	0.139804
659.024393	0.139874
659.229246	0.140047
659.434081	0.139884
659.638898	0.139804
659.843697	0.139878
660.048478	0.139980
660.253240	0.139979
660.457984	0.139931
660.662710	0.140005
660.867417	0.140022
661.072107	0.140008
661.276778	0.140337
661.481431	0.140710
661.686066	0.140819
661.890682	0.140703
662.095281	0.140910
662.299861	0.140992
662.504422	0.141035
662.708966	0.141196
662.913491	0.141460
663.117999	0.141453
663.322488	0.141390
663.526958	0.141526
663.731411	0.141624
663.935845	0.141713
664.140261	0.141855
664.344659	0.141921
664.549038	0.142280
664.753400	0.142309
664.957743	0.142619
665.162068	0.142865
665.366375	0.142897
665.570663	0.143065
665.774933	0.143198
665.979185	0.143428
666.183419	0.143583
666.387635	0.143471
666.591832	0.143433
666.796011	0.143376
667.000172	0.143496
667.204315	0.143545
667.408439	0.143521
667.612545	0.143524
667.816634	0.143508
668.020703	0.143677
668.224755	0.143884
668.428788	0.144217
668.632803	0.144502
668.836800	0.144539
669.040779	0.144852
669.244739	0.145125
669.448681	0.145350
669.652605	0.145454
669.856511	0.145379
670.060399	0.145316
670.264268	0.145277
670.468119	0.145238
670.671952	0.145278
670.875767	0.145324
671.079563	0.145278
671.283341	0.145216
671.487101	0.145357
671.690843	0.145530
671.894567	0.145704
672.098272	0.145711
672.301959	0.145805
672.505628	0.146101
672.709278	0.146110
672.912911	0.146449
673.116525	0.146663
673.320121	0.146499
673.523699	0.146862
673.727258	0.147045
673.930799	0.147198
674.134322	0.147240
674.337827	0.147154
674.541314	0.147444
674.744782	0.147411
674.948232	0.147494
675.151664	0.147908
675.355078	0.147911
675.558474	0.147838
675.761851	0.148029
675.965210	0.148155
676.168551	0.148341
676.371873	0.148304
676.575178	0.148494
676.778464	0.148678
676.981732	0.148673
677.184981	0.148783
677.388213	0.149037
677.591426	0.148849
677.794621	0.148858
677.997798	0.148888
678.200956	0.149100
678.404097	0.149199
678.607219	0.149181
678.810323	0.149165
679.013408	0.149188
679.216476	0.149388
679.419525	0.149707
679.622556	0.150079
679.825569	0.150304
680.028563	0.150410
680.231540	0.150538
680.434498	0.150698
680.637438	0.151043
680.840359	0.151250
681.043263	0.151333
681.246148	0.151584
681.449015	0.151470
681.651864	0.151702
681.854694	0.151651
682.057506	0.151811
682.260301	0.151908
682.463076	0.151896
682.665834	0.151993
682.868573	0.152074
683.071295	0.151930
683.273998	0.152184
683.476682	0.152130
683.679349	0.152252
683.881997	0.152300
684.084627	0.152215
684.287239	0.152387
684.489833	0.152446
684.692408	0.152688
684.894965	0.152892
685.097504	0.152971
685.300025	0.153199
685.502527	0.153327
685.705012	0.153325
685.907478	0.153557
686.109925	0.153452
686.312355	0.153530
686.514766	0.153458
686.717159	0.153653
686.919534	0.153657
687.121891	0.153753
687.324230	0.153872
687.526550	0.154114
687.728852	0.154357
687.931136	0.154682
688.133401	0.154991
688.335649	0.155023
688.537878	0.154986
688.740089	0.155116
688.942281	0.155169
689.144456	0.155253
689.346612	0.155231
689.548750	0.155000
689.750870	0.155191
689.952971	0.155166
690.155055	0.155454
690.357120	0.155590
690.559167	0.155734
690.761195	0.155757
690.963206	0.155792
691.165198	0.155805
691.367172	0.156086
691.569128	0.155870
691.771065	0.155742
691.972984	0.155601
692.174885	0.155861
692.376768	0.156010
692.578633	0.156189
692.780479	0.156290
692.982308	0.156512
693.184118	0.156630
693.385909	0.156812
693.587683	0.157163
693.789438	0.157376
693.991175	0.157180
694.192894	0.157273
694.394595	0.157333
694.596277	0.157319
694.797941	0.157305
694.999587	0.157236
695.201215	0.157389
695.402824	0.157316
695.604416	0.157459
695.805989	0.157608
696.007543	0.157585
696.209080	0.157492
696.410598	0.157634
696.612099	0.157771
696.813580	0.157920
697.015044	0.157916
697.216490	0.158061
697.417917	0.158163
697.619326	0.158233
697.820717	0.158182
698.022089	0.158381
698.223444	0.158537
698.424780	0.158669
698.626098	0.158737
698.827397	0.158896
699.028679	0.158990
699.229942	0.158874
699.431187	0.159046
699.632414	0.159311
699.833622	0.159428
700.034813	0.159435
700.235985	0.159320
700.437139	0.159562
700.638274	0.159748
700.839392	0.159724
701.040491	0.159979
701.241572	0.160108
701.442635	0.160102
701.643679	0.160194
701.844706	0.160403
702.045714	0.160516
702.246704	0.160591
702.447675	0.160638
702.648629	0.160743
702.849564	0.160515
703.050481	0.160599
703.251380	0.160673
703.452260	0.160781
703.653122	0.160824
703.853966	0.160726
704.054792	0.160451
704.255600	0.160526
704.456389	0.160648
704.657160	0.160710
704.857913	0.160731
705.058648	0.160712
705.259365	0.160506
705.460063	0.160394
705.660743	0.160659
705.861405	0.160956
706.062048	0.161024
706.262674	0.161004
706.463281	0.160990
706.663870	0.161051
706.864441	0.160963
707.064993	0.161085
707.265527	0.161050
707.466043	0.161028
707.666541	0.161028
707.867021	0.160915
708.067482	0.160759
708.267925	0.161030
708.468350	0.160988
708.668757	0.161209
708.869145	0.161356
709.069516	0.161573
709.269868	0.161568
709.470201	0.161588
709.670517	0.161644
709.870814	0.161927
710.071093	0.161899
710.271354	0.161829
710.471597	0.161854
710.671821	0.161893
710.872028	0.161778
711.072216	0.161755
711.272385	0.161631
711.472537	0.161511
711.672670	0.161334
711.872785	0.161293
712.072882	0.161333
712.272961	0.161243
712.473021	0.160928
712.673063	0.161034
712.873087	0.160875
713.073093	0.160863
713.273081	0.160804
713.473050	0.160735
713.673001	0.160756
713.872934	0.160908
714.072849	0.160933
714.272745	0.161131
714.472623	0.161076
714.672483	0.161404
714.872325	0.161479
715.072148	0.161683
715.271954	0.161850
715.471741	0.162002
715.671509	0.161924
715.871260	0.161894
716.070992	0.161931
716.270707	0.161742
716.470403	0.161628
716.670080	0.161689
716.869740	0.161551
717.069381	0.161536
717.269004	0.161512
717.468609	0.161316
717.668195	0.161164
717.867764	0.161162
718.067314	0.161077
718.266846	0.161080
718.466360	0.161078
718.665855	0.161122
718.865332	0.161016
719.064791	0.160745
719.264232	0.160722
719.463655	0.160670
719.663059	0.160569
719.862445	0.160682
720.061813	0.160651
720.261163	0.160504
720.460494	0.160226
720.659807	0.160222
720.859102	0.160246
721.058379	0.160281
721.257638	0.160292
721.456878	0.160443
721.656100	0.160494
721.855304	0.160325
722.054490	0.160332
722.253657	0.160420
722.452806	0.160336
722.651937	0.160392
722.851050	0.160271
723.050145	0.160380
723.249221	0.160206
723.448279	0.160446
723.647319	0.160418
723.846340	0.160437
724.045344	0.160465
724.244329	0.160500
724.443296	0.160500
724.642245	0.160594
724.841175	0.160582
725.040088	0.160418
725.238982	0.160194
725.437857	0.160305
725.636715	0.160209
725.835554	0.160188
726.034376	0.160313
726.233179	0.160301
726.431963	0.160397
726.630730	0.160245
726.829478	0.160461
727.028208	0.160454
727.226920	0.160291
727.425614	0.160198
727.624289	0.160072
727.822946	0.159850
728.021585	0.159996
728.220206	0.159844
728.418808	0.159770
728.617392	0.159704
728.815958	0.159698
729.014506	0.160042
729.213036	0.160248
729.411547	0.160477
729.610040	0.160489
729.808515	0.160347
730.006972	0.160296
730.205410	0.160320
730.403831	0.160200
730.602233	0.160148
730.800616	0.159775
730.998982	0.159550
731.197329	0.159094
731.395658	0.158873
731.593969	0.158448
731.792262	0.158316
731.990536	0.158356
732.188793	0.158182
732.387031	0.157918
732.585250	0.157951
732.783452	0.157647
732.981635	0.157743
733.179800	0.157839
733.377947	0.158043
733.576076	0.157879
733.774186	0.157799
733.972278	0.157655
734.170352	0.157418
734.368408	0.157269
734.566446	0.157355
734.764465	0.157315
734.962466	0.157161
735.160449	0.156912
735.358413	0.156955
735.556360	0.156889
735.754288	0.156729
735.952198	0.157045
736.150090	0.156735
736.347963	0.156893
736.545818	0.156812
736.743655	0.156849
736.941474	0.157079
737.139275	0.157023
737.337057	0.156709
737.534821	0.156769
737.732567	0.156400
737.930295	0.156602
738.128005	0.156377
738.325696	0.156243
738.523369	0.155979
738.721024	0.155292
738.918660	0.155276
739.116279	0.155362
739.313879	0.155313
739.511461	0.155383
739.709024	0.155291
739.906570	0.155067
740.104097	0.154953
740.301606	0.154905
740.499097	0.155057
740.696569	0.154929
740.894024	0.154934
741.091460	0.154698
741.288878	0.154401
741.486277	0.154231
741.683659	0.154294
741.881022	0.154298
742.078367	0.154118
742.275694	0.154335
742.473002	0.153929
742.670293	0.153682
742.867565	0.153817
743.064819	0.153963
743.262054	0.153793
743.459272	0.153557
743.656471	0.153363
743.853652	0.153468
744.050815	0.153294
744.247959	0.153645
744.445085	0.153563
744.642194	0.153490
744.839283	0.153422
745.036355	0.153552
745.233408	0.153685
745.430444	0.153522
745.627461	0.153408
745.824459	0.153374
746.021440	0.153242
746.218402	0.153243
746.415346	0.153253
746.612272	0.153143
746.809180	0.153104
747.006069	0.153077
747.202940	0.153201
747.399793	0.153181
747.596628	0.152994
747.793444	0.153048
747.990243	0.153005
748.187023	0.152901
748.383784	0.152781
748.580528	0.152663
748.777253	0.152423
748.973960	0.152454
749.170649	0.152185
749.367320	0.152210
749.563973	0.151963
749.760607	0.151938
749.957223	0.151622
750.153821	0.151591
750.350400	0.151445
750.546962	0.151365
750.743505	0.151344
750.940030	0.151363
751.136536	0.151123
751.333025	0.150941
751.529495	0.150707
751.725947	0.150596
751.922381	0.150441
752.118796	0.150260
752.315194	0.150110
752.511573	0.149693
752.707934	0.149643
752.904276	0.149540
753.100601	0.149434
753.296907	0.149420
753.493195	0.149551
753.689465	0.149447
753.885716	0.149449
754.081949	0.149266
754.278164	0.149480
754.474361	0.149351
754.670540	0.149315
754.866700	0.149156
755.062843	0.149064
755.258967	0.148820
755.455072	0.148707
755.651160	0.148590
755.847229	0.148582
756.043280	0.148382
756.239313	0.148404
756.435328	0.148280
756.631324	0.148324
756.827302	0.148088
757.023262	0.148168
757.219204	0.148396
757.415127	0.148183
757.611033	0.147985
757.806920	0.147887
758.002788	0.147677
758.198639	0.147611
758.394471	0.147504
758.590286	0.147490
758.786081	0.147126
758.981859	0.146892
759.177619	0.146924
759.373360	0.147207
759.569083	0.147177
759.764788	0.147211
759.960474	0.147126
760.156143	0.146919
760.351793	0.146869
760.547425	0.147041
760.743038	0.146765
760.938634	0.146699
761.134211	0.146741
761.329770	0.146689
761.525311	0.146460
761.720833	0.146539
761.916338	0.146623
762.111824	0.146523
762.307292	0.146195
762.502741	0.146247
762.698173	0.146222
762.893586	0.145897
763.088981	0.145668
763.284358	0.145826
763.479716	0.145485
763.675057	0.145388
763.870379	0.145338
764.065683	0.145502
764.260968	0.145556
764.456236	0.145370
764.651485	0.145136
764.846716	0.145108
765.041929	0.144973
765.237123	0.144849
765.432299	0.144750
765.627457	0.144809
765.822597	0.144500
766.017719	0.144237
766.212822	0.144378
766.407907	0.144338
766.602974	0.144133
766.798023	0.144168
766.993054	0.144236
767.188066	0.144222
767.383060	0.143954
767.578036	0.144154
767.772993	0.144319
767.967933	0.144264
768.162854	0.144246
768.357757	0.144136
768.552642	0.143958
768.747508	0.143932
768.942356	0.143780
769.137186	0.143748
769.331998	0.143557
769.526792	0.143460
769.721567	0.143319
769.916324	0.143337
770.111063	0.143599
770.305784	0.143370
770.500486	0.143364
770.695171	0.143493
770.889837	0.143240
771.084484	0.143272
771.279114	0.143034
771.473725	0.142955
771.668318	0.142743
771.862893	0.142808
772.057450	0.142824
772.251988	0.142829
772.446509	0.142509
772.641011	0.142809
772.835494	0.142606
773.029960	0.142709
773.224407	0.142570
773.418836	0.142790
773.613247	0.142616
773.807640	0.142444
774.002014	0.142528
774.196370	0.142717
774.390708	0.142667
774.585028	0.142788
774.779330	0.142681
774.973613	0.142934
775.167878	0.142836
775.362125	0.142838
775.556354	0.143260
775.750564	0.143042
775.944756	0.143083
776.138930	0.143034
776.333086	0.142927
776.527223	0.143027
776.721343	0.142828
776.915444	0.142830
777.109526	0.142709
777.303591	0.142400
777.497637	0.142406
777.691666	0.142181
777.885676	0.142301
778.079667	0.142329
778.273641	0.142071
778.467596	0.142002
778.661533	0.141885
778.855452	0.141798
779.049352	0.141649
779.243235	0.141451
779.437099	0.141583
779.630945	0.141205
779.824773	0.141338
780.018582	0.141389
780.212373	0.141262
780.406146	0.141298
780.599901	0.141356
780.793638	0.141465
780.987356	0.141656
781.181056	0.141569
781.374738	0.141793
781.568402	0.141499
781.762047	0.141568
781.955674	0.141790
782.149283	0.141686
782.342874	0.141757
782.536447	0.141697
782.730001	0.141669
782.923537	0.141889
783.117055	0.141936
783.310555	0.142245
783.504036	0.142277
783.697499	0.142209
783.890944	0.142353
784.084371	0.142067
784.277780	0.142072
784.471170	0.142130
784.664542	0.141976
784.857896	0.141813
785.051231	0.141418
785.244549	0.141261
785.437848	0.141108
785.631129	0.141004
785.824392	0.141149
786.017636	0.141340
786.210863	0.141180
786.404071	0.141020
786.597260	0.140982
786.790432	0.141263
786.983585	0.141290
787.176721	0.141467
787.369838	0.141428
787.562936	0.141522
787.756017	0.141281
787.949079	0.141457
788.142123	0.141847
788.335149	0.141813
788.528156	0.141863
788.721146	0.142014
788.914117	0.142140
789.107070	0.142180
789.300005	0.142104
789.492921	0.142210
789.685819	0.142191
789.878699	0.141941
790.071561	0.142208
790.264405	0.142270
790.457230	0.142373
790.650037	0.142260
790.842826	0.142326
791.035597	0.142450
791.228349	0.142515
791.421084	0.142727
791.613800	0.143014
791.806497	0.142912
791.999177	0.143070
792.191838	0.142912
792.384481	0.142979
792.577106	0.143226
792.769713	0.143223
792.962301	0.143294
793.154871	0.143142
793.347423	0.142917
793.539957	0.143169
793.732473	0.142930
793.924970	0.143045
794.117449	0.143083
794.309910	0.143082
794.502353	0.143116
794.694777	0.143243
794.887183	0.143419
795.079571	0.143686
795.271941	0.143709
795.464293	0.143898
795.656626	0.144132
795.848941	0.144187
796.041238	0.144264
796.233516	0.144445
796.425777	0.144447
796.618019	0.144381
796.810243	0.144560
797.002449	0.144911
797.194636	0.144975
797.386805	0.144741
797.578956	0.144701
797.771089	0.144774
797.963204	0.144851
798.155300	0.144938
798.347378	0.144930
798.539438	0.144724
798.731480	0.144443
798.923503	0.144351
799.115509	0.144809
799.307496	0.145036
799.499465	0.145082
799.691415	0.145053
799.883348	0.145146
800.075262	0.145058
800.267158	0.145149
800.459035	0.145349
800.650895	0.145350
800.842736	0.144981
801.034559	0.144993
801.226364	0.145010
801.418150	0.144963
801.609919	0.145123
801.801669	0.145286
801.993401	0.145391
802.185114	0.145537
802.376810	0.145859
802.568487	0.146000
802.760146	0.146136
802.951787	0.146253
803.143409	0.146538
803.335014	0.146498
803.526600	0.146610
803.718168	0.146618
803.909717	0.146499
804.101249	0.146418
804.292762	0.146565
804.484257	0.146475
804.675734	0.146443
804.867192	0.146591
805.058632	0.146521
805.250054	0.146799
805.441458	0.147089
805.632844	0.147371
805.824211	0.147794
806.015561	0.147681
806.206891	0.147811
806.398204	0.148172
806.589499	0.147979
806.780775	0.148317
806.972033	0.148118
807.163273	0.148089
807.354495	0.147970
807.545698	0.147730
807.736883	0.148079
807.928050	0.148513
808.119199	0.148351
808.310329	0.148710
808.501441	0.148675
808.692535	0.148915
808.883611	0.148966
809.074669	0.148960
809.265708	0.149182
809.456729	0.149287
809.647732	0.149049
809.838717	0.149225
810.029683	0.149143
810.220632	0.149345
810.411562	0.149662
810.602474	0.149845
810.793367	0.149847
810.984242	0.149876
811.175100	0.150124
811.365938	0.150513
811.556759	0.150586
811.747562	0.150969
811.938346	0.151073
812.129112	0.151193
812.319860	0.151301
812.510589	0.151703
812.701300	0.151902
812.891994	0.152029
813.082668	0.152046
813.273325	0.152191
813.463964	0.152383
813.654584	0.152438
813.845186	0.152556
814.035769	0.152587
814.226335	0.152854
814.416882	0.153224
814.607411	0.153309
814.797922	0.153365
814.988415	0.153536
815.178889	0.153337
815.369345	0.153485
815.559783	0.153626
815.750203	0.153872
815.940605	0.153669
816.130988	0.153854
816.321353	0.153924
816.511700	0.154224
816.702028	0.154560
816.892339	0.155031
817.082631	0.155056
817.272905	0.155302
817.463161	0.155438
817.653398	0.155521
817.843617	0.155185
818.033819	0.155252
818.224001	0.155205
818.414166	0.155010
818.604312	0.154969
818.794440	0.155173
818.984550	0.155073
819.174642	0.155089
819.364716	0.155273
819.554771	0.155616
819.744808	0.155892
819.934827	0.155873
820.124827	0.156410
820.314810	0.156577
820.504774	0.156961
820.694720	0.157208
820.884647	0.157512
821.074557	0.157873
821.264448	0.158023
821.454321	0.158089
821.644176	0.158393
821.834012	0.158418
822.023831	0.158618
822.213631	0.158967
822.403413	0.158961
822.593176	0.159244
822.782922	0.159404
822.972649	0.159568
823.162358	0.159910
823.352049	0.160087
823.541721	0.159925
823.731376	0.160026
823.921012	0.159919
824.110629	0.160185
824.300229	0.160154
824.489811	0.160318
824.679374	0.160423
824.868919	0.160333
825.058445	0.160469
825.247954	0.160784
825.437444	0.161072
825.626916	0.161033
825.816370	0.161263
826.005806	0.161325
826.195223	0.161465
826.384622	0.161619
826.574003	0.162207
826.763366	0.162426
826.952711	0.162380
827.142037	0.162458
827.331345	0.162780
827.520635	0.162893
827.709906	0.163329
827.899160	0.163592
828.088395	0.163890
828.277612	0.163836
828.466810	0.164205
828.655991	0.164745
828.845153	0.164840
829.034297	0.164970
829.223423	0.165030
829.412531	0.164958
829.601620	0.165194
829.790691	0.165192
829.979744	0.165276
830.168779	0.165095
830.357795	0.165013
830.546793	0.165097
830.735773	0.165626
830.924735	0.165858
831.113679	0.166300
831.302604	0.166476
831.491511	0.166803
831.680400	0.166911
831.869271	0.167301
832.058123	0.167709
832.246957	0.168042
832.435773	0.167997
832.624571	0.168197
832.813351	0.168143
833.002112	0.168356
833.190855	0.168509
833.379580	0.168547
833.568287	0.168498
833.756975	0.168720
833.945645	0.168905
834.134297	0.169024
834.322931	0.169267
834.511547	0.169417
834.700144	0.169263
834.888723	0.169389
835.077284	0.169645
835.265826	0.170022
835.454351	0.170243
835.642857	0.170524
835.831345	0.170624
836.019815	0.170929
836.208266	0.171307
836.396699	0.171584
836.585114	0.171762
836.773511	0.172089
836.961890	0.172564
837.150250	0.172589
837.338592	0.172791
837.526916	0.173031
837.715222	0.173194
837.903510	0.173267
838.091779	0.173674
838.280030	0.174015
838.468263	0.174369
838.656477	0.174366
838.844674	0.174656
839.032852	0.174617
839.221012	0.174985
839.409153	0.175120
839.597277	0.175428
839.785382	0.175686
839.973469	0.175862
840.161538	0.176016
840.349589	0.176369
840.537621	0.176425
840.725635	0.176672
840.913631	0.176656
841.101609	0.176920
841.289568	0.177030
841.477509	0.176864
841.665432	0.177036
841.853337	0.177011
842.041224	0.176899
842.229092	0.177360
842.416942	0.177607
842.604774	0.178011
842.792588	0.178335
842.980383	0.178650
843.168160	0.179199
843.355919	0.179664
843.543660	0.180063
843.731382	0.180487
843.919087	0.180500
844.106773	0.180531
844.294441	0.180761
844.482090	0.180549
844.669722	0.180699
844.857335	0.180784
845.044930	0.180726
845.232507	0.181002
845.420065	0.181083
845.607605	0.181196
845.795127	0.181684
845.982631	0.181604
846.170117	0.182085
846.357584	0.182247
846.545033	0.182416
846.732464	0.182609
846.919877	0.182607
847.107272	0.183144
847.294648	0.183517
847.482006	0.183674
847.669346	0.184277
847.856667	0.184448
848.043971	0.184907
848.231256	0.185377
848.418523	0.185696
848.605771	0.186393
848.793002	0.186435
848.980214	0.186913
849.167408	0.187164
849.354584	0.187074
849.541742	0.187142
849.728881	0.187332
849.916002	0.187308
850.103105	0.187358
850.290190	0.187356
850.477256	0.187524
850.664304	0.187289
850.851334	0.187491
851.038346	0.187882
851.225340	0.188300
851.412315	0.188687
851.599272	0.189213
851.786211	0.189952
851.973132	0.190215
852.160034	0.190532
852.346918	0.191055
852.533784	0.191396
852.720632	0.191556
852.907462	0.191907
853.094273	0.191711
853.281066	0.191753
853.467841	0.191890
853.654598	0.192012
853.841336	0.192322
854.028056	0.192428
854.214758	0.192490
854.401442	0.192594
854.588107	0.192517
854.774755	0.192893
854.961384	0.193017
855.147995	0.193311
855.334587	0.194165
855.521162	0.194100
855.707718	0.194224
855.894256	0.194549
856.080775	0.194780
856.267277	0.195205
856.453760	0.195492
856.640225	0.195721
856.826672	0.195751
857.013101	0.195507
857.199511	0.195933
857.385903	0.196136
857.572277	0.196284
857.758633	0.196413
857.944970	0.196560
858.131290	0.196664
858.317591	0.196871
858.503873	0.196846
858.690138	0.196899
858.876384	0.197025
859.062612	0.197473
859.248822	0.197838
859.435014	0.198382
859.621188	0.198629
859.807343	0.199039
859.993480	0.199363
860.179599	0.199543
860.365699	0.199775
860.551781	0.199864
860.737846	0.199925
860.923891	0.199872
861.109919	0.199871
861.295929	0.200161
861.481920	0.200131
861.667893	0.200320
861.853848	0.200691
862.039784	0.200816
862.225702	0.201075
862.411603	0.201382
862.597484	0.201432
862.783348	0.201482
862.969193	0.201617
863.155021	0.201764
863.340830	0.201622
863.526620	0.201796
863.712393	0.201721
863.898147	0.201857
864.083883	0.201949
864.269601	0.202199
864.455301	0.202705
864.640982	0.202980
864.826645	0.203502
865.012290	0.204122
865.197917	0.204082
865.383526	0.204603
865.569116	0.204991
865.754688	0.205337
865.940242	0.205763
866.125777	0.205867
866.311295	0.206034
866.496794	0.206170
866.682275	0.206270
866.867737	0.206693
867.053182	0.207014
867.238608	0.207038
867.424016	0.207225
867.609406	0.207575
867.794778	0.207774
867.980131	0.207633
868.165466	0.207925
868.350783	0.208035
868.536082	0.208227
868.721362	0.208227
868.906625	0.208979
869.091869	0.209022
869.277094	0.208934
869.462302	0.209066
869.647491	0.209414
869.832662	0.209668
870.017815	0.210115
870.202950	0.210280
870.388066	0.210166
870.573165	0.209732
870.758245	0.209997
870.943306	0.210329
871.128350	0.210532
871.313375	0.210920
871.498382	0.210930
871.683371	0.210926
871.868342	0.211229
872.053294	0.211711
872.238229	0.211883
872.423144	0.211812
872.608042	0.211706
872.792922	0.211993
872.977783	0.212018
873.162626	0.211855
873.347451	0.211473
873.532258	0.211475
873.717046	0.211373
873.901816	0.211733
874.086568	0.211952
874.271302	0.212204
874.456017	0.212063
874.640715	0.212121
874.825394	0.212521
875.010055	0.212854
875.194697	0.212675
875.379322	0.212768
875.563928	0.212929
875.748516	0.212970
875.933085	0.213206
876.117637	0.213363
876.302170	0.213966
876.486685	0.213751
876.671182	0.214045
876.855661	0.214325
877.040121	0.214783
877.224563	0.214516
877.408987	0.214516
877.593393	0.214437
877.777780	0.214800
877.962150	0.214418
878.146501	0.214562
878.330833	0.214559
878.515148	0.214672
878.699444	0.214395
878.883722	0.214720
879.067982	0.215029
879.252224	0.215290
879.436447	0.215265
879.620653	0.215205
879.804840	0.215160
879.989008	0.215296
880.173159	0.215519
880.357291	0.215643
880.541405	0.215552
880.725501	0.215773
880.909579	0.215822
881.093638	0.216084
881.277680	0.216288
881.461703	0.216624
881.645707	0.216770
881.829694	0.216625
882.013662	0.216807
882.197612	0.217051
882.381544	0.216868
882.565458	0.216903
882.749353	0.216698
882.933230	0.217075
883.117089	0.216911
883.300930	0.217037
883.484753	0.217491
883.668557	0.217718
883.852343	0.217645
884.036111	0.218046
884.219861	0.218201
884.403592	0.218400
884.587305	0.218158
884.771000	0.218623
884.954677	0.218674
885.138335	0.218466
885.321976	0.218401
885.505598	0.218608
885.689201	0.218557
885.872787	0.218295
886.056354	0.218177
886.239904	0.217933
886.423434	0.217933
886.606947	0.217936
886.790442	0.217974
886.973918	0.218129
887.157376	0.218215
887.340816	0.217747
887.524237	0.218010
887.707641	0.217597
887.891026	0.217906
888.074393	0.217416
888.257741	0.217162
888.441072	0.216891
888.624384	0.216858
888.807678	0.216494
888.990954	0.216710
889.174211	0.216721
889.357451	0.216956
889.540672	0.216610
889.723875	0.216869
889.907059	0.217024
890.090226	0.217545
890.273374	0.217293
890.456504	0.217440
890.639616	0.217331
890.822709	0.217415
891.005785	0.217545
891.188842	0.218002
891.371881	0.218138
891.554901	0.218179
891.737904	0.217807
891.920888	0.217775
892.103854	0.218081
892.286802	0.218193
892.469731	0.217858
892.652643	0.218045
892.835536	0.217572
893.018410	0.217228
893.201267	0.217034
893.384106	0.216873
893.566926	0.217101
893.749728	0.216660
893.932511	0.216493
894.115277	0.216198
894.298024	0.215912
894.480753	0.215711
894.663464	0.215667
894.846157	0.215569
895.028831	0.215512
895.211487	0.215277
895.394125	0.215443
895.576745	0.215237
895.759346	0.215500
895.941930	0.215530
896.124495	0.215752
896.307041	0.216028
896.489570	0.216140
896.672080	0.216438
896.854573	0.216570
897.037046	0.216383
897.219502	0.216599
897.401940	0.216593
897.584359	0.216120
897.766760	0.216109
897.949143	0.216049
898.131507	0.215694
898.313854	0.215217
898.496182	0.214821
898.678492	0.215071
898.860783	0.215005
899.043057	0.215004
899.225312	0.215301
899.407549	0.215297
899.589768	0.215045
899.771968	0.215275
899.954151	0.215198
900.136315	0.214890
900.318461	0.214151
900.500588	0.213864
900.682698	0.213652
900.864789	0.213140
901.046862	0.212831
901.228917	0.212726
901.410953	0.212416
901.592971	0.212117
901.774972	0.212276
901.956953	0.212297
902.138917	0.212142
902.320862	0.211646
902.502790	0.211698
902.684699	0.211510
902.866589	0.211533
903.048462	0.211209
903.230316	0.211288
903.412152	0.210774
903.593970	0.210573
903.775770	0.210530
903.957551	0.210344
904.139314	0.210326
904.321059	0.210112
904.502786	0.208808
904.684494	0.208941
904.866185	0.208531
905.047857	0.208581
905.229510	0.208037
905.411146	0.207523
905.592763	0.207307
905.774363	0.206693
905.955943	0.206417
906.137506	0.206662
906.319051	0.206295
906.500577	0.206458
906.682085	0.206226
906.863575	0.206448
907.045046	0.206718
907.226500	0.206412
907.407935	0.206147
907.589352	0.205769
907.770750	0.205364
907.952131	0.205066
908.133493	0.204509
908.314837	0.204367
908.496163	0.204054
908.677470	0.203255
908.858760	0.203117
909.040031	0.203345
909.221284	0.203524
909.402518	0.203654
909.583735	0.202896
909.764933	0.202614
909.946113	0.202413
910.127275	0.202044
910.308418	0.202287
910.489544	0.202349
910.670651	0.201910
910.851740	0.201529
911.032810	0.201542
911.213863	0.201804
911.394897	0.201454
911.575913	0.200965
911.756911	0.200766
911.937890	0.199836
912.118851	0.199787
912.299794	0.199593
912.480719	0.199436
912.661626	0.199153
912.842514	0.199137
913.023384	0.199372
913.204236	0.199647
913.385070	0.199389
913.565886	0.199860
913.746683	0.199193
913.927462	0.198691
914.108223	0.198272
914.288965	0.197918
914.469690	0.196974
914.650396	0.196286
914.831084	0.195897
915.011754	0.195511
915.192405	0.195081
915.373038	0.195044
915.553653	0.194710
915.734250	0.194508
915.914829	0.193633
916.095389	0.193393
916.275931	0.192955
916.456455	0.192544
916.636961	0.192398
916.817448	0.191959
916.997917	0.191634
917.178368	0.191840
917.358801	0.191397
917.539216	0.191533
917.719612	0.191585
917.899990	0.191278
918.080350	0.190600
918.260692	0.190062
918.441015	0.189932
918.621320	0.189370
918.801607	0.188499
918.981876	0.187866
919.162127	0.187675
919.342359	0.186890
919.522573	0.186689
919.702769	0.186658
919.882947	0.186839
920.063106	0.186160
920.243247	0.185388
920.423370	0.185039
920.603475	0.184814
920.783562	0.184275
920.963630	0.183977
921.143680	0.183483
921.323712	0.182747
921.503725	0.182148
921.683721	0.181756
921.863698	0.181759
922.043657	0.181312
922.223598	0.180907
922.403520	0.180633
922.583424	0.180285
922.763311	0.180126
922.943178	0.179984
923.123028	0.179207
923.302859	0.178649
923.482673	0.177658
923.662467	0.177447
923.842244	0.177305
924.022003	0.176642
924.201743	0.176795
924.381465	0.176387
924.561169	0.175658
924.740854	0.175138
924.920522	0.174457
925.100171	0.174111
925.279802	0.173243
925.459414	0.172172
925.639009	0.171883
925.818585	0.170854
925.998143	0.170500
926.177683	0.169675
926.357205	0.169227
926.536708	0.168423
926.716193	0.168114
926.895660	0.167672
927.075109	0.167706
927.254539	0.167438
927.433951	0.167180
927.613345	0.166229
927.792721	0.166447
927.972079	0.166110
928.151418	0.166347
928.330739	0.166394
928.510042	0.166116
928.689327	0.165893
928.868593	0.164798
929.047841	0.164173
929.227071	0.164175
929.406283	0.163353
929.585476	0.162626
929.764652	0.162162
929.943809	0.161461
930.122948	0.161161
930.302068	0.160192
930.481171	0.159390
930.660255	0.158943
930.839321	0.157779
931.018369	0.157716
931.197398	0.156879
931.376409	0.156321
931.555402	0.155878
931.734377	0.154655
931.913334	0.153836
932.092272	0.153960
932.271192	0.153380
932.450094	0.152671
932.628978	0.151263
932.807844	0.151106
932.986691	0.150378
933.165520	0.150288
933.344331	0.150437
933.523123	0.150557
933.701898	0.149461
933.880654	0.149159
934.059392	0.149203
934.238111	0.149074
934.416813	0.148044
934.595496	0.147907
934.774161	0.146766
934.952808	0.145688
935.131437	0.145090
935.310047	0.144281
935.488639	0.143090
935.667213	0.142111
935.845769	0.141891
936.024306	0.141879
936.202825	0.140803
936.381326	0.140030
936.559809	0.140570
936.738274	0.139722
936.916720	0.140061
937.095148	0.140056
937.273558	0.140041
937.451950	0.138120
937.630323	0.137675
937.808678	0.137880
937.987015	0.137526
938.165334	0.136706
938.343635	0.135740
938.521917	0.135193
938.700181	0.134847
938.878427	0.134153
939.056655	0.134418
939.234864	0.133552
939.413055	0.132021
939.591228	0.131314
939.769383	0.130854
939.947519	0.130777
940.125638	0.129616
940.303738	0.128388
940.481820	0.127828
940.659883	0.127708
940.837929	0.127812
941.015956	0.127962
941.193965	0.127632
941.371955	0.126946
941.549928	0.125052
941.727882	0.125119
941.905818	0.125183
942.083736	0.125249
942.261636	0.124420
942.439517	0.124352
942.617380	0.123629
942.795225	0.122541
942.973052	0.121390
943.150860	0.122508
943.328651	0.121064
943.506423	0.120316
943.684176	0.118439
943.861912	0.117525
944.039629	0.117077
944.217328	0.116046
944.395009	0.115910
944.572672	0.115896
944.750317	0.115457
944.927943	0.115976
945.105551	0.115285
945.283141	0.115749
945.460712	0.116030
945.638265	0.114777
945.815801	0.114302
945.993317	0.113722
946.170816	0.112445
946.348297	0.111386
946.525759	0.110223
946.703203	0.110092
946.880629	0.108626
947.058036	0.107574
947.235425	0.107269
947.412797	0.107487
947.590149	0.106993
947.767484	0.106507
947.944800	0.107054
948.122099	0.106027
948.299379	0.104824
948.476640	0.104120
948.653884	0.103445
948.831109	0.101714
949.008316	0.100320
949.185505	0.099544
949.362676	0.099910
949.539828	0.097745
949.716962	0.097714
949.894078	0.097665
950.071176	0.097622
950.248256	0.097378
950.425317	0.097888
950.602360	0.096933
950.779385	0.097067
950.956391	0.095796
951.133380	0.095596
951.310350	0.095105
951.487302	0.094725
951.664235	0.095075
951.841151	0.094097
952.018048	0.092739
952.194927	0.093398
952.371788	0.092890
952.548631	0.092735
952.725455	0.093568
952.902261	0.093061
953.079049	0.092417
953.255819	0.091416
953.432570	0.091789
953.609303	0.090349
953.786018	0.089543
953.962715	0.088303
954.139394	0.087993
954.316054	0.087061
954.492696	0.086193
954.669320	0.086695
954.845926	0.086884
955.022513	0.086742
955.199083	0.087774
955.375634	0.087478
955.552166	0.088049
955.728681	0.087792
955.905177	0.087158
956.081655	0.088412
956.258115	0.086600
956.434557	0.085680
956.610980	0.085742
956.787385	0.086373
956.963772	0.086471
957.140141	0.084766
957.316492	0.085026
957.492824	0.085145
957.669138	0.083730
957.845434	0.083199
958.021712	0.082044
958.197971	0.079884
958.374212	0.078424
958.550435	0.078319
958.726640	0.078984
958.902826	0.076599
959.078995	0.075015
959.255145	0.074732
959.431277	0.074227
959.607390	0.075459
959.783486	0.075596
959.959563	0.076200
960.135622	0.075801
960.311662	0.077153
960.487685	0.078757
960.663689	0.079090
960.839675	0.079867
961.015643	0.080571
961.191593	0.079606
961.367524	0.080820
961.543437	0.081231
961.719332	0.081782
961.895209	0.079968
962.071067	0.078580
962.246907	0.078676
962.422730	0.077555
962.598533	0.077030
962.774319	0.077387
962.950086	0.074712
963.125835	0.074471
963.301566	0.072802
963.477279	0.072978
963.652973	0.073587
963.828650	0.072376
964.004308	0.072917
964.179947	0.072311
964.355569	0.070360
964.531172	0.069840
964.706757	0.069335
964.882324	0.069820
965.057873	0.068156
965.233403	0.068253
965.408916	0.070003
965.584410	0.070410
965.759885	0.071075
965.935343	0.071053
966.110782	0.073036
966.286203	0.073959
966.461606	0.071661
966.636991	0.073806
966.812357	0.074776
966.987705	0.072758
967.163035	0.072527
967.338347	0.073754
967.513641	0.074181
967.688916	0.073652
967.864173	0.072672
968.039412	0.074410
968.214632	0.071990
968.389835	0.070690
968.565019	0.072423
968.740185	0.071887
968.915333	0.070259
969.090462	0.071996
969.265573	0.072662
969.440667	0.071883
969.615741	0.072963
969.790798	0.074230
969.965836	0.073422
970.140856	0.071755
970.315858	0.072309
970.490842	0.071733
970.665808	0.069714
970.840755	0.069850
971.015684	0.069381
971.190595	0.068922
971.365487	0.069395
971.540362	0.070027
971.715218	0.071400
971.890056	0.070441
972.064875	0.072233
972.239677	0.074202
972.414460	0.074332
972.589225	0.074078
972.763972	0.073848
972.938700	0.074198
973.113411	0.073644
973.288103	0.074129
973.462777	0.075018
973.637432	0.072907
973.812070	0.072073
973.986689	0.070699
974.161290	0.072172
974.335873	0.071426
974.510437	0.069734
974.684984	0.070023
974.859512	0.071082
975.034022	0.070768
975.208513	0.072804
975.382987	0.072995
975.557442	0.073415
975.731879	0.074110
975.906298	0.073502
976.080698	0.074149
976.255080	0.076109
976.429445	0.074306
976.603790	0.073915
976.778118	0.072673
976.952427	0.074048
977.126719	0.075092
977.300992	0.072512
977.475246	0.073013
977.649483	0.072108
977.823701	0.069885
977.997901	0.069176
978.172083	0.067694
978.346247	0.067678
978.520392	0.065860
978.694519	0.066531
978.868628	0.065474
979.042719	0.065570
979.216791	0.066277
979.390845	0.067133
979.564882	0.067644
979.738899	0.068870
979.912899	0.068706
980.086880	0.070479
980.260843	0.069717
980.434788	0.073169
980.608715	0.073710
980.782623	0.072778
980.956514	0.072471
981.130386	0.076460
981.304240	0.075937
981.478075	0.075614
981.651892	0.073860
981.825692	0.074778
981.999472	0.073387
982.173235	0.072603
982.346980	0.072971
982.520706	0.072506
982.694414	0.068646
982.868104	0.069603
983.041775	0.069214
983.215428	0.067902
983.389064	0.065519
983.562680	0.065808
983.736279	0.067038
983.909860	0.067109
984.083422	0.066261
984.256966	0.065331
984.430491	0.065585
984.603999	0.065154
984.777488	0.066599
984.950959	0.068280
985.124412	0.067046
985.297847	0.066467
985.471263	0.068378
985.644661	0.069034
985.818041	0.069069
985.991403	0.070485
986.164747	0.071953
986.338072	0.070279
986.511379	0.069288
986.684668	0.069512
986.857938	0.068662
987.031191	0.066288
987.204425	0.066327
987.377641	0.066155
987.550839	0.065940
987.724018	0.066614
987.897179	0.068841
988.070322	0.070057
988.243447	0.071030
988.416554	0.070988
988.589642	0.073286
988.762712	0.073452
988.935764	0.074405
989.108798	0.072748
989.281813	0.072561
989.454811	0.071783
989.627790	0.070965
989.800751	0.068844
989.973693	0.070851
990.146617	0.070241
990.319524	0.069704
990.492412	0.069103
990.665281	0.069730
990.838133	0.069846
991.010966	0.068555
991.183781	0.068913
991.356578	0.071611
991.529356	0.070176
991.702117	0.070697
991.874859	0.070626
992.047583	0.069352
992.220288	0.068657
992.392976	0.067409
992.565645	0.071321
992.738296	0.070636
992.910929	0.070740
993.083543	0.073032
993.256139	0.071234
993.428718	0.072560
993.601277	0.074064
993.773819	0.075117
993.946342	0.074805
994.118848	0.073255
994.291335	0.073478
994.463803	0.071502
994.636254	0.070418
994.808686	0.072242
994.981100	0.070732
995.153496	0.072237
995.325874	0.072020
995.498233	0.072366
995.670574	0.071444
995.842897	0.071677
996.015202	0.072219
996.187488	0.070869
996.359757	0.069373
996.532007	0.070384
996.704239	0.069394
996.876452	0.069333
997.048648	0.069777
997.220825	0.070043
997.392984	0.069403
997.565124	0.067666
997.737247	0.068219
997.909351	0.069600
998.081437	0.069917
998.253505	0.069940
998.425554	0.070860
998.597586	0.070629
998.769599	0.070939
998.941594	0.072172
999.113571	0.075515
999.285529	0.075704
999.457469	0.075171
999.629391	0.074792
999.801295	0.073862
999.973181	0.073168
1000.145048	0.074113
1000.316897	0.072627
1000.488728	0.071875
1000.660541	0.071097
1000.832335	0.071730
1001.004111	0.072509
1001.175869	0.071123
1001.347609	0.072011
1001.519331	0.071157
1001.691034	0.070000
1001.862719	0.072830
1002.034386	0.074181
1002.206035	0.072849
1002.377665	0.072237
1002.549277	0.071078
1002.720871	0.071403
1002.892447	0.071414
1003.064004	0.071718
1003.235544	0.071950
1003.407065	0.070687
1003.578568	0.069065
1003.750052	0.069734
1003.921519	0.069685
1004.092967	0.069339
1004.264397	0.069992
1004.435809	0.069935
1004.607202	0.070273
1004.778577	0.072120
1004.949934	0.071044
1005.121273	0.071213
1005.292594	0.071570
1005.463896	0.070954
1005.635180	0.071781
1005.806446	0.073268
1005.977694	0.073190
1006.148923	0.072272
1006.320135	0.071465
1006.491328	0.072126
1006.662503	0.072066
1006.833659	0.071647
1007.004798	0.071461
1007.175918	0.070870
1007.347020	0.068722
1007.518103	0.068876
1007.689169	0.070767
1007.860216	0.069877
1008.031245	0.069427
1008.202256	0.068996
1008.373248	0.068787
1008.544223	0.069273
1008.715179	0.067236
1008.886117	0.068218
1009.057036	0.066887
1009.227938	0.065106
1009.398821	0.064324
1009.569686	0.064628
1009.740533	0.064497
1009.911361	0.064063
1010.082172	0.063543
1010.252964	0.066144
1010.423738	0.065822
1010.594493	0.066485
1010.765231	0.067012
1010.935950	0.068986
1011.106651	0.070136
1011.277334	0.069837
1011.447998	0.070690
1011.618645	0.072678
1011.789273	0.072698
1011.959882	0.072548
1012.130474	0.074129
1012.301048	0.074126
1012.471603	0.073161
1012.642140	0.071820
1012.812658	0.073640
1012.983159	0.072014
1013.153641	0.070918
1013.324105	0.069924
1013.494551	0.069639
1013.664979	0.067277
1013.835388	0.066392
1014.005779	0.067838
1014.176152	0.066804
1014.346507	0.065881
1014.516843	0.067174
1014.687162	0.067160
1014.857462	0.067209
1015.027744	0.065306
1015.198007	0.066241
1015.368252	0.066805
1015.538480	0.065132
1015.708689	0.066605
1015.878879	0.067645
1016.049052	0.066999
1016.219206	0.067662
1016.389342	0.068434
1016.559460	0.071690
1016.729559	0.071309
1016.899641	0.071532
1017.069704	0.071500
1017.239749	0.070315
1017.409775	0.070171
1017.579784	0.071125
1017.749774	0.069164
1017.919746	0.067919
1018.089700	0.066741
1018.259635	0.066264
1018.429553	0.065150
1018.599452	0.064503
1018.769333	0.064447
1018.939195	0.063073
1019.109040	0.062967
1019.278866	0.063271
1019.448674	0.062496
1019.618464	0.062996
1019.788235	0.063677
1019.957989	0.064592
1020.127724	0.064840
1020.297441	0.064371
1020.467139	0.063886
1020.636820	0.063494
1020.806482	0.063216
1020.976126	0.064389
1021.145752	0.064306
1021.315359	0.064150
1021.484948	0.063311
1021.654519	0.064075
1021.824072	0.065250
1021.993607	0.065330
1022.163123	0.066386
1022.332621	0.066664
1022.502101	0.066396
1022.671563	0.067057
1022.841007	0.067397
1023.010432	0.066664
1023.179839	0.065866
1023.349228	0.065010
1023.518598	0.065990
1023.687951	0.064401
1023.857285	0.066053
1024.026601	0.066600
1024.195899	0.064417
1024.365178	0.064054
1024.534439	0.065602
1024.703682	0.065601
1024.872907	0.066819
1025.042114	0.064311
1025.211302	0.064781
1025.380472	0.064218
1025.549624	0.063833
1025.718758	0.064960
1025.887873	0.064251
1026.056970	0.063862
1026.226049	0.064681
1026.395110	0.064741
1026.564153	0.065704
1026.733177	0.065540
1026.902183	0.065392
1027.071171	0.064921
1027.240141	0.064997
1027.409092	0.064612
1027.578026	0.064005
1027.746940	0.063211
1027.915837	0.063394
1028.084716	0.064848
1028.253576	0.066749
1028.422418	0.064885
1028.591242	0.066182
1028.760048	0.065743
1028.928835	0.067984
1029.097604	0.068896
1029.266355	0.069110
1029.435088	0.067591
1029.603803	0.064928
1029.772499	0.063595
1029.941177	0.064042
1030.109837	0.063246
1030.278478	0.063532
1030.447102	0.063017
1030.615707	0.061926
1030.784294	0.061420
1030.952863	0.063813
1031.121413	0.066601
1031.289945	0.064777
1031.458460	0.064363
1031.626955	0.062494
1031.795433	0.061626
1031.963892	0.061029
1032.132334	0.062608
1032.300756	0.062437
1032.469161	0.060455
1032.637548	0.059116
1032.805916	0.058973
1032.974266	0.060530
1033.142598	0.062454
1033.310911	0.063531
1033.479207	0.064277
1033.647484	0.063092
1033.815743	0.064907
1033.983983	0.065829
1034.152206	0.066438
1034.320410	0.066123
1034.488596	0.065019
1034.656764	0.063800
1034.824914	0.064209
1034.993045	0.064945
1035.161158	0.066086
1035.329253	0.063869
1035.497330	0.062742
1035.665388	0.062278
1035.833428	0.064638
1036.001450	0.063970
1036.169454	0.065122
1036.337440	0.065662
1036.505407	0.064620
1036.673356	0.064359
1036.841287	0.066035
1037.009200	0.065382
1037.177094	0.066632
1037.344970	0.065424
1037.512828	0.065816
1037.680668	0.064866
1037.848489	0.064163
1038.016293	0.063957
1038.184078	0.062929
1038.351845	0.062562
1038.519593	0.063587
1038.687324	0.062525
1038.855036	0.063784
1039.022730	0.064222
1039.190406	0.064777
1039.358063	0.063241
1039.525702	0.064120
1039.693323	0.064234
1039.860926	0.064147
1040.028511	0.065023
1040.196077	0.065568
1040.363625	0.064951
1040.531155	0.063803
1040.698667	0.065214
1040.866161	0.066059
1041.033636	0.063167
1041.201093	0.063077
1041.368532	0.062873
1041.535952	0.062610
1041.703355	0.060488
1041.870739	0.059455
1042.038105	0.058801
1042.205452	0.058593
1042.372782	0.059035
1042.540093	0.061304
1042.707386	0.061341
1042.874661	0.060296
1043.041918	0.060135
1043.209156	0.062762
1043.376376	0.062037
1043.543578	0.064574
1043.710762	0.064416
1043.877927	0.064850
1044.045074	0.064462
1044.212203	0.065516
1044.379314	0.066461
1044.546407	0.065546
1044.713481	0.063867
1044.880537	0.065403
1045.047575	0.065011
1045.214595	0.064564
1045.381596	0.064195
1045.548579	0.063347
1045.715544	0.062021
1045.882491	0.061519
1046.049420	0.063295
1046.216330	0.064241
1046.383222	0.064708
1046.550096	0.065690
1046.716951	0.066798
1046.883789	0.065776
1047.050608	0.065120
1047.217409	0.066550
1047.384192	0.067855
1047.550956	0.066268
1047.717703	0.066953
1047.884431	0.066522
1048.051140	0.065796
1048.217832	0.063140
1048.384505	0.064421
1048.551161	0.065351
1048.717798	0.065786
1048.884416	0.064628
1049.051017	0.065126
1049.217599	0.065178
1049.384163	0.064939
1049.550709	0.064921
1049.717237	0.065047
1049.883746	0.065156
1050.050237	0.065729
1050.216710	0.064294
1050.383165	0.065327
1050.549601	0.066010
1050.716019	0.064846
1050.882420	0.064713
1051.048801	0.065540
1051.215165	0.066274
1051.381510	0.063045
1051.547837	0.061652
1051.714146	0.062622
1051.880437	0.061193
1052.046709	0.060638
1052.212964	0.061580
1052.379200	0.062553
1052.545417	0.062975
1052.711617	0.062826
1052.877798	0.065092
1053.043961	0.067577
1053.210106	0.066165
1053.376233	0.066712
1053.542341	0.067345
1053.708432	0.067202
1053.874504	0.067148
1054.040557	0.064854
1054.206593	0.066205
1054.372610	0.066250
1054.538609	0.064666
1054.704590	0.065561
1054.870553	0.064818
1055.036497	0.064172
1055.202424	0.064594
1055.368331	0.066060
1055.534221	0.066384
1055.700093	0.067099
1055.865946	0.066568
1056.031781	0.066244
1056.197598	0.065864
1056.363397	0.066634
1056.529177	0.065434
1056.694939	0.064936
1056.860683	0.062463
1057.026409	0.064382
1057.192116	0.061733
1057.357806	0.060406
1057.523477	0.060796
1057.689130	0.062005
1057.854764	0.061396
1058.020381	0.061373
1058.185979	0.061153
1058.351559	0.062296
1058.517120	0.061206
1058.682664	0.065310
1058.848189	0.068482
1059.013696	0.067261
1059.179185	0.066737
1059.344656	0.066669
1059.510108	0.068031
1059.675542	0.069140
1059.840958	0.067030
1060.006356	0.067563
1060.171735	0.063112
1060.337096	0.062744
1060.502439	0.063917
1060.667764	0.063000
1060.833071	0.063350
1060.998359	0.061885
1061.163629	0.059876
1061.328881	0.062109
1061.494115	0.062176
1061.659330	0.063363
1061.824527	0.063466
1061.989706	0.062530
1062.154867	0.064289
1062.320010	0.065477
1062.485134	0.066001
1062.650240	0.065608
1062.815328	0.063889
1062.980398	0.062437
1063.145449	0.061810
1063.310482	0.062102
1063.475497	0.063261
1063.640494	0.061609
1063.805473	0.062387
1063.970433	0.063042
1064.135375	0.065057
1064.300299	0.066716
1064.465204	0.067945
1064.630092	0.069154
1064.794961	0.067567
1064.959812	0.068539
1065.124645	0.069934
1065.289459	0.070176
1065.454256	0.070621
1065.619034	0.069191
1065.783793	0.067041
1065.948535	0.066404
1066.113258	0.065455
1066.277964	0.065801
1066.442651	0.066569
1066.607319	0.065290
1066.771970	0.064325
1066.936602	0.063751
1067.101216	0.064436
1067.265812	0.066319
1067.430389	0.067631
1067.594949	0.067886
1067.759490	0.069067
1067.924013	0.066582
1068.088518	0.069321
1068.253004	0.069086
1068.417472	0.068519
1068.581922	0.068329
1068.746354	0.069764
1068.910768	0.069344
1069.075163	0.070640
1069.239540	0.071316
1069.403899	0.071122
1069.568240	0.070736
1069.732562	0.069780
1069.896866	0.069717
1070.061152	0.066959
1070.225420	0.065799
1070.389670	0.066687
1070.553901	0.065404
1070.718114	0.062396
1070.882309	0.064768
1071.046486	0.063194
1071.210644	0.062182
1071.374784	0.061694
1071.538906	0.064811
1071.703010	0.063818
1071.867096	0.061543
1072.031163	0.061555
1072.195212	0.062983
1072.359243	0.060008
1072.523256	0.060767
1072.687250	0.063734
1072.851226	0.063991
1073.015184	0.065322
1073.179124	0.066788
1073.343045	0.067505
1073.506949	0.067731
1073.670834	0.066512
1073.834701	0.069433
1073.998549	0.067047
1074.162380	0.064916
1074.326192	0.065314
1074.489986	0.065092
1074.653761	0.061633
1074.817519	0.061978
1074.981258	0.063987
1075.144979	0.064472
1075.308682	0.063177
1075.472367	0.065359
1075.636033	0.065234
1075.799681	0.066241
1075.963311	0.065881
1076.126923	0.068482
1076.290516	0.066540
1076.454092	0.066012
1076.617649	0.066288
1076.781187	0.066112
1076.944708	0.067111
1077.108210	0.067072
1077.271695	0.067571
1077.435160	0.066817
1077.598608	0.065757
1077.762038	0.067039
1077.925449	0.066241
1078.088842	0.065584
1078.252217	0.066422
1078.415573	0.065564
1078.578912	0.066430
1078.742232	0.066273
1078.905534	0.065924
1079.068817	0.067381
1079.232083	0.068801
1079.395330	0.068397
1079.558559	0.069614
1079.721770	0.069776
1079.884962	0.068936
1080.048136	0.067483
1080.211293	0.067848
1080.374430	0.068018
1080.537550	0.066776
1080.700651	0.065570
1080.863735	0.065631
1081.026800	0.066115
1081.189846	0.063880
1081.352875	0.064749
1081.515885	0.065848
1081.678877	0.063077
1081.841851	0.062970
1082.004807	0.066914
1082.167744	0.067263
1082.330663	0.068247
1082.493564	0.069194
1082.656447	0.070409
1082.819312	0.071689
1082.982158	0.073681
1083.144986	0.075375
1083.307796	0.074191
1083.470587	0.068868
1083.633361	0.067346
1083.796116	0.065716
1083.958853	0.062741
1084.121571	0.061452
1084.284272	0.060707
1084.446954	0.060795
1084.609618	0.061192
1084.772264	0.064661
1084.934892	0.067947
1085.097501	0.069005
1085.260092	0.070440
1085.422665	0.072607
1085.585220	0.075095
1085.747756	0.073097
1085.910274	0.070558
1086.072774	0.070166
1086.235256	0.071198
1086.397720	0.069437
1086.560165	0.069309
1086.722592	0.069629
1086.885001	0.069354
1087.047392	0.070311
1087.209764	0.071478
1087.372119	0.073486
1087.534455	0.073574
1087.696772	0.070851
1087.859072	0.069447
1088.021353	0.069521
1088.183616	0.069658
1088.345861	0.070289
1088.508088	0.068573
1088.670296	0.069631
1088.832486	0.068744
1088.994658	0.068555
1089.156812	0.067732
1089.318948	0.070001
1089.481065	0.071238
1089.643164	0.071662
1089.805245	0.073389
1089.967308	0.075364
1090.129352	0.072264
1090.291378	0.072111
1090.453386	0.072753
1090.615376	0.074804
1090.777347	0.075200
1090.939301	0.072974
1091.101236	0.071276
1091.263153	0.067912
1091.425051	0.065846
1091.586932	0.067156
1091.748794	0.068440
1091.910638	0.066000
1092.072463	0.065311
1092.234271	0.064624
1092.396060	0.065969
1092.557831	0.065765
1092.719584	0.068371
1092.881319	0.069740
1093.043035	0.070779
1093.204733	0.066248
1093.366413	0.067170
1093.528075	0.066525
1093.689718	0.067385
1093.851343	0.064610
1094.012950	0.067680
1094.174539	0.065612
1094.336110	0.064484
1094.497662	0.065795
1094.659196	0.069058
1094.820712	0.068735
1094.982210	0.067966
1095.143689	0.067041
1095.305151	0.070246
1095.466594	0.069828
1095.628018	0.071023
1095.789425	0.070615
1095.950813	0.068583
1096.112183	0.069900
1096.273535	0.070584
1096.434869	0.073125
1096.596184	0.076850
1096.757482	0.073332
1096.918761	0.070942
1097.080021	0.070455
1097.241264	0.072629
1097.402488	0.075354
1097.563694	0.075221
1097.724882	0.076204
1097.886052	0.076558
1098.047203	0.073036
1098.208336	0.077362
1098.369451	0.076831
1098.530548	0.075007
1098.691627	0.072855
1098.852687	0.071735
1099.013729	0.074188
1099.174753	0.074160
1099.335758	0.071196
1099.496746	0.072424
1099.657715	0.073690
1099.818666	0.074123
1099.979599	0.081433
1100.140513	0.081333
1100.301409	0.078039
1100.462287	0.075923
1100.623147	0.076058
1100.783989	0.078085
1100.944812	0.076368
1101.105617	0.074902
1101.266404	0.075123
1101.427173	0.070633
1101.587923	0.071752
1101.748656	0.076312
1101.909370	0.078148
1102.070066	0.076677
1102.230743	0.075048
1102.391403	0.076243
1102.552044	0.078313
1102.712667	0.079656
1102.873271	0.080982
1103.033858	0.080324
1103.194426	0.077233
1103.354976	0.076681
1103.515508	0.080752
1103.676021	0.079689
1103.836517	0.079986
1103.996994	0.079436
1104.157453	0.079705
1104.317893	0.077499
1104.478316	0.078561
1104.638720	0.079148
1104.799106	0.075044
1104.959474	0.073628
1105.119823	0.075378
1105.280155	0.076260
1105.440468	0.074313
1105.600763	0.073456
1105.761039	0.076010
1105.921298	0.077339
1106.081538	0.079116
1106.241760	0.081872
1106.401964	0.081321
1106.562149	0.081624
1106.722316	0.081597
1106.882465	0.083659
1107.042596	0.088643
1107.202709	0.085475
1107.362803	0.076672
1107.522879	0.072692
1107.682937	0.070275
1107.842977	0.071074
1108.002999	0.072011
1108.163002	0.072844
1108.322987	0.072235
1108.482954	0.065298
1108.642902	0.063329
1108.802833	0.072703
1108.962745	0.070717
1109.122639	0.071384
1109.282515	0.073238
1109.442372	0.074775
1109.602211	0.073622
1109.762032	0.070950
1109.921835	0.076651
1110.081620	0.080590
1110.241386	0.079383
1110.401134	0.082701
1110.560864	0.082908
1110.720576	0.082523
1110.880269	0.080214
1111.039945	0.080378
1111.199602	0.081219
1111.359240	0.078557
1111.518861	0.079528
1111.678463	0.079032
1111.838047	0.081060
1111.997613	0.082833
1112.157161	0.079191
1112.316690	0.077156
1112.476202	0.078450
1112.635695	0.082401
1112.795169	0.085198
1112.954626	0.084220
1113.114064	0.083475
1113.273484	0.086042
1113.432886	0.082256
1113.592270	0.080491
1113.751635	0.082858
1113.910983	0.081470
1114.070312	0.080905
1114.229622	0.078751
1114.388915	0.072481
1114.548189	0.074857
1114.707445	0.070771
1114.866683	0.069436
1115.025903	0.073598
1115.185104	0.075937
1115.344287	0.075065
1115.503452	0.072492
1115.662599	0.071491
1115.821727	0.078277
1115.980838	0.077310
1116.139930	0.081043
1116.299004	0.089600
1116.458059	0.088880
1116.617097	0.081995
1116.776116	0.081836
1116.935117	0.080795
1117.094099	0.083841
1117.253064	0.083177
1117.412010	0.079394
1117.570938	0.077267
1117.729848	0.071112
1117.888740	0.075219
1118.047613	0.083178
1118.206468	0.085069
1118.365305	0.088240
1118.524124	0.084459
1118.682924	0.082345
1118.841707	0.085606
1119.000471	0.083769
1119.159216	0.084322
1119.317944	0.078633
1119.476653	0.073333
1119.635344	0.073519
1119.794017	0.072698
1119.952672	0.074137
1120.111308	0.078420
1120.269927	0.075392
1120.428527	0.073662
1120.587108	0.080438
1120.745672	0.084757
1120.904217	0.086393
1121.062744	0.084899
1121.221253	0.083876
1121.379744	0.084306
1121.538216	0.081496
1121.696671	0.085592
1121.855107	0.088217
1122.013524	0.081478
1122.171924	0.078857
1122.330305	0.080966
1122.488668	0.082078
1122.647013	0.082571
1122.805340	0.082919
1122.963648	0.088723
1123.121938	0.090140
1123.280210	0.096719
1123.438464	0.098355
1123.596700	0.104994
1123.754917	0.103637
1123.913116	0.105221
1124.071297	0.106968
1124.229459	0.109487
1124.387604	0.106038
1124.545730	0.103596
1124.703838	0.100018
1124.861928	0.100843
1125.019999	0.090303
1125.178052	0.092433
1125.336088	0.091252
1125.494104	0.087833
1125.652103	0.078967
1125.810083	0.072069
1125.968045	0.077811
1126.125989	0.075207
1126.283915	0.077186
1126.441823	0.077146
1126.599712	0.073459
1126.757583	0.073446
1126.915436	0.078610
1127.073270	0.088271
1127.231087	0.092465
1127.388885	0.091073
1127.546665	0.094994
1127.704426	0.091342
1127.862170	0.100497
1128.019895	0.103638
1128.177602	0.104302
1128.335291	0.102969
1128.492961	0.100556
1128.650614	0.104562
1128.808248	0.094433
1128.965864	0.089791
1129.123461	0.095142
1129.281041	0.091250
1129.438602	0.093649
1129.596145	0.091282
1129.753670	0.087653
1129.911176	0.086395
1130.068665	0.083195
1130.226135	0.089553
1130.383587	0.092329
1130.541020	0.091818
1130.698436	0.092203
1130.855833	0.090532
1131.013212	0.089861
1131.170573	0.097128
1131.327915	0.095329
1131.485239	0.097222
1131.642545	0.099873
1131.799833	0.101529
1131.957103	0.099249
1132.114354	0.092763
1132.271588	0.093517
1132.428803	0.093547
1132.585999	0.090989
1132.743178	0.095682
1132.900338	0.094670
1133.057480	0.094387
1133.214604	0.089833
1133.371710	0.089448
1133.528797	0.099302
1133.685866	0.094712
1133.842917	0.095380
1133.999950	0.093708
1134.156964	0.090352
1134.313960	0.087646
1134.470938	0.080721
1134.627898	0.083974
1134.784840	0.083747
1134.941763	0.077487
1135.098668	0.077998
1135.255555	0.081488
1135.412424	0.078447
1135.569274	0.080306
1135.726107	0.090962
1135.882921	0.090923
1136.039716	0.091080
1136.196494	0.091648
1136.353253	0.089041
1136.509995	0.089745
1136.666717	0.086539
1136.823422	0.094627
1136.980109	0.086789
1137.136777	0.079949
1137.293427	0.081973
1137.450059	0.084238
1137.606672	0.081231
1137.763267	0.089162
1137.919844	0.087528
1138.076403	0.088868
1138.232944	0.089717
1138.389466	0.090944
1138.545971	0.088723
1138.702457	0.089663
1138.858924	0.085869
1139.015374	0.088915
1139.171805	0.082752
1139.328218	0.083102
1139.484613	0.077593
1139.640990	0.066797
1139.797348	0.074673
1139.953688	0.075212
1140.110010	0.081184
1140.266314	0.084554
1140.422600	0.084390
1140.578867	0.088913
1140.735116	0.092724
1140.891347	0.093111
1141.047559	0.097775
1141.203754	0.098046
1141.359930	0.093751
1141.516088	0.091865
1141.672228	0.090719
1141.828349	0.092927
1141.984452	0.093962
1142.140537	0.094355
1142.296604	0.095974
1142.452653	0.100292
1142.608683	0.097007
1142.764695	0.107342
1142.920689	0.109389
1143.076665	0.110881
1143.232622	0.103389
1143.388562	0.104692
1143.544483	0.103375
1143.700385	0.105453
1143.856270	0.096619
1144.012136	0.102464
1144.167985	0.097238
1144.323814	0.089576
1144.479626	0.085356
1144.635420	0.095327
1144.791195	0.087634
1144.946952	0.091743
1145.102691	0.097432
1145.258411	0.101547
1145.414113	0.087955
1145.569798	0.087809
1145.725463	0.095181
1145.881111	0.094080
1146.036741	0.091398
1146.192352	0.097005
1146.347945	0.093837
1146.503519	0.088286
1146.659076	0.080414
1146.814614	0.084287
1146.970134	0.089003
1147.125636	0.083871
1147.281120	0.086626
1147.436585	0.082252
1147.592032	0.081761
1147.747461	0.078982
1147.902872	0.078617
1148.058265	0.081147
1148.213639	0.082007
1148.368995	0.074807
1148.524333	0.074821
1148.679653	0.073555
1148.834954	0.078317
1148.990237	0.075285
1149.145502	0.079419
1149.300749	0.083169
1149.455977	0.088216
1149.611188	0.088931
1149.766380	0.087275
1149.921553	0.091579
1150.076709	0.091234
1150.231846	0.088198
1150.386966	0.093438
1150.542066	0.090055
1150.697149	0.088376
1150.852214	0.088611
1151.007260	0.090291
1151.162288	0.091252
1151.317298	0.091411
1151.472289	0.089604
1151.627263	0.092607
1151.782218	0.087110
1151.937155	0.090616
1152.092073	0.089920
1152.246974	0.085623
1152.401856	0.080709
1152.556720	0.086016
1152.711566	0.078624
1152.866393	0.072744
1153.021203	0.073690
1153.175994	0.077393
1153.330767	0.076378
1153.485521	0.075698
1153.640258	0.084179
1153.794976	0.091398
1153.949676	0.089357
1154.104358	0.091027
1154.259021	0.094168
1154.413667	0.096416
1154.568294	0.098598
1154.722903	0.092844
1154.877493	0.094884
1155.032066	0.083394
1155.186620	0.078358
1155.341156	0.072338
1155.495674	0.072278
1155.650173	0.079225
1155.804654	0.073750
1155.959118	0.069450
1156.113562	0.073916
1156.267989	0.072997
1156.422397	0.077244
1156.576788	0.084621
1156.731160	0.092751
1156.885513	0.088797
1157.039849	0.078630
1157.194166	0.080870
1157.348465	0.080760
1157.502746	0.086764
1157.657009	0.082716
1157.811253	0.072208
1157.965479	0.071432
1158.119687	0.063065
1158.273877	0.071197
1158.428048	0.082650
1158.582201	0.082216
1158.736337	0.081479
1158.890453	0.071588
1159.044552	0.072498
1159.198632	0.095250
1159.352694	0.087470
1159.506738	0.089851
1159.660764	0.090306
1159.814771	0.089549
1159.968761	0.087340
1160.122732	0.087260
1160.276685	0.092275
1160.430619	0.095312
1160.584535	0.090796
1160.738434	0.092414
1160.892313	0.106220
1161.046175	0.111993
1161.200019	0.099997
1161.353844	0.105768
1161.507651	0.105478
1161.661440	0.096967
1161.815210	0.100637
1161.968962	0.087456
1162.122697	0.084607
1162.276412	0.084660
1162.430110	0.075475
1162.583789	0.090779
1162.737451	0.094304
1162.891094	0.098507
1163.044718	0.096960
1163.198325	0.087487
1163.351913	0.099583
1163.505483	0.103491
1163.659035	0.097796
1163.812569	0.091654
1163.966084	0.072418
1164.119581	0.067308
1164.273060	0.059286
1164.426521	0.065072
1164.579964	0.080359
1164.733388	0.077404
1164.886794	0.078780
1165.040182	0.078050
1165.193551	0.093690
1165.346903	0.115496
1165.500236	0.111778
1165.653551	0.116797
1165.806848	0.116456
1165.960126	0.115014
1166.113386	0.107463
1166.266628	0.111981
1166.419852	0.111737
1166.573058	0.098558
1166.726245	0.082272
1166.879414	0.082915
1167.032565	0.082194
1167.185698	0.095389
1167.338812	0.080050
1167.491909	0.089346
1167.644987	0.085342
1167.798046	0.089877
1167.951088	0.097365
1168.104111	0.120788
1168.257117	0.108746
1168.410103	0.117553
1168.563072	0.105151
1168.716023	0.121407
1168.868955	0.118505
1169.021869	0.122030
1169.174765	0.115546
1169.327642	0.111892
1169.480501	0.107626
1169.633343	0.120391
1169.786165	0.123160
1169.938970	0.125070
1170.091757	0.098993
1170.244525	0.094393
1170.397275	0.101348
1170.550007	0.084889
1170.702720	0.080303
1170.855415	0.079258
1171.008092	0.083804
1171.160751	0.082003
1171.313392	0.087199
1171.466014	0.197461
1171.618619	0.155213
1171.771205	0.155213
1171.923772	0.155213
