sample name	sample
index	862
start time	 04-08-2021  12:33:11 PM
880	0.378847
Peak Time (s)	102.537
Peak Height 	0.3788
calc peak height	100,103
Baseline Time (s)	10.536
Baseline Value 	-0.004644
subtract baseline	10,4
Abs	0.305900
Peak Time (s)	101.536
Peak Height 	0.3059
calc peak height	100,103
Baseline Time (s)	8.535
Baseline Value 	9.3886E-4
subtract baseline	10,3
PK_550	0.159616
Peak Time (s)	102.537
Peak Height 	0.1596
calc peak height	100,103
Baseline Time (s)	8.535
Baseline Value 	6.4754E-4
subtract baseline	10,2
PK_880	0.285515
Peak Time (s)	102.537
Peak Height 	0.2855
calc peak height	100,103
Baseline Time (s)	9.036
Baseline Value 	0.001406
subtract baseline	10,1


Time (s)	A880-A510	A880-A775	A880-A975	A880	I510	I775	I975	I880	
0.035500	-0.000764	0.000241	0.001072	0.003341	6854.099955	42431.065437	3897.530385	22655.554648
0.536000	-0.000677	-0.000666	-0.000458	0.004790	6841.093971	42216.255362	3889.136728	22589.059675
1.036500	-0.004072	-0.000245	0.003701	0.004443	6812.120953	42286.192064	3901.858702	22604.979127
1.536500	-0.002961	-0.000440	-0.002589	0.007066	6797.819924	42030.262155	3876.823925	22485.018966
2.036500	-0.001033	-0.000883	-0.003849	0.001385	6870.278901	42507.241632	3889.173996	22745.698953
2.537000	0.001451	-0.000482	-0.001655	0.002034	6887.941879	42484.575319	3893.523347	22715.759130
3.037500	-0.002932	-0.001048	-0.001541	0.006070	6807.510354	42065.448815	3882.521304	22530.487431
3.540000	0.000344	-0.000914	-0.002644	0.000382	6893.210352	42596.460229	3895.394450	22792.108696
4.034500	-0.001050	-0.000753	0.001276	0.000084	6882.624295	42638.525552	3907.356005	22805.883968
4.538000	0.001076	-0.000485	0.000115	0.001130	6893.046168	42567.104952	3901.080106	22757.480536
5.036000	0.000877	-0.000040	0.000486	0.000510	6897.118363	42665.021415	3903.897948	22786.184948
5.535500	-0.000353	-0.000028	0.000777	0.000875	6881.727729	42632.481856	3903.684653	22769.283877
6.036000	-0.001262	-0.000855	0.000697	0.000118	6880.262669	42626.028001	3905.612250	22804.323599
6.536500	0.000969	-0.001106	-0.000663	-0.000224	6905.107759	42634.451170	3902.717170	22820.178345
7.037000	-0.000466	-0.000778	-0.000518	-0.000505	6893.948564	42690.429422	3903.926730	22833.221427
7.537000	0.001646	0.000025	-0.000036	0.000425	6905.387361	42678.773796	3902.654512	22790.130503
8.037500	0.000673	0.000477	0.001901	0.000788	6892.467743	42686.961691	3907.132708	22773.325689
8.535000	-0.001496	0.000000	0.000000	0.000353	6875.750097	42683.105480	3902.961881	22793.452308
9.035500	0.000000	-0.000337	0.001063	-0.000340	6896.859611	42715.835983	3907.958195	22825.566504
9.535500	-0.000523	0.000049	0.002270	0.000153	6887.039187	42706.013256	3909.995565	22802.686793
10.036000	0.000806	-0.000288	0.002223	-0.000172	6903.029788	42704.933988	3910.792270	22817.772315
10.536000	0.001838	0.000348	-0.000177	0.000000	6911.366426	42747.619018	3903.460305	22809.794450
11.036500	-0.002223	-0.000739	-0.000240	0.004469	6829.421273	42238.814630	3890.650197	22603.749430
11.536500	0.002441	0.000194	-0.001332	-0.000051	6917.715165	42738.191527	3900.330360	22812.179453
12.040000	0.000161	-0.000024	0.001415	-0.000197	6897.033133	42731.490075	3908.555116	22818.920221
12.534500	0.001318	0.000519	0.002990	-0.000042	6906.732457	42767.256067	3912.613332	22811.737448
13.035000	-0.000496	-0.000907	-0.000970	0.004021	6850.165807	42264.350061	3889.858760	22624.321934
13.541000	-0.000695	0.000056	0.004898	0.001297	6874.373380	42601.440221	3914.242804	22749.788172
14.057500	-0.001838	-0.000509	0.004028	0.000079	6875.099239	42661.480825	3915.240118	22806.141669
14.535500	-0.000919	-0.000173	0.000709	0.003052	6855.384624	42419.671618	3897.320171	22668.842134
15.036000	-0.004395	-0.000259	-0.005858	0.005605	6798.071364	42179.221410	3871.808383	22551.729167
15.559500	-0.000010	-0.000624	0.001712	0.000362	6889.977705	42624.850698	3907.806576	22793.019476
16.037000	-0.000441	-0.000220	0.000641	0.000078	6888.561461	42688.135918	3905.566117	22806.196476
16.536500	-0.001538	-0.000668	0.002285	0.000603	6872.941523	42598.661832	3908.753092	22781.868228
17.037000	-0.002619	-0.000884	-0.001122	0.003790	6832.123817	42287.488441	3890.081299	22634.949600
17.536500	0.001049	0.000092	0.001054	-0.002375	6926.778751	42943.466060	3913.750319	22920.161960
18.038000	0.000802	-0.000407	0.003494	-0.002023	6920.956508	42864.681291	3919.745823	22903.776291
18.537500	-0.001211	-0.000855	0.001502	0.000797	6874.219917	42563.764975	3905.971536	22772.911539
19.035500	-0.001661	0.000356	-0.000955	0.004001	6839.236806	42381.360625	3889.959133	22625.260027
19.535500	0.000155	-0.000707	0.003799	0.001364	6881.911083	42525.375356	3910.906931	22746.705960
20.036000	-0.002256	-0.000530	-0.001636	0.001369	6858.701068	42541.071489	3895.451032	22746.444287
20.536500	0.000260	-0.000324	0.005145	0.001815	6878.583375	42519.145367	3913.465706	22725.873440
21.036500	-0.002500	-0.000086	-0.003788	0.003727	6833.844417	42365.936075	3882.786000	22637.822029
21.537000	-0.001644	-0.000040	0.000227	0.001596	6862.391138	42565.197328	3900.079487	22735.960194
22.034500	-0.001632	-0.000467	0.000119	0.001074	6867.516672	42573.976309	3901.252984	22760.096531
22.540000	-0.000292	-0.000351	0.001831	0.001720	6874.180094	42525.359169	3904.281350	22730.261000
23.035000	-0.001378	-0.000830	0.003820	0.003170	6849.866392	42348.949241	3905.812705	22663.447537
23.535500	-0.002375	-0.000070	0.001836	0.001738	6854.026238	42549.413211	3904.241535	22729.418623
24.035500	-0.001569	-0.000672	0.001527	0.001342	6865.543595	42530.521975	3904.489844	22747.701418
24.535500	0.001068	-0.000492	0.002913	0.002017	6884.409323	42485.200171	3906.512341	22716.536954
25.036500	-0.000786	0.000024	0.001948	0.001767	6868.978273	42555.382200	3904.478947	22728.069657
25.539500	-0.000505	0.000265	0.005706	0.002301	6866.557852	42528.538965	3913.681790	22703.451820
26.036500	-0.000648	0.000220	0.000239	0.001921	6868.828664	42559.278016	3899.191876	22720.977367
26.537000	-0.000410	-0.000059	-0.000517	0.001399	6876.135828	42581.590823	3898.531762	22745.086148
27.042500	-0.000446	-0.000010	-0.000080	0.004208	6848.850307	42329.028614	3891.835640	22615.743477
27.535000	-0.000113	-0.000053	0.007698	0.002204	6871.251309	42508.262836	3919.680221	22707.937714
28.040500	0.004456	0.000976	0.002560	-0.001182	6948.384869	42914.724118	3914.643937	22864.619252
28.535000	0.000532	-0.000008	0.001431	0.001147	6887.637671	42609.356934	3904.772873	22756.733575
29.063000	-0.004044	-0.000361	-0.000410	0.006714	6790.924579	42069.340402	3883.881812	22501.072665
29.536000	-0.000957	-0.000855	0.002195	0.000653	6878.048331	42576.990613	3908.354525	22779.560441
30.036000	0.000343	-0.000342	0.005301	0.000564	6891.436539	42632.154278	3917.500631	22783.657633
30.536500	-0.000687	0.000374	0.000336	0.000452	6882.581359	42708.401206	3903.633562	22788.854843
31.039500	-0.002615	-0.000503	-0.002055	0.004949	6821.137848	42216.642577	3884.215621	22581.759649
31.537000	-0.002596	0.000423	0.003237	0.002664	6843.059686	42509.682298	3905.593694	22686.711711
32.037500	0.000669	0.000574	0.001712	0.003344	6867.816236	42461.342126	3899.334096	22655.437633
32.544000	0.001785	0.000320	0.001605	0.001347	6897.809142	42621.184479	3904.700213	22747.493170
33.041000	-0.001433	-0.000616	0.002883	0.003719	6844.099586	42318.342978	3901.588979	22638.183565
33.535500	-0.001475	0.000248	0.002025	0.001162	6868.176127	42631.475794	3906.420678	22756.021571
34.036000	-0.002087	-0.000608	0.001007	0.000292	6870.648032	42632.801725	3905.997237	22796.263552
34.536000	0.001931	-0.000835	-0.001740	-0.002460	6936.206526	42865.526713	3906.014364	22924.135010
35.036500	-0.000153	0.000608	0.000386	0.003822	6855.342232	42420.698371	3894.235222	22633.445567
35.536500	0.000244	0.000225	0.003299	0.002529	6871.557493	42503.922894	3906.156205	22692.943484
36.037000	-0.001830	-0.000522	-0.001515	0.002059	6856.175901	42478.600746	3893.845744	22714.604786
36.537000	-0.000570	0.000512	-0.001793	0.002599	6863.066947	42523.809884	3891.543677	22689.710268
37.035000	0.000071	0.000046	0.003813	0.003864	6857.094947	42365.488819	3903.818386	22631.530844
37.535000	-0.000667	0.000002	0.004251	0.002254	6865.451152	42508.742137	3909.651375	22705.601714
38.035500	0.001176	0.000332	-0.002889	0.002735	6878.534510	42494.858742	3888.080594	22683.454490
38.535500	-0.000019	0.000624	0.006030	0.002586	6868.483003	42535.240746	3913.790581	22690.298825
39.036000	-0.000373	0.000273	0.001934	0.002552	6865.412268	42506.186717	3902.207091	22691.871230
39.536500	-0.000632	-0.000095	0.001014	0.002320	6865.150551	42493.812928	3900.256874	22702.562608
40.036000	-0.000937	0.000302	0.004492	0.002406	6861.402969	42522.272190	3909.908412	22698.617863
40.537000	0.000540	-0.000231	0.002633	0.002015	6879.351726	42509.319509	3905.724501	22716.653665
41.040000	-0.002395	-0.000845	0.002901	0.003783	6834.317058	42291.602393	3901.459980	22635.246911
41.537500	-0.001691	0.000399	0.004136	0.002237	6855.790416	42546.613545	3909.373235	22706.378667
42.037000	-0.000920	-0.000112	-0.002204	0.002162	6863.912820	42506.737172	3891.616113	22709.873580
42.535000	0.000755	0.000427	0.001014	0.002731	6874.527237	42503.968543	3899.093000	22683.633921
43.041000	-0.000531	0.000800	0.005529	0.004839	6842.012474	42345.364156	3905.926230	22586.792589
43.536000	0.000112	0.000762	0.003488	0.002884	6866.873819	42520.651274	3905.681829	22676.579621
44.036000	0.000158	-0.000114	0.001614	0.002423	6871.756263	42482.693915	3901.668920	22697.846447
44.536500	0.003572	0.000809	0.004568	-0.001109	6939.028885	42892.592770	3920.205172	22861.228533
45.039500	-0.003341	-0.000609	0.002191	0.005295	6810.976061	42175.567661	3895.174457	22565.936729
45.539500	-0.001163	0.000967	-0.000236	0.001563	6867.318099	42660.730545	3898.860546	22737.478395
46.034500	-0.000811	0.000179	0.001005	0.000559	6880.357929	42680.554308	3905.232532	22783.890970
46.537500	0.001613	0.000493	0.004141	0.001087	6898.655163	42660.886919	3912.674269	22759.474462
47.035000	-0.004003	-0.000251	-0.004481	0.005950	6798.515793	42148.525590	3874.668830	22535.946192
47.535500	0.001092	0.000679	0.007606	0.001081	6893.684821	42678.644999	3922.651421	22759.786910
48.048000	-0.000980	-0.000400	0.000910	0.000663	6877.732413	42617.763257	3904.666182	22779.090222
48.536000	0.001114	0.000197	-0.002000	0.002778	6877.532408	42478.679756	3890.458918	22681.494949
49.036000	-0.002725	-0.000584	0.002819	0.004113	6828.037244	42285.377806	3900.292490	22620.103724
49.548500	0.000365	-0.000035	0.000348	0.000417	6893.065536	42673.970210	3903.768880	22790.476160
50.036500	-0.000110	0.000322	0.002688	0.000703	6885.722600	42680.504961	3909.620201	22777.240381
50.537000	-0.000517	0.000048	-0.002648	0.000740	6881.451140	42651.901136	3894.373019	22775.551953
51.034500	-0.002281	0.000217	0.003621	0.004387	6829.649689	42333.383535	3901.789434	22607.517571
51.537500	0.001827	0.000431	0.001493	-0.000577	6916.859609	42808.574314	3909.861900	22836.562388
52.035500	-0.001106	-0.001039	0.003744	-0.001219	6894.662120	42732.125766	3918.151655	22866.348892
52.535000	-0.041805	-0.019811	0.062318	0.305694	4583.096487	21622.510206	3374.369859	12639.892113
53.035000	-0.046923	-0.015387	0.004736	0.008918	6387.390929	40538.783441	3892.132871	22400.740477
53.536000	-0.028911	-0.017294	-0.008925	-0.134196	8044.486228	55069.292521	4316.702099	30096.151348
54.036000	-0.025362	-0.013729	-0.006579	-0.096422	7639.357377	51104.193443	4187.671365	27812.775507
54.536500	-0.012564	-0.013409	-0.010754	-0.122433	8101.222547	54128.400014	4265.950191	29363.708792
55.037000	-0.005699	-0.013933	-0.015752	-0.150937	8559.654916	57549.390014	4354.738419	31173.461813
55.537000	0.008136	-0.011197	-0.010430	-0.148811	8719.824222	57626.433786	4367.187211	31034.320624
56.037500	0.013796	-0.003239	-0.000128	-0.108166	8253.786854	53645.672028	4252.623033	28501.527608
56.535000	0.016641	0.000827	0.008586	-0.075663	7887.050050	50417.986432	4168.239222	26639.889290
57.035500	0.014484	0.001839	0.015719	-0.027290	7317.144455	45490.057756	4032.471278	24114.951081
57.535500	0.018314	0.005118	0.027450	-0.005642	7131.485527	43718.922504	4001.701338	23072.957561
58.036000	0.025161	0.008332	0.035137	0.018487	6958.543395	41791.239466	3952.209925	21971.102658
58.535500	0.035305	0.013916	0.034411	0.030902	6936.322438	41181.481918	3913.978865	21427.571614
59.036500	0.034169	0.014058	0.050400	0.060119	6650.243844	38690.995276	3876.645263	20208.159935
59.539500	0.045086	0.017868	0.055733	0.025588	7086.220912	42010.973430	3992.692408	21658.342490
60.034000	0.058283	0.026986	0.063840	0.016941	7312.549914	43651.347843	4044.732164	22039.864571
60.537500	0.060514	0.029516	0.071731	0.041521	7081.112375	41625.097104	3992.890004	20974.840597
61.035000	0.066804	0.033620	0.073213	0.053278	7026.287077	40945.644482	3961.949063	20486.378248
61.535500	0.070757	0.034339	0.076340	0.056989	7028.703743	40683.259894	3960.211849	20334.921897
62.070500	0.077293	0.037399	0.081114	0.062378	7040.149013	40480.153931	3958.384625	20117.235973
62.541500	0.081625	0.040379	0.083644	0.067536	7031.896962	40291.216660	3950.607582	19911.416287
63.036500	0.081667	0.041973	0.086495	0.076441	6944.360205	39664.107345	3932.876366	19561.823532
63.536000	0.086557	0.044341	0.097161	0.077691	6980.092990	39759.249631	3960.564594	19513.284227
64.043500	0.092256	0.046400	0.098264	0.082758	6986.334167	39503.675077	3948.835492	19318.119610
64.537000	0.095795	0.048492	0.104116	0.087107	6978.343239	39313.002760	3953.271395	19152.376105
65.037000	0.097025	0.050297	0.098827	0.097924	6884.900443	38561.491941	3906.533824	18747.281459
65.537500	0.104036	0.052412	0.107908	0.096650	6965.524266	38842.302272	3936.383327	18794.465274
66.034500	0.107040	0.054621	0.111962	0.101871	6943.798579	38592.645272	3932.982747	18601.964022
66.535500	0.111168	0.056569	0.117513	0.106765	6936.317102	38350.096239	3934.895093	18423.597903
67.036000	0.109675	0.058639	0.117429	0.117193	6821.565231	37670.961618	3904.635076	18050.182343
67.536000	0.119414	0.060817	0.123163	0.116519	6921.621348	37901.253043	3922.992822	18074.046208
68.036500	0.122273	0.063487	0.126546	0.122529	6891.100364	37631.762704	3915.435237	17862.580570
68.539000	0.128289	0.065491	0.132476	0.127856	6897.761710	37365.684065	3917.166064	17677.544217
69.036500	0.126399	0.067075	0.132218	0.137374	6788.882824	36738.534833	3889.395864	17352.545263
69.537000	0.133459	0.069038	0.140761	0.137929	6850.607815	36848.947858	3912.038495	17333.791439
70.037500	0.136561	0.071776	0.141741	0.143570	6826.407951	36621.618057	3898.776766	17144.766212
70.537500	0.139688	0.073280	0.148051	0.147782	6816.108660	36410.880440	3904.729442	17005.200615
71.036000	0.140504	0.076277	0.144518	0.159342	6715.486421	35753.082062	3862.538062	16629.043175
71.535500	0.147311	0.077498	0.153445	0.158269	6789.047058	35928.052277	3890.329763	16663.556878
72.038500	0.152396	0.081418	0.156070	0.164769	6775.731579	35731.345182	3879.482798	16455.881453
72.536000	0.156264	0.082909	0.161204	0.168723	6774.933385	35544.713720	3882.776911	16331.085563
73.036000	0.154622	0.083695	0.159978	0.178730	6667.030909	34855.107533	3851.797342	16020.239936
73.536500	0.161173	0.086931	0.167643	0.178215	6732.135932	35133.820851	3874.276631	16036.053714
74.037000	0.164745	0.087950	0.169199	0.182053	6729.664275	34924.086898	3867.963395	15918.588110
74.534500	0.168348	0.089931	0.169058	0.186080	6725.735018	34772.834853	3856.517391	15796.470867
75.035500	0.170879	0.091678	0.180687	0.190261	6710.457431	34593.682791	3877.048203	15670.834463
75.535000	0.173742	0.093767	0.176396	0.194856	6694.493856	34410.285270	3852.593599	15534.173748
76.036000	0.176641	0.096138	0.184374	0.199051	6682.578613	34277.425532	3862.943481	15410.641092
76.535500	0.179986	0.097901	0.190346	0.203976	6668.108162	34048.532018	3865.821813	15267.142000
77.036000	0.184062	0.098263	0.184518	0.206445	6682.838007	33896.925424	3843.188425	15195.835662
77.536000	0.184397	0.100440	0.187010	0.210955	6644.708319	33729.853685	3837.743796	15066.571560
78.036500	0.188891	0.102796	0.193268	0.215937	6640.277418	33542.967558	3841.182092	14925.349391
78.536500	0.190985	0.103346	0.200920	0.218801	6633.301538	33379.177167	3854.172962	14844.902481
79.036500	0.192210	0.105693	0.197047	0.228188	6560.036116	32886.228691	3818.548773	14584.889205
79.537500	0.198862	0.106987	0.199365	0.227506	6625.794418	33023.732072	3826.510727	14603.581698
80.035000	0.200122	0.106992	0.201038	0.229945	6615.147044	32854.351045	3824.472376	14536.829176
80.535000	0.203772	0.109679	0.210256	0.234651	6605.646046	32714.711962	3836.535510	14409.120606
81.035500	0.202335	0.110874	0.205517	0.238458	6558.741763	32534.782777	3813.793934	14306.781768
81.535500	0.206045	0.112331	0.217657	0.242599	6554.916610	32351.104187	3835.064869	14196.488320
82.035500	0.209246	0.113914	0.214034	0.246723	6546.731260	32178.303311	3814.461639	14087.713791
82.539000	0.214698	0.115559	0.219707	0.251047	6556.740622	31997.169759	3818.022393	13974.747829
83.036500	0.211618	0.115304	0.217910	0.259480	6455.791990	31417.284911	3791.285105	13757.632834
83.536500	0.217039	0.117522	0.225379	0.257628	6519.247215	31687.407005	3815.619127	13804.941090
84.037000	0.219577	0.119998	0.229365	0.262392	6499.716351	31535.282383	3813.571240	13683.646130
84.537000	0.223831	0.120840	0.222414	0.265861	6506.595539	31361.518843	3786.446728	13596.134486
85.039500	0.221157	0.120940	0.227576	0.274803	6406.087433	30784.255772	3776.767391	13373.767717
85.535000	0.224977	0.123638	0.231213	0.272459	6459.083285	31112.012173	3792.121799	13431.623353
86.035500	0.228198	0.125812	0.235098	0.277355	6444.607349	30934.637346	3789.513034	13311.155311
86.535500	0.231286	0.125785	0.239255	0.280187	6446.816994	30749.482036	3792.935252	13242.087602
87.039000	0.229769	0.125793	0.243834	0.287979	6367.328479	30251.586345	3784.654585	13054.357234
87.536500	0.233931	0.127511	0.244855	0.286363	6416.463801	30463.784512	3791.444626	13093.018660
88.036500	0.237061	0.130657	0.247428	0.291202	6401.864196	30355.798751	3785.606214	12977.692540
88.537000	0.239955	0.131232	0.251735	0.294665	6397.012187	30172.613268	3787.775752	12895.932102
89.037000	0.238191	0.131980	0.244868	0.301871	6321.400259	29767.436846	3752.120613	12727.909475
89.535000	0.241021	0.132974	0.253411	0.300953	6352.802493	29886.748421	3775.962647	12749.153228
90.035500	0.244692	0.133980	0.255330	0.303620	6361.258799	29783.090371	3774.059992	12687.539167
90.535000	0.247525	0.135945	0.256620	0.307861	6349.405415	29641.633715	3766.581745	12590.348475
91.035500	0.245829	0.136557	0.255009	0.316544	6263.180403	29145.929775	3740.882121	12394.257948
91.536000	0.248220	0.137743	0.262618	0.314322	6301.257422	29354.132223	3765.411932	12444.076762
92.039500	0.250539	0.138811	0.261991	0.317436	6294.660800	29229.000031	3756.011200	12374.348726
92.539500	0.253921	0.140858	0.268940	0.321688	6287.470734	29094.726179	3762.780635	12279.948434
93.037000	0.253016	0.140235	0.270477	0.330394	6208.910999	28534.282437	3744.882101	12089.526779
93.537000	0.259293	0.143305	0.269752	0.328385	6276.540646	28837.943908	3748.067647	12133.132472
94.037000	0.260913	0.143177	0.269890	0.330524	6272.257279	28701.921477	3743.107999	12086.703804
94.535000	0.260138	0.145185	0.274679	0.334447	6233.803570	28587.572004	3745.250855	12002.151551
95.037500	0.260448	0.144590	0.268237	0.342303	6172.902564	28089.088449	3710.410530	11835.123360
95.535500	0.265902	0.146536	0.282293	0.340690	6229.913346	28297.897438	3748.652933	11869.189520
96.036000	0.266735	0.148311	0.277611	0.344053	6209.397228	28204.506166	3728.846029	11798.340677
96.536000	0.268937	0.149472	0.281162	0.347371	6200.387794	28078.301244	3729.414187	11728.978208
97.036500	0.267218	0.149687	0.283912	0.355281	6123.594213	27632.930063	3716.897246	11565.749264
97.536000	0.271536	0.150546	0.284173	0.352284	6181.772270	27855.075140	3724.781290	11627.235601
98.037000	0.272198	0.151409	0.288859	0.355008	6165.278988	27747.632676	3729.562277	11571.335054
98.537000	0.276995	0.152643	0.285469	0.357639	6182.614536	27667.252789	3714.967324	11517.662459
99.035000	0.276012	0.153019	0.295497	0.360532	6151.643243	27523.081776	3732.282672	11459.005475
99.535000	0.277297	0.154303	0.293611	0.363718	6136.568181	27414.702922	3719.943498	11394.878664
100.035000	0.281664	0.156603	0.291535	0.367187	6143.689866	27348.372526	3706.618439	11325.597353
100.535500	0.278995	0.155593	0.296751	0.368476	6112.424148	27218.311154	3716.037591	11299.982523
101.039000	0.280726	0.157000	0.300571	0.370987	6106.303676	27156.141842	3719.197436	11250.312817
101.536000	0.284458	0.158128	0.305900	0.374694	6106.495282	27011.444177	3723.123036	11177.508495
102.119500	0.283983	0.158612	0.300596	0.376779	6086.465195	26922.066149	3705.351024	11136.840687
102.536500	0.285515	0.159616	0.300288	0.378847	6082.291564	26862.834675	3699.699709	11096.691351
103.034000	0.285725	0.160064	0.301739	0.382316	6056.987223	26695.509974	3694.923146	11029.770862
103.534500	0.288051	0.161074	0.307219	0.383773	6063.714678	26670.871254	3704.466942	11001.822979
104.035000	0.289072	0.162725	0.312028	0.386865	6047.709402	26591.499498	3708.566246	10942.817873
104.535000	0.292617	0.163389	0.309975	0.388999	6058.607425	26510.820214	3698.596083	10902.340416
105.038000	0.292745	0.164202	0.308744	0.392911	6029.456438	26341.717784	3686.482081	10828.654460
105.538500	0.296354	0.163853	0.312586	0.393033	6056.307955	26316.051688	3695.230825	10826.362315
