sample name	sample
index	194
start time	 02-18-2021  12:02:00 PM
880	0.469273
Peak Time (s)	92.037
Peak Height 	0.4693
calc peak height	90,93
Baseline Time (s)	11.537
Baseline Value 	-0.002985
subtract baseline	10,4
Abs	0.328202
Peak Time (s)	91.035
Peak Height 	0.3282
calc peak height	90,93
Baseline Time (s)	9.536
Baseline Value 	9.6754E-4
subtract baseline	10,3
PK_550	0.153246
Peak Time (s)	92.037
Peak Height 	0.1532
calc peak height	90,93
Baseline Time (s)	9.536
Baseline Value 	8.1807E-4
subtract baseline	10,2
PK_880	0.307881
Peak Time (s)	92.037
Peak Height 	0.3079
calc peak height	90,93
Baseline Time (s)	9.035
Baseline Value 	0.002164
subtract baseline	10,1


Time (s)	A880-A510	A880-A775	A880-A975	A880	I510	I775	I975	I880	
0.035500	-0.000610	0.000559	-0.000193	0.002094	6691.612701	43470.445389	3900.272660	22884.520897
0.536500	-0.003447	-0.000013	0.000041	0.004629	6644.757431	43181.294234	3894.717053	22768.025485
1.036000	-0.002496	-0.000408	0.000192	0.003567	6662.240315	43243.199635	3897.639487	22816.718681
1.539000	-0.004634	-0.000505	0.001844	0.006498	6618.364474	42962.936336	3894.557619	22682.567143
2.036500	0.000567	-0.000015	0.001077	0.001417	6707.912698	43480.100793	3904.995344	22915.734272
2.540000	-0.001311	0.000629	0.003863	0.001436	6691.236407	43538.471684	3911.745930	22914.857212
3.034500	0.000956	0.000133	0.001907	-0.001072	6733.369118	43727.268694	3913.098760	23030.999146
3.538000	0.000049	-0.000769	-0.000536	-0.000295	6718.454189	43569.688479	3905.237645	22994.952783
4.035500	0.000665	-0.000454	-0.002405	0.000064	6720.733104	43565.626072	3899.833054	22978.333862
4.536000	0.000145	-0.000427	0.000106	0.000055	6716.215442	43569.010600	3905.948470	22978.741069
5.036000	0.001581	-0.000275	-0.001716	0.000347	6726.332959	43555.913502	3900.815944	22965.221537
5.536000	0.001051	0.000928	-0.001177	0.001270	6713.483155	43582.083417	3899.883921	22922.524913
6.036500	-0.001313	-0.000577	0.004311	-0.000493	6708.181035	43606.238827	3917.580193	23004.131193
6.537000	-0.000556	-0.000360	0.002352	-0.000247	6712.688420	43603.486549	3912.167942	22992.709756
7.037500	-0.003075	-0.000731	-0.001899	-0.000309	6691.068467	43574.606288	3901.960883	22995.595964
7.537000	-0.003559	-0.000626	0.001105	-0.000764	6690.813075	43627.036590	3910.382564	23016.697374
8.035000	0.000171	-0.000548	0.000014	-0.000204	6718.735026	43581.869182	3906.355765	22990.739354
8.535000	-0.000952	0.000146	0.005939	-0.000240	6709.130369	43650.283260	3920.969274	22992.386692
9.035000	0.000000	0.000121	-0.001496	0.000056	6714.923313	43620.232104	3902.053149	22978.682198
9.535500	-0.000130	0.000000	0.000000	-0.000103	6715.176877	43623.748999	3906.073804	22986.035290
10.036000	-0.000668	-0.000846	-0.002545	-0.000944	6717.852443	43623.324356	3901.934890	23025.041708
10.536500	0.000718	-0.000169	-0.001755	0.000181	6720.160164	43581.284742	3901.120903	22972.877178
11.036000	0.000887	0.000259	0.005016	0.000270	6720.875499	43613.143967	3917.438196	22968.788830
11.537500	0.000777	-0.000134	0.003995	0.000000	6722.288581	43601.584307	3915.593087	22981.279268
12.037000	-0.001011	-0.000385	0.003594	-0.000639	6712.139097	43638.000090	3916.177477	23010.907246
12.534500	0.000246	-0.000596	-0.002438	-0.000458	6721.639601	43601.212930	3901.014969	23002.504851
13.035000	0.000352	0.000531	0.006374	-0.001094	6728.213050	43766.757357	3924.156920	23032.031875
13.536500	-0.002348	0.000083	0.000960	0.005525	6646.517311	43107.196247	3894.772051	22726.979476
14.041000	-0.000159	0.000898	0.004216	0.000388	6710.584855	43661.941522	3915.179939	22963.296288
14.535500	-0.002101	0.000584	0.001789	0.003588	6665.509376	43333.522219	3901.455917	22815.791534
15.036500	-0.000194	0.000020	0.003423	0.000725	6707.311397	43548.091968	3912.408970	22947.710761
15.536500	-0.006149	-0.000902	0.004658	0.003792	6628.625374	43176.449613	3907.932718	22806.408580
16.036500	-0.001996	0.000357	0.002901	0.000154	6696.481212	43633.150928	3912.532186	22974.154641
16.541000	-0.002427	-0.000147	0.001195	-0.000108	6694.995105	43610.521420	3909.001108	22986.290250
17.037500	-0.001218	-0.000115	0.001858	-0.000634	6710.265232	43662.768066	3911.906482	23010.647980
17.535000	-0.005786	-0.000384	-0.002510	0.004745	6623.539070	43136.164857	3888.313875	22762.714031
18.037500	-0.000454	0.000066	0.004977	0.000347	6708.347789	43587.790123	3917.152757	22965.192689
18.535500	0.000928	-0.000175	0.004597	0.000896	6715.699964	43513.851988	3914.871141	22939.823951
19.036000	-0.002409	0.000061	0.001712	0.001105	6684.512806	43516.377726	3907.301834	22930.171771
19.536000	-0.002251	0.000216	0.001000	0.003296	6666.743451	43326.398945	3900.249662	22829.170076
20.039000	-0.002852	-0.000448	0.002652	0.000874	6682.656629	43490.440925	3910.161230	22940.851808
20.536500	-0.001929	-0.000218	0.006478	0.001046	6689.240058	43495.863760	3919.127556	22932.907724
21.037000	-0.002673	-0.000304	0.002104	0.000723	6685.541835	43517.974948	3909.189840	22947.808224
21.537500	-0.003445	-0.001151	-0.000408	0.002323	6664.815039	43289.804944	3899.196833	22873.966269
22.037500	-0.002531	-0.000085	-0.001623	0.001275	6681.952756	43486.834857	3898.793222	22922.304812
22.534500	0.000327	-0.000348	0.000365	0.001411	6705.852761	43449.483893	3903.280284	22916.009089
23.035500	-0.002954	-0.000309	0.002113	0.001191	6678.991411	43473.807559	3908.070291	22926.210605
23.535500	-0.001637	0.000257	0.005226	0.003312	6671.961626	43328.775798	3910.492268	22828.447479
24.038500	0.001423	0.000135	0.001215	0.001644	6713.467542	43472.965177	3904.780756	22905.290520
24.536000	-0.003149	-0.000228	0.003757	0.001043	6678.577517	43495.119468	3912.448871	22933.009098
25.036500	-0.002720	0.000110	0.000493	0.001429	6678.955886	43490.668746	3903.547304	22915.195948
25.536500	0.001599	-0.000640	-0.001592	0.002515	6707.331654	43319.444640	3895.874249	22865.111916
26.037000	-0.002773	-0.000941	0.001722	0.000718	6684.708068	43458.859399	3908.270143	22948.038040
26.537000	-0.000375	-0.000974	-0.000634	0.000360	6708.935305	43489.232182	3903.407718	22964.609999
27.035000	-0.003531	-0.000064	0.001535	0.001224	6673.655199	43493.595488	3906.580491	22924.666956
27.535000	-0.003378	-0.001011	0.001540	0.002664	6662.429056	43271.123566	3903.092310	22858.268362
28.035500	0.001287	-0.000332	0.005179	-0.002685	6750.655110	43835.286993	3925.137175	23106.021375
28.536000	0.000963	-0.000375	-0.002008	-0.000278	6726.392496	43605.096515	3901.622942	22994.172997
29.036000	0.000290	-0.001078	0.002470	-0.000706	6724.220896	43579.219682	3913.582088	23014.000014
29.536500	-0.001130	-0.000958	0.006279	-0.001479	6718.497075	43663.010225	3924.875268	23049.889270
30.036000	-0.000204	0.000218	0.003311	-0.000108	6714.572364	43644.741972	3914.179767	22986.301439
30.537000	-0.000273	0.000031	0.007498	-0.000061	6713.544471	43622.736400	3924.382248	22984.092109
31.037000	0.001214	0.000354	0.004126	0.000066	6725.565448	43641.060171	3915.749663	22978.203884
31.551000	-0.000166	-0.000499	0.006359	-0.000214	6715.838950	43587.385054	3921.943814	22991.187377
32.035000	-0.001203	0.000321	0.005870	0.003192	6676.800986	43345.850250	3912.361184	22833.950912
32.535000	-0.000202	-0.000528	0.004470	-0.000345	6716.681413	43596.981882	3917.609198	22997.271637
33.041000	-0.000291	-0.000489	0.001647	-0.000342	6715.865532	43600.331088	3910.676335	22997.127248
33.536000	0.000777	-0.000294	0.002725	0.000582	6717.138886	43532.096180	3911.051853	22954.329281
34.036000	-0.001411	-0.000853	0.004317	-0.000813	6710.136968	43610.334450	3918.382544	23018.966866
34.535500	0.000003	-0.000299	0.002827	-0.000316	6718.237879	43615.793467	3913.501476	22995.936595
35.037000	0.000583	-0.000247	0.001150	-0.000145	6721.849636	43604.515994	3908.979918	22987.973744
35.537000	0.000122	-0.000453	-0.000621	0.002859	6691.326824	43304.905669	3897.388165	22849.306922
36.037000	-0.001336	0.000291	0.001375	0.002448	6682.148265	43412.402626	3903.215526	22868.206731
36.537500	-0.001600	0.000106	0.001454	0.002456	6679.764011	43394.482643	3903.387509	22867.845250
37.035000	-0.000647	-0.000210	0.002073	0.001922	6692.793662	43414.762415	3906.192200	22892.444496
37.535000	-0.000940	-0.000608	0.000116	0.001564	6693.373421	43411.054869	3902.306191	22908.979427
38.035000	-0.003440	-0.000065	-0.001195	0.001754	6669.827576	43443.951925	3898.670832	22900.214534
38.535500	0.000413	-0.000286	-0.001529	0.002084	6700.694963	43392.624731	3897.068024	22884.994009
39.035500	-0.001324	-0.000289	0.003276	0.001869	6687.329829	43412.391713	3909.253256	22894.907258
39.536000	-0.002638	0.000005	0.003448	0.003465	6661.906117	43291.098081	3905.782426	22821.446154
40.036500	-0.001582	-0.000381	0.003484	0.002398	6680.431025	43354.518031	3908.471199	22870.528624
40.536500	-0.002447	0.000171	-0.000851	0.001887	6677.330842	43453.553550	3899.180153	22894.054142
41.037500	-0.003317	-0.000411	0.000221	0.001944	6669.239714	43393.939933	3901.638865	22891.447052
41.534500	-0.000992	0.000347	0.007114	0.002380	6685.750537	43423.966497	3917.408967	22871.333883
42.035000	-0.002324	0.000081	0.007586	0.001626	6680.692445	43469.541611	3920.429674	22906.107449
42.535500	-0.000880	-0.000128	0.003569	0.002103	6689.166192	43405.497413	3909.397352	22884.114689
43.036000	-0.000558	-0.000461	0.000583	0.001931	6693.496003	43390.541434	3902.548044	22892.028695
43.536500	-0.000314	-0.000434	-0.000909	0.003324	6683.430563	43263.389062	3895.572285	22827.917099
44.036000	-0.000535	0.000019	0.002297	0.002337	6690.134055	43397.424400	3905.725551	22873.313909
44.536000	-0.000165	-0.000012	0.002994	0.002662	6690.540439	43364.280405	3906.633234	22858.377373
45.036500	-0.004086	-0.000422	0.005794	0.001724	6664.452332	43413.456717	3915.776637	22901.573605
45.534000	-0.002175	-0.000107	0.002790	0.003737	6663.564660	43255.355966	3903.522740	22808.930657
46.034500	0.000377	0.000073	0.006682	0.000761	6712.028076	43549.692193	3920.332898	22946.062376
46.535000	-0.000527	0.000455	0.002737	0.000312	6708.016950	43627.539529	3911.741867	22966.830098
47.035000	-0.000805	0.000279	0.002226	0.002068	6690.131831	43446.796324	3906.210240	22885.734951
47.535500	-0.002341	-0.000135	0.000773	0.005409	6647.589227	43097.794354	3894.601118	22732.304410
48.035500	-0.001311	0.000045	0.002200	0.000316	6701.075112	43588.722832	3910.420366	22966.650186
48.536000	0.001072	0.000424	0.005879	0.001065	6715.481035	43554.029938	3917.604843	22931.992461
49.063500	-0.002357	0.000008	0.005570	0.004312	6656.971349	43212.688972	3908.889907	22782.541492
49.536500	-0.003808	-0.000315	0.003014	0.004501	6642.745124	43165.186898	3902.212428	22773.892951
50.037000	-0.001115	0.000231	0.002836	0.001874	6689.116339	43460.424633	3908.168943	22894.677832
50.556000	0.000884	-0.000187	0.004181	0.000154	6721.868066	43582.206703	3915.671822	22974.153380
51.034500	-0.001749	-0.000176	0.005357	0.001999	6682.456574	43410.716689	3914.026651	22888.891554
51.535000	-0.002287	0.000477	0.002079	0.005304	6648.970193	43164.145478	3898.004401	22737.108435
52.035500	0.003311	0.000354	0.004735	-0.002165	6764.081066	43850.930502	3922.751123	23081.798136
52.538500	0.001696	0.000553	0.007820	-0.000461	6734.516926	43709.271037	3926.172205	23002.646170
53.038500	-0.000987	-0.000467	0.001830	0.001780	6691.055769	43404.019686	3905.945165	22898.992147
53.539000	-0.003211	0.000580	-0.002476	0.004374	6649.016044	43259.979888	3889.282563	22779.679053
54.036500	0.008439	-0.000524	0.006064	-0.023120	7004.492564	45788.258763	3979.293192	24081.162747
54.537000	0.002181	-0.005145	0.006952	0.037517	6415.729838	39805.169406	3833.991143	21316.505093
55.037000	-0.002267	-0.016855	0.020966	-0.063297	7294.078466	48208.801048	4132.153498	26137.505477
55.537000	0.002576	-0.036744	0.027568	-0.195793	8935.841630	61619.382070	4616.637662	34439.504666
56.035000	0.042272	-0.011067	0.066183	-0.138209	8691.470243	57460.209173	4541.084189	30518.689209
56.537500	0.071729	0.013598	0.097432	-0.045406	7902.762876	49538.410747	4317.454323	25198.260853
57.038000	0.089303	0.034251	0.110380	0.028878	7287.938527	44120.917628	4124.021679	21687.217909
57.536000	0.113585	0.051943	0.127871	0.077394	7048.717377	41296.991793	4036.101008	19697.795699
58.036000	0.151556	0.073532	0.155809	0.093894	7259.984460	41749.470282	4067.787048	19070.299156
58.536500	0.174464	0.088069	0.182270	0.142155	7011.612470	38847.125103	4008.108560	17365.972113
59.037000	0.195620	0.102337	0.201295	0.195859	6713.310176	35727.177525	3919.138297	15679.326226
59.540000	0.216486	0.112063	0.224956	0.222869	6659.463264	34446.529225	3910.914883	14906.673533
60.040000	0.228273	0.120637	0.234585	0.270029	6363.844738	31764.948334	3822.985347	13667.628381
60.534000	0.236610	0.127849	0.250163	0.298038	6209.564525	30415.407975	3795.495473	12992.941316
61.038000	0.247291	0.133730	0.261457	0.334199	6019.847482	28562.554564	3742.813179	12183.849312
61.535000	0.257787	0.139667	0.272184	0.351360	5972.039123	27907.937410	3729.666558	11822.826039
62.038000	0.263655	0.144224	0.283489	0.361846	5939.333099	27568.955299	3731.329615	11609.146855
62.536000	0.271216	0.148991	0.286449	0.373861	5908.123905	27160.707994	3713.120786	11370.570327
63.036000	0.277496	0.152272	0.286050	0.386884	5861.472098	26622.635214	3686.818232	11119.321250
63.539000	0.280112	0.153065	0.289435	0.393946	5831.109271	26282.717684	3679.754183	10986.194620
64.037000	0.279907	0.155660	0.297181	0.415239	5688.592715	25297.549443	3654.233220	10597.648895
64.537000	0.284026	0.161289	0.297927	0.424083	5658.200539	25132.386721	3639.355927	10441.784768
65.037000	0.284417	0.161201	0.298636	0.431726	5612.201369	24740.187919	3626.833047	10309.623244
65.537500	0.286635	0.161555	0.296065	0.433241	5616.625599	24681.882014	3619.547750	10283.698525
66.035000	0.287423	0.161559	0.301183	0.435723	5605.972841	24558.011812	3624.241273	10241.425858
66.536000	0.289325	0.163637	0.299075	0.439731	5592.790616	24461.961061	3613.396564	10173.668132
67.036000	0.291462	0.162576	0.306871	0.441230	5596.774617	24335.251917	3624.563291	10148.480207
67.536000	0.287530	0.163260	0.302298	0.448887	5525.239974	23993.892495	3603.022255	10021.206394
68.036500	0.290983	0.164293	0.308692	0.444242	5575.028327	24271.439386	3622.439146	10098.151107
68.536500	0.291544	0.164333	0.306228	0.445542	5570.438825	24209.542866	3615.762941	10076.525541
69.037000	0.291527	0.163318	0.307245	0.445886	5568.204130	24142.980016	3616.951087	10070.815487
69.536500	0.290704	0.162375	0.303312	0.450293	5536.032113	23882.938829	3602.341554	9998.077460
70.035000	0.295061	0.164669	0.305195	0.448173	5575.934923	24097.222656	3609.319190	10032.969692
70.535000	0.292705	0.162924	0.314235	0.447128	5567.809555	24063.085417	3627.185723	10050.238110
71.035500	0.290641	0.163902	0.299470	0.454351	5510.947788	23761.032613	3588.758564	9931.739600
71.536000	0.291494	0.162116	0.302010	0.453374	5522.055895	23722.214926	3594.774880	9947.649032
72.035500	0.295939	0.163754	0.312844	0.448946	5576.589535	24015.028657	3621.454915	10020.228533
72.536000	0.297078	0.161363	0.308890	0.447427	5593.142948	23972.702205	3617.136290	10045.299625
73.036500	0.298110	0.162648	0.308030	0.448673	5591.804769	23974.594999	3613.418736	10024.728954
73.539000	0.294082	0.161588	0.310875	0.453477	5537.218509	23691.985717	3609.978185	9945.971434
74.037000	0.300068	0.163320	0.311033	0.448447	5605.476088	24018.165130	3619.125203	10028.449749
74.534500	0.301501	0.162319	0.314395	0.448938	5611.392503	23945.787413	3624.234973	10020.359564
75.037000	0.296480	0.161585	0.312005	0.454002	5548.700292	23666.739082	3611.039878	9937.419692
75.534000	0.297685	0.160105	0.307601	0.453195	5561.095292	23634.621328	3604.753461	9950.580027
76.035000	0.302011	0.162555	0.317435	0.449717	5609.698188	23919.471379	3628.280708	10007.536255
76.535000	0.301085	0.161812	0.315082	0.449861	5602.988817	23876.625343	3623.813253	10005.178052
77.036000	0.299471	0.161896	0.310334	0.456068	5554.393925	23583.004789	3604.509663	9903.863519
77.536000	0.301741	0.160171	0.314733	0.456249	5567.284639	23492.462586	3611.883250	9900.926056
78.036500	0.301577	0.160060	0.313218	0.450854	5599.846044	23744.451250	3618.730905	9988.864093
78.537000	0.302223	0.160025	0.320932	0.451236	5601.497324	23724.433558	3631.839878	9982.598241
79.037500	0.300613	0.158820	0.315453	0.455977	5561.995267	23441.337469	3613.628279	9905.333290
79.534500	0.298506	0.160130	0.319576	0.456971	5542.917132	23456.335727	3619.160285	9889.246321
80.035000	0.302048	0.158601	0.319551	0.452498	5592.511360	23596.091926	3627.090307	9961.953454
80.535000	0.303764	0.159373	0.323368	0.453580	5596.470904	23581.323997	3632.006146	9944.293087
81.035500	0.298419	0.159906	0.320467	0.460643	5519.966362	23272.791995	3614.242862	9830.108076
81.535500	0.298280	0.156882	0.313879	0.458777	5530.482210	23218.499186	3605.963624	9860.087423
82.036000	0.300684	0.156883	0.319940	0.453642	5576.897103	23460.219788	3625.738372	9943.292787
82.536500	0.303201	0.157002	0.319163	0.454197	5589.103263	23439.577392	3623.359670	9934.253649
83.037000	0.299118	0.157165	0.320765	0.461075	5521.586317	23124.452740	3614.005587	9823.174014
83.537000	0.298533	0.155974	0.317156	0.460403	5522.122794	23100.321830	3608.848944	9833.956533
84.037000	0.303188	0.158252	0.310972	0.457242	5570.090990	23354.860346	3603.575609	9884.850398
84.535000	0.301546	0.154944	0.315195	0.455493	5570.756077	23281.554791	3614.027001	9913.182499
85.035000	0.301500	0.154746	0.319578	0.456409	5564.807892	23229.359341	3620.160904	9898.335783
85.535500	0.300271	0.155128	0.316993	0.461690	5524.863876	23001.388373	3606.316300	9813.340052
86.038500	0.305784	0.156685	0.319828	0.459021	5575.158074	23197.892202	3615.976099	9856.158472
86.536000	0.304721	0.155108	0.320587	0.459213	5567.386470	23115.449636	3616.978887	9853.081194
87.036500	0.304692	0.154772	0.321124	0.459757	5563.837708	23074.471162	3616.965065	9844.320784
87.536500	0.302864	0.153351	0.320613	0.459841	5552.047863	23004.707550	3615.914560	9842.970283
88.037000	0.303698	0.154050	0.326209	0.461004	5550.028737	22983.221965	3623.785074	9824.312472
88.534500	0.304317	0.153106	0.321416	0.461594	5550.207003	22912.446304	3614.237147	9814.862674
89.035000	0.307563	0.154482	0.320570	0.463865	5556.204448	22871.251947	3608.764941	9778.620148
89.537500	0.304463	0.153142	0.321972	0.463343	5540.370818	22833.696178	3612.138995	9786.940240
90.038000	0.305279	0.152367	0.326311	0.464095	5540.764504	22763.750594	3618.470495	9774.968481
90.535500	0.306464	0.151473	0.322010	0.465200	5541.252462	22672.521869	3608.949473	9757.410207
91.035000	0.307247	0.152564	0.328202	0.466404	5538.672847	22667.362249	3617.728409	9738.325132
91.536000	0.307289	0.152448	0.315642	0.467694	5531.044330	22603.510918	3593.595375	9717.947341
92.036500	0.307881	0.153246	0.326232	0.469273	5525.026381	22568.112550	3609.209349	9693.072498
92.536500	0.304532	0.149456	0.319972	0.466780	5519.818532	22509.483204	3602.643363	9732.383787
93.036500	0.302682	0.149429	0.320341	0.474332	5463.290668	22170.318444	3590.276922	9614.006769
93.536000	0.308412	0.149923	0.326854	0.470015	5523.742947	22384.905441	3608.998756	9681.415593
94.037500	0.307329	0.149218	0.323934	0.470877	5511.931214	22314.745129	3602.407896	9667.904546
94.535000	0.309796	0.149389	0.323399	0.472061	5519.716356	22269.532383	3599.431669	9649.384387
95.038000	0.308569	0.150287	0.325968	0.478998	5470.560084	22002.109576	3591.918944	9541.886871
95.536000	0.308593	0.151038	0.321973	0.480886	5459.466355	21952.183058	3581.920825	9512.922022
96.096500	0.309617	0.151833	0.327078	0.477145	5487.924932	22152.193839	3597.006542	9570.438318
96.547000	0.309227	0.148220	0.320600	0.475498	5495.483338	22065.264974	3588.730472	9595.914716
97.036500	0.309413	0.147631	0.323524	0.480600	5466.048253	21815.808109	3585.029958	9517.310246
97.537000	0.309912	0.149407	0.330872	0.478241	5483.117242	21996.687180	3601.669717	9553.536796
98.037000	0.310221	0.149591	0.328993	0.480242	5472.999627	21917.008538	3594.973613	9522.796862
98.535000	0.310712	0.149553	0.326462	0.481258	5469.861943	21870.905344	3588.904089	9507.230016
99.034500	0.309331	0.148648	0.326276	0.485345	5437.460621	21654.141665	3581.656886	9445.021503
