sample name	sample
index	829
start time	 03-31-2021  04:19:41 PM


Wavelength (nm)	Absorbance
494.344910	NaN
494.563924	NaN
494.782919	NaN
495.001897	NaN
495.220856	NaN
495.439797	NaN
495.658719	NaN
495.877624	-0.009096
496.096510	-0.103178
496.315378	-0.184895
496.534227	-0.730578
496.753059	-2.009309
496.971872	NaN
497.190667	0.133270
497.409444	0.114592
497.628203	0.111362
497.846943	0.109321
498.065665	0.108566
498.284369	0.108613
498.503055	0.107883
498.721723	0.108089
498.940372	0.107502
499.159003	0.107042
499.377616	0.107637
499.596210	0.107622
499.814787	0.107861
500.033345	0.108611
500.251885	0.107511
500.470406	0.108766
500.688910	0.109791
500.907395	0.109701
501.125862	0.109990
501.344311	0.110533
501.562742	0.111026
501.781154	0.111580
501.999548	0.111929
502.217924	0.112145
502.436282	0.110644
502.654621	0.109538
502.872942	0.110007
503.091245	0.110784
503.309530	0.110456
503.527797	0.111732
503.746045	0.112123
503.964275	0.111437
504.182487	0.112186
504.400681	0.113123
504.618856	0.112708
504.837013	0.113300
505.055152	0.112391
505.273273	0.112487
505.491376	0.110952
505.709460	0.110176
505.927526	0.110667
506.145574	0.110839
506.363604	0.110177
506.581615	0.110696
506.799608	0.110282
507.017583	0.110730
507.235540	0.110398
507.453478	0.110285
507.671399	0.110382
507.889301	0.110022
508.107185	0.110046
508.325050	0.110282
508.542898	0.110496
508.760727	0.110538
508.978538	0.111268
509.196330	0.111977
509.414105	0.111006
509.631861	0.110897
509.849599	0.110181
510.067319	0.109903
510.285021	0.110329
510.502704	0.110337
510.720369	0.110182
510.938016	0.109605
511.155645	0.110220
511.373255	0.111522
511.590848	0.112287
511.808422	0.113172
512.025977	0.112972
512.243515	0.113236
512.461034	0.113547
512.678536	0.114096
512.896018	0.114153
513.113483	0.113316
513.330930	0.112484
513.548358	0.112434
513.765768	0.112242
513.983160	0.113104
514.200533	0.113314
514.417889	0.113997
514.635226	0.114569
514.852545	0.115063
515.069845	0.115816
515.287128	0.117218
515.504392	0.117441
515.721638	0.118219
515.938866	0.117843
516.156075	0.117330
516.373267	0.116899
516.590440	0.116480
516.807594	0.117133
517.024731	0.116606
517.241850	0.116842
517.458950	0.117792
517.676032	0.117219
517.893095	0.118120
518.110141	0.119212
518.327168	0.120111
518.544177	0.120457
518.761168	0.119410
518.978141	0.120287
519.195095	0.119770
519.412031	0.119728
519.628949	0.120442
519.845849	0.120890
520.062731	0.120945
520.279594	0.120225
520.496439	0.120002
520.713266	0.120751
520.930074	0.120143
521.146865	0.120038
521.363637	0.119532
521.580391	0.119442
521.797127	0.118300
522.013844	0.118318
522.230543	0.117747
522.447224	0.118083
522.663887	0.118408
522.880532	0.118953
523.097158	0.119990
523.313766	0.120563
523.530356	0.121337
523.746928	0.121931
523.963481	0.122120
524.180017	0.123250
524.396534	0.123507
524.613032	0.123607
524.829513	0.124352
525.045975	0.124001
525.262420	0.123934
525.478845	0.123950
525.695253	0.124673
525.911643	0.124964
526.128014	0.125615
526.344367	0.126422
526.560702	0.127183
526.777018	0.126837
526.993316	0.127873
527.209597	0.128296
527.425858	0.128195
527.642102	0.129038
527.858328	0.128960
528.074535	0.129084
528.290724	0.128700
528.506894	0.128928
528.723047	0.129984
528.939181	0.130215
529.155297	0.130054
529.371395	0.130905
529.587475	0.130727
529.803536	0.131423
530.019579	0.131915
530.235604	0.132328
530.451611	0.131604
530.667600	0.131032
530.883570	0.131298
531.099522	0.131931
531.315456	0.132207
531.531372	0.132418
531.747269	0.132522
531.963148	0.131846
532.179009	0.132718
532.394852	0.133723
532.610676	0.134537
532.826482	0.134550
533.042271	0.134790
533.258040	0.134710
533.473792	0.135337
533.689525	0.135780
533.905240	0.136694
534.120937	0.136763
534.336616	0.136964
534.552277	0.136651
534.767919	0.136953
534.983543	0.137471
535.199149	0.137327
535.414736	0.136789
535.630306	0.137449
535.845857	0.137489
536.061390	0.138034
536.276904	0.138171
536.492401	0.139333
536.707879	0.139237
536.923339	0.139654
537.138781	0.140167
537.354204	0.140633
537.569610	0.139965
537.784997	0.140317
538.000366	0.139820
538.215716	0.139946
538.431049	0.139274
538.646363	0.139916
538.861659	0.139842
539.076937	0.140232
539.292196	0.140772
539.507438	0.141531
539.722661	0.142329
539.937866	0.142631
540.153052	0.143439
540.368221	0.144192
540.583371	0.144378
540.798503	0.144802
541.013617	0.145868
541.228712	0.146239
541.443789	0.146432
541.658848	0.146133
541.873889	0.146887
542.088912	0.147008
542.303916	0.147129
542.518902	0.147493
542.733870	0.147831
542.948820	0.147608
543.163752	0.147700
543.378665	0.147865
543.593560	0.147738
543.808437	0.147700
544.023295	0.147954
544.238136	0.147857
544.452958	0.148419
544.667762	0.148285
544.882548	0.148400
545.097315	0.148622
545.312064	0.148982
545.526795	0.149734
545.741508	0.149712
545.956203	0.149812
546.170879	0.150325
546.385537	0.150081
546.600177	0.150472
546.814799	0.150779
547.029402	0.150571
547.243988	0.151020
547.458555	0.151002
547.673103	0.151540
547.887634	0.151625
548.102146	0.152116
548.316640	0.152252
548.531116	0.152174
548.745574	0.151935
548.960013	0.152196
549.174435	0.152258
549.388838	0.152579
549.603222	0.152544
549.817589	0.152761
550.031937	0.152706
550.246267	0.152724
550.460579	0.153416
550.674873	0.153691
550.889148	0.154596
551.103405	0.154665
551.317644	0.155249
551.531865	0.156152
551.746068	0.157017
551.960252	0.157463
552.174418	0.158326
552.388566	0.158000
552.602696	0.158119
552.816807	0.158106
553.030900	0.158409
553.244975	0.158339
553.459032	0.158181
553.673070	0.158343
553.887091	0.158567
554.101093	0.158718
554.315077	0.158841
554.529042	0.159536
554.742990	0.159983
554.956919	0.160200
555.170830	0.160583
555.384722	0.160894
555.598597	0.160493
555.812453	0.160421
556.026291	0.160568
556.240111	0.160953
556.453913	0.160929
556.667696	0.160807
556.881461	0.160760
557.095208	0.160940
557.308937	0.160972
557.522647	0.160963
557.736339	0.161216
557.950013	0.161062
558.163669	0.161733
558.377307	0.161697
558.590926	0.161819
558.804527	0.162002
559.018110	0.162027
559.231675	0.162138
559.445221	0.162720
559.658749	0.162992
559.872259	0.163427
560.085751	0.163249
560.299225	0.163889
560.512680	0.164090
560.726117	0.164396
560.939536	0.164647
561.152937	0.165209
561.366319	0.165279
561.579683	0.165540
561.793029	0.165856
562.006357	0.166111
562.219667	0.166225
562.432958	0.166435
562.646231	0.166791
562.859486	0.166902
563.072723	0.166376
563.285941	0.166910
563.499141	0.167081
563.712323	0.167129
563.925487	0.166987
564.138632	0.166936
564.351760	0.167705
564.564869	0.167777
564.777960	0.168321
564.991032	0.168609
565.204087	0.168372
565.417123	0.168246
565.630141	0.168199
565.843140	0.168869
566.056122	0.169377
566.269085	0.168912
566.482030	0.168991
566.694957	0.168963
566.907866	0.169533
567.120756	0.169679
567.333628	0.169820
567.546482	0.170175
567.759318	0.169879
567.972135	0.169512
568.184935	0.169786
568.397716	0.169840
568.610478	0.169934
568.823223	0.169624
569.035949	0.169721
569.248657	0.169864
569.461347	0.169867
569.674019	0.169908
569.886672	0.170331
570.099308	0.170115
570.311925	0.170419
570.524523	0.170459
570.737104	0.170824
570.949666	0.170740
571.162210	0.170678
571.374736	0.171006
571.587244	0.171391
571.799733	0.171611
572.012205	0.171764
572.224658	0.171862
572.437092	0.172108
572.649509	0.172328
572.861907	0.172812
573.074287	0.173394
573.286649	0.173514
573.498993	0.173471
573.711318	0.173228
573.923625	0.173913
574.135914	0.174102
574.348185	0.174135
574.560438	0.174041
574.772672	0.174533
574.984888	0.174802
575.197086	0.175117
575.409266	0.175595
575.621427	0.176142
575.833570	0.175990
576.045695	0.176056
576.257802	0.175833
576.469890	0.176291
576.681961	0.176135
576.894013	0.175947
577.106046	0.175751
577.318062	0.175721
577.530059	0.175718
577.742039	0.175603
577.954000	0.175697
578.165942	0.176095
578.377867	0.176063
578.589773	0.175907
578.801661	0.176313
579.013531	0.176387
579.225382	0.176581
579.437216	0.176439
579.649031	0.176925
579.860828	0.177281
580.072606	0.177371
580.284367	0.177840
580.496109	0.178469
580.707833	0.178508
580.919539	0.178806
581.131227	0.179362
581.342896	0.180066
581.554547	0.180114
581.766180	0.180080
581.977795	0.180490
582.189391	0.180663
582.400969	0.180537
582.612529	0.180664
582.824071	0.181023
583.035595	0.180882
583.247100	0.180821
583.458587	0.181066
583.670056	0.181270
583.881506	0.181031
584.092939	0.180881
584.304353	0.181100
584.515749	0.181079
584.727127	0.181056
584.938486	0.180987
585.149828	0.181125
585.361151	0.181475
585.572456	0.181595
585.783742	0.181934
585.995011	0.182202
586.206261	0.182141
586.417493	0.182337
586.628706	0.182158
586.839902	0.182571
587.051079	0.182431
587.262238	0.181999
587.473379	0.182155
587.684502	0.182594
587.895606	0.182356
588.106692	0.182790
588.317760	0.183162
588.528810	0.183222
588.739841	0.183334
588.950855	0.183545
589.161850	0.183798
589.372827	0.183864
589.583785	0.183714
589.794726	0.183964
590.005648	0.184118
590.216552	0.184397
590.427437	0.184778
590.638305	0.184797
590.849154	0.184915
591.059985	0.185292
591.270798	0.185596
591.481592	0.185783
591.692369	0.186107
591.903127	0.186172
592.113867	0.185943
592.324588	0.185983
592.535292	0.186277
592.745977	0.186840
592.956644	0.186751
593.167293	0.186946
593.377923	0.187372
593.588536	0.187762
593.799130	0.187649
594.009706	0.187669
594.220263	0.188230
594.430803	0.188463
594.641324	0.188661
594.851827	0.189073
595.062312	0.189212
595.272778	0.189132
595.483227	0.189183
595.693657	0.189638
595.904069	0.190327
596.114462	0.190185
596.324838	0.190298
596.535195	0.190317
596.745534	0.190378
596.955855	0.190503
597.166157	0.190732
597.376441	0.190832
597.586707	0.191168
597.796955	0.191463
598.007185	0.191675
598.217396	0.191643
598.427589	0.192068
598.637764	0.192221
598.847921	0.192465
599.058060	0.192510
599.268180	0.192305
599.478282	0.191956
599.688366	0.191653
599.898431	0.191925
600.108479	0.191827
600.318508	0.191786
600.528519	0.191978
600.738511	0.191980
600.948486	0.191991
601.158442	0.192199
601.368380	0.192511
601.578300	0.192602
601.788202	0.192770
601.998085	0.193305
602.207950	0.193245
602.417797	0.193333
602.627626	0.193253
602.837436	0.193681
603.047228	0.194033
603.257002	0.194278
603.466758	0.194232
603.676496	0.194331
603.886215	0.194217
604.095916	0.194645
604.305599	0.194622
604.515264	0.194856
604.724910	0.194648
604.934538	0.194365
605.144148	0.194416
605.353740	0.194861
605.563314	0.194600
605.772869	0.194640
605.982406	0.194280
606.191925	0.194545
606.401425	0.194799
606.610908	0.194973
606.820372	0.195372
607.029818	0.195871
607.239246	0.195972
607.448655	0.196589
607.658047	0.196966
607.867420	0.197038
608.076775	0.197342
608.286111	0.197337
608.495430	0.197570
608.704730	0.197776
608.914012	0.197452
609.123275	0.197588
609.332521	0.197541
609.541748	0.197625
609.750957	0.197688
609.960148	0.197594
610.169321	0.197762
610.378475	0.198088
610.587611	0.198429
610.796729	0.198770
611.005829	0.198759
611.214910	0.198885
611.423974	0.199232
611.633019	0.199545
611.842045	0.199547
612.051054	0.199991
612.260044	0.200023
612.469017	0.200224
612.677970	0.200242
612.886906	0.200594
613.095824	0.200553
613.304723	0.200603
613.513604	0.200866
613.722467	0.200949
613.931311	0.200863
614.140138	0.201201
614.348946	0.201066
614.557736	0.201165
614.766507	0.201127
614.975261	0.201324
615.183996	0.201309
615.392713	0.201382
615.601412	0.201662
615.810092	0.201708
616.018754	0.201689
616.227399	0.201888
616.436024	0.202123
616.644632	0.202421
616.853222	0.202663
617.061793	0.202585
617.270346	0.202803
617.478880	0.203253
617.687397	0.203556
617.895895	0.203653
618.104375	0.203873
618.312837	0.203721
618.521281	0.203898
618.729706	0.204354
618.938113	0.204637
619.146502	0.204947
619.354873	0.204939
619.563226	0.205134
619.771560	0.205353
619.979876	0.205323
620.188174	0.205542
620.396453	0.205787
620.604715	0.205567
620.812958	0.205772
621.021183	0.205907
621.229390	0.206111
621.437578	0.206136
621.645748	0.206334
621.853900	0.206576
622.062034	0.206935
622.270150	0.206867
622.478247	0.207003
622.686326	0.207106
622.894387	0.207147
623.102430	0.207426
623.310454	0.207426
623.518461	0.207412
623.726449	0.207379
623.934418	0.207389
624.142370	0.207562
624.350303	0.208017
624.558218	0.207992
624.766115	0.207967
624.973994	0.207819
625.181855	0.207893
625.389697	0.207910
625.597521	0.208006
625.805327	0.207926
626.013114	0.207848
626.220883	0.207732
626.428634	0.208065
626.636367	0.208246
626.844082	0.208202
627.051778	0.208511
627.259457	0.208700
627.467117	0.209024
627.674758	0.209338
627.882382	0.209676
628.089987	0.209641
628.297574	0.210147
628.505143	0.210300
628.712694	0.210747
628.920226	0.211051
629.127740	0.211071
629.335236	0.211323
629.542714	0.211520
629.750174	0.211705
629.957615	0.211685
630.165038	0.211404
630.372443	0.211639
630.579829	0.211691
630.787198	0.211787
630.994548	0.211942
631.201880	0.212007
631.409194	0.212301
631.616489	0.212512
631.823766	0.213154
632.031025	0.213507
632.238266	0.213523
632.445489	0.213759
632.652693	0.213982
632.859879	0.214350
633.067047	0.214574
633.274197	0.214581
633.481329	0.214410
633.688442	0.214345
633.895537	0.214229
634.102614	0.214638
634.309672	0.214795
634.516713	0.214778
634.723735	0.214942
634.930739	0.215005
635.137724	0.215058
635.344692	0.215393
635.551641	0.215473
635.758572	0.215527
635.965485	0.215440
636.172379	0.215494
636.379256	0.215706
636.586114	0.215663
636.792954	0.215942
636.999775	0.216322
637.206579	0.216341
637.413364	0.216684
637.620131	0.216824
637.826880	0.217043
638.033610	0.217295
638.240323	0.217316
638.447017	0.217424
638.653692	0.217336
638.860350	0.217139
639.066990	0.217243
639.273611	0.217292
639.480214	0.217694
639.686798	0.217770
639.893365	0.217767
640.099913	0.217998
640.306443	0.218415
640.512955	0.218737
640.719449	0.219206
640.925924	0.219609
641.132381	0.219795
641.338820	0.219941
641.545241	0.220432
641.751644	0.220499
641.958028	0.220786
642.164394	0.220891
642.370742	0.221108
642.577071	0.221340
642.783383	0.221290
642.989676	0.221472
643.195951	0.221701
643.402207	0.221652
643.608446	0.222036
643.814666	0.222250
644.020868	0.222548
644.227052	0.222540
644.433218	0.222641
644.639365	0.222879
644.845494	0.223047
645.051605	0.223310
645.257698	0.223609
645.463772	0.223916
645.669828	0.224258
645.875866	0.224216
646.081886	0.224320
646.287888	0.224606
646.493871	0.225025
646.699836	0.225215
646.905783	0.225273
647.111712	0.225101
647.317622	0.225038
647.523514	0.224868
647.729388	0.225183
647.935244	0.225336
648.141082	0.225410
648.346901	0.225269
648.552702	0.225337
648.758485	0.225427
648.964250	0.225544
649.169996	0.225767
649.375724	0.225813
649.581434	0.225913
649.787126	0.226084
649.992800	0.226101
650.198455	0.226420
650.404092	0.226291
650.609711	0.226488
650.815311	0.226632
651.020894	0.226968
651.226458	0.227162
651.432004	0.227350
651.637532	0.227532
651.843041	0.227620
652.048532	0.227953
652.254006	0.228497
652.459460	0.228643
652.664897	0.228932
652.870315	0.228930
653.075716	0.229069
653.281097	0.229146
653.486461	0.229398
653.691807	0.230017
653.897134	0.229974
654.102443	0.230155
654.307734	0.230368
654.513006	0.230780
654.718261	0.231026
654.923497	0.231363
655.128715	0.231875
655.333915	0.232033
655.539096	0.231793
655.744259	0.232363
655.949404	0.232729
656.154531	0.232616
656.359640	0.232686
656.564730	0.232878
656.769802	0.233002
656.974856	0.233018
657.179892	0.233326
657.384909	0.233841
657.589908	0.233883
657.794889	0.233697
657.999852	0.234219
658.204797	0.234598
658.409723	0.234865
658.614631	0.235244
658.819521	0.235317
659.024393	0.235586
659.229246	0.235712
659.434081	0.235571
659.638898	0.235962
659.843697	0.235954
660.048478	0.236068
660.253240	0.236386
660.457984	0.236275
660.662710	0.236285
660.867417	0.236467
661.072107	0.236328
661.276778	0.236622
661.481431	0.236621
661.686066	0.236745
661.890682	0.236739
662.095281	0.236501
662.299861	0.236701
662.504422	0.236875
662.708966	0.236618
662.913491	0.237042
663.117999	0.237358
663.322488	0.237563
663.526958	0.238013
663.731411	0.238009
663.935845	0.238320
664.140261	0.238317
664.344659	0.238628
664.549038	0.238990
664.753400	0.239263
664.957743	0.239450
665.162068	0.239635
665.366375	0.239599
665.570663	0.240073
665.774933	0.240153
665.979185	0.240525
666.183419	0.240891
666.387635	0.241166
666.591832	0.241047
666.796011	0.240972
667.000172	0.241209
667.204315	0.241463
667.408439	0.241690
667.612545	0.242125
667.816634	0.242248
668.020703	0.242268
668.224755	0.242482
668.428788	0.242908
668.632803	0.243375
668.836800	0.243811
669.040779	0.244001
669.244739	0.244168
669.448681	0.244288
669.652605	0.244737
669.856511	0.244901
670.060399	0.245050
670.264268	0.245234
670.468119	0.245454
670.671952	0.245352
670.875767	0.245649
671.079563	0.245782
671.283341	0.245883
671.487101	0.246151
671.690843	0.246546
671.894567	0.246908
672.098272	0.247142
672.301959	0.247158
672.505628	0.247913
672.709278	0.248262
672.912911	0.248459
673.116525	0.248476
673.320121	0.248679
673.523699	0.248996
673.727258	0.249021
673.930799	0.249040
674.134322	0.249189
674.337827	0.248872
674.541314	0.248790
674.744782	0.248995
674.948232	0.249132
675.151664	0.249392
675.355078	0.249358
675.558474	0.249635
675.761851	0.249839
675.965210	0.250021
676.168551	0.250247
676.371873	0.250543
676.575178	0.250702
676.778464	0.251245
676.981732	0.251168
677.184981	0.251272
677.388213	0.251518
677.591426	0.251988
677.794621	0.252396
677.997798	0.252898
678.200956	0.253032
678.404097	0.253375
678.607219	0.253262
678.810323	0.253505
679.013408	0.253851
679.216476	0.254054
679.419525	0.253924
679.622556	0.254238
679.825569	0.254537
680.028563	0.254909
680.231540	0.255207
680.434498	0.255637
680.637438	0.255979
680.840359	0.256030
681.043263	0.256119
681.246148	0.256451
681.449015	0.256444
681.651864	0.256164
681.854694	0.256452
682.057506	0.256384
682.260301	0.256521
682.463076	0.256487
682.665834	0.256678
682.868573	0.257008
683.071295	0.257316
683.273998	0.257615
683.476682	0.257945
683.679349	0.258087
683.881997	0.258306
684.084627	0.258597
684.287239	0.259019
684.489833	0.259404
684.692408	0.259525
684.894965	0.259612
685.097504	0.259733
685.300025	0.259848
685.502527	0.259801
685.705012	0.260043
685.907478	0.260004
686.109925	0.260072
686.312355	0.260246
686.514766	0.260347
686.717159	0.260368
686.919534	0.260496
687.121891	0.260678
687.324230	0.261222
687.526550	0.261331
687.728852	0.261519
687.931136	0.261468
688.133401	0.261550
688.335649	0.261744
688.537878	0.262074
688.740089	0.262339
688.942281	0.262954
689.144456	0.262917
689.346612	0.263191
689.548750	0.263636
689.750870	0.263936
689.952971	0.264135
690.155055	0.264307
690.357120	0.264473
690.559167	0.264460
690.761195	0.264035
690.963206	0.264256
691.165198	0.264270
691.367172	0.264310
691.569128	0.264369
691.771065	0.264313
691.972984	0.264444
692.174885	0.264747
692.376768	0.265023
692.578633	0.265402
692.780479	0.265471
692.982308	0.265580
693.184118	0.265621
693.385909	0.265996
693.587683	0.266370
693.789438	0.266432
693.991175	0.266285
694.192894	0.266234
694.394595	0.266395
694.596277	0.266499
694.797941	0.266774
694.999587	0.266928
695.201215	0.266837
695.402824	0.266774
695.604416	0.267109
695.805989	0.267546
696.007543	0.267916
696.209080	0.268132
696.410598	0.267954
696.612099	0.268081
696.813580	0.268269
697.015044	0.268289
697.216490	0.268618
697.417917	0.268738
697.619326	0.268593
697.820717	0.268620
698.022089	0.268742
698.223444	0.269135
698.424780	0.269216
698.626098	0.269224
698.827397	0.269432
699.028679	0.269531
699.229942	0.269583
699.431187	0.269947
699.632414	0.270155
699.833622	0.270271
700.034813	0.270235
700.235985	0.270287
700.437139	0.270429
700.638274	0.270472
700.839392	0.270561
701.040491	0.270527
701.241572	0.270585
701.442635	0.270698
701.643679	0.270836
701.844706	0.271078
702.045714	0.271183
702.246704	0.271387
702.447675	0.271779
702.648629	0.272007
702.849564	0.272252
703.050481	0.272287
703.251380	0.272263
703.452260	0.272392
703.653122	0.272517
703.853966	0.272536
704.054792	0.272628
704.255600	0.272448
704.456389	0.272391
704.657160	0.272334
704.857913	0.272278
705.058648	0.272198
705.259365	0.272013
705.460063	0.272004
705.660743	0.271656
705.861405	0.271446
706.062048	0.271633
706.262674	0.271498
706.463281	0.271748
706.663870	0.271841
706.864441	0.272091
707.064993	0.271972
707.265527	0.271933
707.466043	0.272570
707.666541	0.272677
707.867021	0.272844
708.067482	0.272954
708.267925	0.272857
708.468350	0.272962
708.668757	0.273014
708.869145	0.273347
709.069516	0.273629
709.269868	0.273416
709.470201	0.273307
709.670517	0.273305
709.870814	0.273487
710.071093	0.273450
710.271354	0.273341
710.471597	0.273228
710.671821	0.273200
710.872028	0.273162
711.072216	0.273426
711.272385	0.273734
711.472537	0.273587
711.672670	0.273409
711.872785	0.273500
712.072882	0.273707
712.272961	0.273712
712.473021	0.273682
712.673063	0.273519
712.873087	0.273389
713.073093	0.273335
713.273081	0.273279
713.473050	0.273202
713.673001	0.273236
713.872934	0.273063
714.072849	0.272715
714.272745	0.272680
714.472623	0.272679
714.672483	0.272578
714.872325	0.272457
715.072148	0.272492
715.271954	0.272575
715.471741	0.272314
715.671509	0.272085
715.871260	0.272227
716.070992	0.271986
716.270707	0.271953
716.470403	0.271817
716.670080	0.272026
716.869740	0.272160
717.069381	0.272091
717.269004	0.272126
717.468609	0.272297
717.668195	0.272263
717.867764	0.272234
718.067314	0.272064
718.266846	0.271930
718.466360	0.271660
718.665855	0.271640
718.865332	0.271582
719.064791	0.271367
719.264232	0.271182
719.463655	0.271368
719.663059	0.271294
719.862445	0.271224
720.061813	0.271354
720.261163	0.271318
720.460494	0.270991
720.659807	0.270763
720.859102	0.270976
721.058379	0.271099
721.257638	0.270805
721.456878	0.270934
721.656100	0.270750
721.855304	0.270496
722.054490	0.270350
722.253657	0.270331
722.452806	0.270338
722.651937	0.270045
722.851050	0.269394
723.050145	0.269135
723.249221	0.268813
723.448279	0.268972
723.647319	0.268877
723.846340	0.268827
724.045344	0.268723
724.244329	0.268562
724.443296	0.268259
724.642245	0.268325
724.841175	0.268324
725.040088	0.268155
725.238982	0.267888
725.437857	0.267870
725.636715	0.267590
725.835554	0.267439
726.034376	0.267429
726.233179	0.267482
726.431963	0.267567
726.630730	0.267521
726.829478	0.267506
727.028208	0.267505
727.226920	0.267180
727.425614	0.267148
727.624289	0.266973
727.822946	0.266824
728.021585	0.266597
728.220206	0.266583
728.418808	0.266389
728.617392	0.266133
728.815958	0.265898
729.014506	0.266068
729.213036	0.265917
729.411547	0.265931
729.610040	0.265549
729.808515	0.265559
730.006972	0.265209
730.205410	0.265010
730.403831	0.265031
730.602233	0.264837
730.800616	0.264703
730.998982	0.264346
731.197329	0.263931
731.395658	0.263951
731.593969	0.263833
731.792262	0.263882
731.990536	0.263852
732.188793	0.263543
732.387031	0.263678
732.585250	0.263497
732.783452	0.263785
732.981635	0.263709
733.179800	0.263231
733.377947	0.263063
733.576076	0.262536
733.774186	0.262294
733.972278	0.262205
734.170352	0.261772
734.368408	0.261612
734.566446	0.261206
734.764465	0.261117
734.962466	0.261128
735.160449	0.260943
735.358413	0.261191
735.556360	0.261091
735.754288	0.261028
735.952198	0.261258
736.150090	0.260806
736.347963	0.261042
736.545818	0.260743
736.743655	0.260723
736.941474	0.260442
737.139275	0.260126
737.337057	0.259897
737.534821	0.259470
737.732567	0.258909
737.930295	0.258852
738.128005	0.258209
738.325696	0.258030
738.523369	0.257668
738.721024	0.257339
738.918660	0.257144
739.116279	0.257013
739.313879	0.257060
739.511461	0.256720
739.709024	0.256695
739.906570	0.256662
740.104097	0.256645
740.301606	0.256705
740.499097	0.256977
740.696569	0.256880
740.894024	0.256888
741.091460	0.256721
741.288878	0.256808
741.486277	0.256589
741.683659	0.256338
741.881022	0.256087
742.078367	0.255789
742.275694	0.255582
742.473002	0.255081
742.670293	0.254536
742.867565	0.254241
743.064819	0.254005
743.262054	0.254041
743.459272	0.253796
743.656471	0.253655
743.853652	0.253479
744.050815	0.252978
744.247959	0.252789
744.445085	0.252660
744.642194	0.252513
744.839283	0.252211
745.036355	0.251562
745.233408	0.251276
745.430444	0.250834
745.627461	0.250876
745.824459	0.250460
746.021440	0.250463
746.218402	0.250383
746.415346	0.250149
746.612272	0.249893
746.809180	0.249741
747.006069	0.249479
747.202940	0.249368
747.399793	0.249049
747.596628	0.248897
747.793444	0.248515
747.990243	0.248431
748.187023	0.248148
748.383784	0.247976
748.580528	0.247713
748.777253	0.247619
748.973960	0.247348
749.170649	0.247083
749.367320	0.247036
749.563973	0.246867
749.760607	0.246350
749.957223	0.246347
750.153821	0.246348
750.350400	0.246329
750.546962	0.245826
750.743505	0.245525
750.940030	0.245324
751.136536	0.245163
751.333025	0.245105
751.529495	0.245145
751.725947	0.244881
751.922381	0.244469
752.118796	0.244303
752.315194	0.244527
752.511573	0.244578
752.707934	0.244155
752.904276	0.243742
753.100601	0.243474
753.296907	0.243062
753.493195	0.242934
753.689465	0.242876
753.885716	0.242726
754.081949	0.242545
754.278164	0.242388
754.474361	0.242296
754.670540	0.242214
754.866700	0.242229
755.062843	0.242280
755.258967	0.241827
755.455072	0.241835
755.651160	0.241690
755.847229	0.241449
756.043280	0.241102
756.239313	0.240940
756.435328	0.240807
756.631324	0.240304
756.827302	0.239984
757.023262	0.239988
757.219204	0.239743
757.415127	0.239452
757.611033	0.239236
757.806920	0.239211
758.002788	0.239279
758.198639	0.239221
758.394471	0.239321
758.590286	0.239313
758.786081	0.239262
758.981859	0.239048
759.177619	0.239087
759.373360	0.239169
759.569083	0.238837
759.764788	0.238394
759.960474	0.238219
760.156143	0.237930
760.351793	0.237847
760.547425	0.237531
760.743038	0.237206
760.938634	0.236802
761.134211	0.236534
761.329770	0.236602
761.525311	0.236317
761.720833	0.236202
761.916338	0.235974
762.111824	0.235651
762.307292	0.235566
762.502741	0.235570
762.698173	0.235626
762.893586	0.235576
763.088981	0.235377
763.284358	0.235681
763.479716	0.235625
763.675057	0.235385
763.870379	0.235081
764.065683	0.234814
764.260968	0.234544
764.456236	0.234165
764.651485	0.233742
764.846716	0.233402
765.041929	0.232925
765.237123	0.232551
765.432299	0.232406
765.627457	0.232418
765.822597	0.232200
766.017719	0.232118
766.212822	0.232201
766.407907	0.232147
766.602974	0.232146
766.798023	0.232340
766.993054	0.232219
767.188066	0.232250
767.383060	0.232023
767.578036	0.232035
767.772993	0.231650
767.967933	0.231275
768.162854	0.231133
768.357757	0.231104
768.552642	0.230715
768.747508	0.230858
768.942356	0.230693
769.137186	0.230640
769.331998	0.230514
769.526792	0.230437
769.721567	0.230440
769.916324	0.230229
770.111063	0.229921
770.305784	0.229697
770.500486	0.229270
770.695171	0.229091
770.889837	0.229083
771.084484	0.228922
771.279114	0.228917
771.473725	0.228743
771.668318	0.228611
771.862893	0.228683
772.057450	0.228904
772.251988	0.229090
772.446509	0.229089
772.641011	0.228599
772.835494	0.228360
773.029960	0.228218
773.224407	0.228046
773.418836	0.227860
773.613247	0.227471
773.807640	0.227337
774.002014	0.227037
774.196370	0.226994
774.390708	0.227016
774.585028	0.227048
774.779330	0.227311
774.973613	0.227505
775.167878	0.227518
775.362125	0.227810
775.556354	0.227673
775.750564	0.227412
775.944756	0.227323
776.138930	0.227382
776.333086	0.227460
776.527223	0.227156
776.721343	0.227058
776.915444	0.226914
777.109526	0.226779
777.303591	0.226913
777.497637	0.227038
777.691666	0.226869
777.885676	0.226690
778.079667	0.226671
778.273641	0.226720
778.467596	0.226634
778.661533	0.226917
778.855452	0.226925
779.049352	0.227027
779.243235	0.227362
779.437099	0.227395
779.630945	0.227771
779.824773	0.227725
780.018582	0.227642
780.212373	0.227503
780.406146	0.227317
780.599901	0.227364
780.793638	0.227158
780.987356	0.226775
781.181056	0.226875
781.374738	0.226777
781.568402	0.226966
781.762047	0.227063
781.955674	0.227301
782.149283	0.227461
782.342874	0.227448
782.536447	0.227541
782.730001	0.227556
782.923537	0.227754
783.117055	0.227796
783.310555	0.227636
783.504036	0.227698
783.697499	0.227551
783.890944	0.227523
784.084371	0.227567
784.277780	0.227237
784.471170	0.227493
784.664542	0.227603
784.857896	0.227563
785.051231	0.227445
785.244549	0.227554
785.437848	0.227704
785.631129	0.227902
785.824392	0.228000
786.017636	0.228482
786.210863	0.228524
786.404071	0.228661
786.597260	0.228640
786.790432	0.228720
786.983585	0.228555
787.176721	0.228467
787.369838	0.228370
787.562936	0.228204
787.756017	0.227921
787.949079	0.227783
788.142123	0.227397
788.335149	0.227803
788.528156	0.227868
788.721146	0.228060
788.914117	0.228364
789.107070	0.228483
789.300005	0.228725
789.492921	0.228654
789.685819	0.228755
789.878699	0.229101
790.071561	0.229030
790.264405	0.229169
790.457230	0.229185
790.650037	0.229129
790.842826	0.229374
791.035597	0.229652
791.228349	0.229883
791.421084	0.230039
791.613800	0.230185
791.806497	0.230027
791.999177	0.230369
792.191838	0.230485
792.384481	0.230589
792.577106	0.230372
792.769713	0.230320
792.962301	0.230430
793.154871	0.230731
793.347423	0.230645
793.539957	0.230927
793.732473	0.231209
793.924970	0.231371
794.117449	0.231369
794.309910	0.231510
794.502353	0.231387
794.694777	0.231832
794.887183	0.231684
795.079571	0.231932
795.271941	0.232098
795.464293	0.231795
795.656626	0.232057
795.848941	0.232262
796.041238	0.232881
796.233516	0.233119
796.425777	0.233185
796.618019	0.233387
796.810243	0.233711
797.002449	0.233963
797.194636	0.234372
797.386805	0.234193
797.578956	0.234548
797.771089	0.234722
797.963204	0.234984
798.155300	0.234942
798.347378	0.235176
798.539438	0.234996
798.731480	0.235092
798.923503	0.235034
799.115509	0.235371
799.307496	0.235543
799.499465	0.235372
799.691415	0.235425
799.883348	0.235683
800.075262	0.235799
800.267158	0.235866
800.459035	0.235834
800.650895	0.236104
800.842736	0.236329
801.034559	0.236498
801.226364	0.236773
801.418150	0.236970
801.609919	0.237172
801.801669	0.237179
801.993401	0.237498
802.185114	0.237814
802.376810	0.237756
802.568487	0.237784
802.760146	0.237852
802.951787	0.238113
803.143409	0.238143
803.335014	0.238518
803.526600	0.239087
803.718168	0.239508
803.909717	0.239549
804.101249	0.240129
804.292762	0.240474
804.484257	0.240529
804.675734	0.240611
804.867192	0.241093
805.058632	0.241209
805.250054	0.241353
805.441458	0.241519
805.632844	0.241929
805.824211	0.242222
806.015561	0.242478
806.206891	0.242797
806.398204	0.243073
806.589499	0.243306
806.780775	0.243959
806.972033	0.244131
807.163273	0.244143
807.354495	0.244288
807.545698	0.244328
807.736883	0.244552
807.928050	0.245307
808.119199	0.245586
808.310329	0.245900
808.501441	0.245874
808.692535	0.246160
808.883611	0.246596
809.074669	0.247069
809.265708	0.247284
809.456729	0.247468
809.647732	0.247541
809.838717	0.247633
810.029683	0.248175
810.220632	0.248250
810.411562	0.248642
810.602474	0.249081
810.793367	0.249083
810.984242	0.249433
811.175100	0.249739
811.365938	0.249901
811.556759	0.250228
811.747562	0.249993
811.938346	0.250298
812.129112	0.250403
812.319860	0.250788
812.510589	0.251202
812.701300	0.251451
812.891994	0.251659
813.082668	0.252078
813.273325	0.252448
813.463964	0.252951
813.654584	0.253267
813.845186	0.253800
814.035769	0.253910
814.226335	0.254064
814.416882	0.254469
814.607411	0.254689
814.797922	0.254700
814.988415	0.255220
815.178889	0.255884
815.369345	0.256280
815.559783	0.256380
815.750203	0.256370
815.940605	0.256942
816.130988	0.257190
816.321353	0.257756
816.511700	0.258192
816.702028	0.258195
816.892339	0.258037
817.082631	0.258372
817.272905	0.258827
817.463161	0.259355
817.653398	0.259629
817.843617	0.260003
818.033819	0.260402
818.224001	0.260908
818.414166	0.261379
818.604312	0.261856
818.794440	0.261820
818.984550	0.262172
819.174642	0.262730
819.364716	0.263260
819.554771	0.263810
819.744808	0.264164
819.934827	0.264673
820.124827	0.265174
820.314810	0.265467
820.504774	0.266059
820.694720	0.266478
820.884647	0.266711
821.074557	0.267125
821.264448	0.267121
821.454321	0.267231
821.644176	0.267537
821.834012	0.267769
822.023831	0.268239
822.213631	0.268827
822.403413	0.268901
822.593176	0.269396
822.782922	0.269695
822.972649	0.270185
823.162358	0.270977
823.352049	0.271142
823.541721	0.271577
823.731376	0.272059
823.921012	0.272214
824.110629	0.273003
824.300229	0.273350
824.489811	0.273742
824.679374	0.273928
824.868919	0.274268
825.058445	0.274803
825.247954	0.275070
825.437444	0.275264
825.626916	0.275480
825.816370	0.275721
826.005806	0.275982
826.195223	0.276276
826.384622	0.277013
826.574003	0.277097
826.763366	0.277351
826.952711	0.277500
827.142037	0.277847
827.331345	0.278165
827.520635	0.278569
827.709906	0.279072
827.899160	0.279541
828.088395	0.279902
828.277612	0.280665
828.466810	0.281175
828.655991	0.282031
828.845153	0.282619
829.034297	0.283472
829.223423	0.283876
829.412531	0.284282
829.601620	0.284783
829.790691	0.285369
829.979744	0.285683
830.168779	0.285845
830.357795	0.286236
830.546793	0.286707
830.735773	0.287275
830.924735	0.287725
831.113679	0.288048
831.302604	0.288402
831.491511	0.288719
831.680400	0.289440
831.869271	0.290088
832.058123	0.290325
832.246957	0.290652
832.435773	0.290896
832.624571	0.291341
832.813351	0.291934
833.002112	0.292500
833.190855	0.292889
833.379580	0.293279
833.568287	0.294047
833.756975	0.294739
833.945645	0.295039
834.134297	0.295555
834.322931	0.295990
834.511547	0.296396
834.700144	0.296626
834.888723	0.297304
835.077284	0.297449
835.265826	0.297676
835.454351	0.297999
835.642857	0.299046
835.831345	0.299379
836.019815	0.299732
836.208266	0.300093
836.396699	0.300503
836.585114	0.300740
836.773511	0.301147
836.961890	0.301516
837.150250	0.301804
837.338592	0.301887
837.526916	0.302299
837.715222	0.303043
837.903510	0.304036
838.091779	0.304303
838.280030	0.304944
838.468263	0.305730
838.656477	0.306199
838.844674	0.306749
839.032852	0.307148
839.221012	0.307772
839.409153	0.308377
839.597277	0.308469
839.785382	0.309249
839.973469	0.309723
840.161538	0.309947
840.349589	0.310495
840.537621	0.311380
840.725635	0.312027
840.913631	0.312871
841.101609	0.313142
841.289568	0.313962
841.477509	0.314694
841.665432	0.315364
841.853337	0.316137
842.041224	0.316287
842.229092	0.316542
842.416942	0.316971
842.604774	0.316814
842.792588	0.316971
842.980383	0.317025
843.168160	0.317040
843.355919	0.317115
843.543660	0.317016
843.731382	0.317656
843.919087	0.318111
844.106773	0.318832
844.294441	0.319456
844.482090	0.320276
844.669722	0.320714
844.857335	0.321853
845.044930	0.322353
845.232507	0.323374
845.420065	0.324058
845.607605	0.324570
845.795127	0.324895
845.982631	0.325697
846.170117	0.326290
846.357584	0.326644
846.545033	0.326924
846.732464	0.327570
846.919877	0.327585
847.107272	0.328382
847.294648	0.328718
847.482006	0.329357
847.669346	0.329948
847.856667	0.330466
848.043971	0.331354
848.231256	0.331919
848.418523	0.332295
848.605771	0.333252
848.793002	0.333171
848.980214	0.333573
849.167408	0.333613
849.354584	0.333757
849.541742	0.333558
849.728881	0.333960
849.916002	0.333958
850.103105	0.334519
850.290190	0.334879
850.477256	0.335080
850.664304	0.336132
850.851334	0.336934
851.038346	0.337611
851.225340	0.338518
851.412315	0.339233
851.599272	0.339854
851.786211	0.340326
851.973132	0.340721
852.160034	0.341669
852.346918	0.341989
852.533784	0.342373
852.720632	0.342974
852.907462	0.343502
853.094273	0.343969
853.281066	0.344603
853.467841	0.345305
853.654598	0.345765
853.841336	0.345602
854.028056	0.345966
854.214758	0.346465
854.401442	0.346148
854.588107	0.346756
854.774755	0.346721
854.961384	0.347034
855.147995	0.347163
855.334587	0.347895
855.521162	0.349075
855.707718	0.349396
855.894256	0.349749
856.080775	0.350898
856.267277	0.351008
856.453760	0.351762
856.640225	0.352223
856.826672	0.352986
857.013101	0.352945
857.199511	0.353026
857.385903	0.353633
857.572277	0.353892
857.758633	0.354529
857.944970	0.355159
858.131290	0.355661
858.317591	0.356242
858.503873	0.356336
858.690138	0.357092
858.876384	0.357687
859.062612	0.358088
859.248822	0.358444
859.435014	0.358214
859.621188	0.358701
859.807343	0.359086
859.993480	0.359687
860.179599	0.359845
860.365699	0.360062
860.551781	0.360350
860.737846	0.360607
860.923891	0.361307
861.109919	0.362005
861.295929	0.362672
861.481920	0.363086
861.667893	0.363236
861.853848	0.363767
862.039784	0.364545
862.225702	0.364947
862.411603	0.365590
862.597484	0.365692
862.783348	0.365934
862.969193	0.365888
863.155021	0.365948
863.340830	0.366327
863.526620	0.367049
863.712393	0.366843
863.898147	0.367543
864.083883	0.367626
864.269601	0.368321
864.455301	0.368520
864.640982	0.368834
864.826645	0.369248
865.012290	0.369284
865.197917	0.369192
865.383526	0.369691
865.569116	0.370086
865.754688	0.370561
865.940242	0.370800
866.125777	0.371309
866.311295	0.371754
866.496794	0.371951
866.682275	0.372476
866.867737	0.372906
867.053182	0.373385
867.238608	0.373758
867.424016	0.374254
867.609406	0.374650
867.794778	0.375156
867.980131	0.375651
868.165466	0.376229
868.350783	0.376489
868.536082	0.377306
868.721362	0.378086
868.906625	0.377303
869.091869	0.377437
869.277094	0.377997
869.462302	0.378332
869.647491	0.378213
869.832662	0.378251
870.017815	0.378857
870.202950	0.378923
870.388066	0.378944
870.573165	0.380105
870.758245	0.380659
870.943306	0.380604
871.128350	0.380519
871.313375	0.381266
871.498382	0.381671
871.683371	0.381923
871.868342	0.382199
872.053294	0.382397
872.238229	0.382538
872.423144	0.382806
872.608042	0.382919
872.792922	0.384070
872.977783	0.384446
873.162626	0.384811
873.347451	0.385002
873.532258	0.385308
873.717046	0.385593
873.901816	0.386519
874.086568	0.386411
874.271302	0.387129
874.456017	0.387120
874.640715	0.387280
874.825394	0.387850
875.010055	0.387938
875.194697	0.387571
875.379322	0.387894
875.563928	0.387710
875.748516	0.388408
875.933085	0.388791
876.117637	0.388537
876.302170	0.388737
876.486685	0.389011
876.671182	0.389855
876.855661	0.390590
877.040121	0.390545
877.224563	0.390669
877.408987	0.390521
877.593393	0.390060
877.777780	0.390231
877.962150	0.390922
878.146501	0.391420
878.330833	0.391126
878.515148	0.391666
878.699444	0.392207
878.883722	0.392694
879.067982	0.392664
879.252224	0.393229
879.436447	0.393443
879.620653	0.392768
879.804840	0.392748
879.989008	0.393370
880.173159	0.393498
880.357291	0.393259
880.541405	0.393341
880.725501	0.393719
880.909579	0.393906
881.093638	0.394256
881.277680	0.394897
881.461703	0.394577
881.645707	0.394608
881.829694	0.394937
882.013662	0.395433
882.197612	0.395742
882.381544	0.396173
882.565458	0.396492
882.749353	0.396557
882.933230	0.396318
883.117089	0.396463
883.300930	0.396569
883.484753	0.395781
883.668557	0.396009
883.852343	0.396371
884.036111	0.396658
884.219861	0.396814
884.403592	0.397295
884.587305	0.397503
884.771000	0.397493
884.954677	0.397022
885.138335	0.397929
885.321976	0.398054
885.505598	0.398043
885.689201	0.398032
885.872787	0.397781
886.056354	0.397799
886.239904	0.398241
886.423434	0.398495
886.606947	0.398996
886.790442	0.399095
886.973918	0.399056
887.157376	0.399460
887.340816	0.399561
887.524237	0.399830
887.707641	0.399907
887.891026	0.399700
888.074393	0.400331
888.257741	0.400271
888.441072	0.400508
888.624384	0.400348
888.807678	0.399702
888.990954	0.399469
889.174211	0.399249
889.357451	0.399269
889.540672	0.399197
889.723875	0.398654
889.907059	0.399031
890.090226	0.398471
890.273374	0.398208
890.456504	0.397532
890.639616	0.397692
890.822709	0.397504
891.005785	0.397049
891.188842	0.397352
891.371881	0.396917
891.554901	0.396485
891.737904	0.396672
891.920888	0.396958
892.103854	0.397222
892.286802	0.396979
892.469731	0.397308
892.652643	0.397764
892.835536	0.397099
893.018410	0.397757
893.201267	0.397637
893.384106	0.398005
893.566926	0.398378
893.749728	0.398382
893.932511	0.398616
894.115277	0.398755
894.298024	0.398295
894.480753	0.398494
894.663464	0.398216
894.846157	0.398579
895.028831	0.398570
895.211487	0.398516
895.394125	0.399045
895.576745	0.398882
895.759346	0.398521
895.941930	0.398080
896.124495	0.398680
896.307041	0.398304
896.489570	0.398546
896.672080	0.398086
896.854573	0.397481
897.037046	0.396741
897.219502	0.396218
897.401940	0.395776
897.584359	0.395933
897.766760	0.395236
897.949143	0.395700
898.131507	0.394752
898.313854	0.394346
898.496182	0.394254
898.678492	0.394007
898.860783	0.393946
899.043057	0.393589
899.225312	0.393172
899.407549	0.392476
899.589768	0.392033
899.771968	0.391931
899.954151	0.391517
900.136315	0.391061
900.318461	0.391013
900.500588	0.390703
900.682698	0.390454
900.864789	0.390462
901.046862	0.390497
901.228917	0.389556
901.410953	0.389395
901.592971	0.389463
901.774972	0.389699
901.956953	0.389760
902.138917	0.389487
902.320862	0.389711
902.502790	0.389750
902.684699	0.389178
902.866589	0.389191
903.048462	0.388676
903.230316	0.388126
903.412152	0.387836
903.593970	0.387724
903.775770	0.387734
903.957551	0.387500
904.139314	0.386800
904.321059	0.386974
904.502786	0.387203
904.684494	0.387129
904.866185	0.386366
905.047857	0.385712
905.229510	0.384440
905.411146	0.383628
905.592763	0.383269
905.774363	0.382870
905.955943	0.382100
906.137506	0.381054
906.319051	0.380630
906.500577	0.380773
906.682085	0.380574
906.863575	0.381135
907.045046	0.381003
907.226500	0.380705
907.407935	0.380472
907.589352	0.380199
907.770750	0.380159
907.952131	0.379574
908.133493	0.378282
908.314837	0.377847
908.496163	0.377167
908.677470	0.376784
908.858760	0.375973
909.040031	0.375904
909.221284	0.376008
909.402518	0.375417
909.583735	0.374983
909.764933	0.375882
909.946113	0.375119
910.127275	0.374768
910.308418	0.374307
910.489544	0.374203
910.670651	0.373332
910.851740	0.372185
911.032810	0.372044
911.213863	0.371353
911.394897	0.369918
911.575913	0.369772
911.756911	0.369152
911.937890	0.368224
912.118851	0.367110
912.299794	0.366726
912.480719	0.366694
912.661626	0.365862
912.842514	0.365851
913.023384	0.365580
913.204236	0.365256
913.385070	0.364601
913.565886	0.363884
913.746683	0.363734
913.927462	0.363609
914.108223	0.363072
914.288965	0.362301
914.469690	0.361253
914.650396	0.360412
914.831084	0.359518
915.011754	0.358504
915.192405	0.358384
915.373038	0.357935
915.553653	0.357223
915.734250	0.357156
915.914829	0.356662
916.095389	0.356126
916.275931	0.355988
916.456455	0.355152
916.636961	0.355145
916.817448	0.355187
916.997917	0.354705
917.178368	0.353898
917.358801	0.352087
917.539216	0.350906
917.719612	0.350429
917.899990	0.349573
918.080350	0.349389
918.260692	0.348453
918.441015	0.347939
918.621320	0.346832
918.801607	0.346661
918.981876	0.346314
919.162127	0.346412
919.342359	0.345956
919.522573	0.345448
919.702769	0.344912
919.882947	0.344559
920.063106	0.343369
920.243247	0.342493
920.423370	0.340797
920.603475	0.339841
920.783562	0.338821
920.963630	0.338323
921.143680	0.337644
921.323712	0.335959
921.503725	0.334957
921.683721	0.334246
921.863698	0.333943
922.043657	0.333311
922.223598	0.332731
922.403520	0.331812
922.583424	0.330785
922.763311	0.330232
922.943178	0.329864
923.123028	0.329283
923.302859	0.328183
923.482673	0.327410
923.662467	0.327127
923.842244	0.326704
924.022003	0.326263
924.201743	0.324826
924.381465	0.323781
924.561169	0.322553
924.740854	0.321808
924.920522	0.321517
925.100171	0.321251
925.279802	0.319755
925.459414	0.318878
925.639009	0.317843
925.818585	0.317408
925.998143	0.316205
926.177683	0.316008
926.357205	0.315151
926.536708	0.314449
926.716193	0.313307
926.895660	0.312957
927.075109	0.312030
927.254539	0.311557
927.433951	0.311321
927.613345	0.311130
927.792721	0.310669
927.972079	0.309065
928.151418	0.308354
928.330739	0.306914
928.510042	0.305302
928.689327	0.304687
928.868593	0.303226
929.047841	0.301957
929.227071	0.300168
929.406283	0.298632
929.585476	0.297579
929.764652	0.295736
929.943809	0.294899
930.122948	0.293583
930.302068	0.293023
930.481171	0.292806
930.660255	0.291410
930.839321	0.291371
931.018369	0.290357
931.197398	0.290056
931.376409	0.289396
931.555402	0.288545
931.734377	0.288534
931.913334	0.286627
932.092272	0.285200
932.271192	0.284760
932.450094	0.283175
932.628978	0.282409
932.807844	0.281074
932.986691	0.280091
933.165520	0.278843
933.344331	0.277692
933.523123	0.276917
933.701898	0.276915
933.880654	0.275513
934.059392	0.274787
934.238111	0.273445
934.416813	0.273389
934.595496	0.272720
934.774161	0.272892
934.952808	0.271883
935.131437	0.270807
935.310047	0.269272
935.488639	0.269266
935.667213	0.268085
935.845769	0.266925
936.024306	0.265283
936.202825	0.263588
936.381326	0.262214
936.559809	0.261003
936.738274	0.260875
936.916720	0.259905
937.095148	0.258219
937.273558	0.257279
937.451950	0.257336
937.630323	0.256974
937.808678	0.256173
937.987015	0.254732
938.165334	0.253625
938.343635	0.252019
938.521917	0.251276
938.700181	0.249961
938.878427	0.249644
939.056655	0.247807
939.234864	0.246545
939.413055	0.245420
939.591228	0.243745
939.769383	0.243150
939.947519	0.242517
940.125638	0.240970
940.303738	0.239913
940.481820	0.238088
940.659883	0.237685
940.837929	0.235894
941.015956	0.234916
941.193965	0.235014
941.371955	0.233946
941.549928	0.232317
941.727882	0.232364
941.905818	0.231625
942.083736	0.231019
942.261636	0.229283
942.439517	0.229648
942.617380	0.227518
942.795225	0.225289
942.973052	0.224317
943.150860	0.222636
943.328651	0.218531
943.506423	0.216562
943.684176	0.214871
943.861912	0.213382
944.039629	0.210145
944.217328	0.209369
944.395009	0.209149
944.572672	0.208181
944.750317	0.206276
944.927943	0.207001
945.105551	0.205186
945.283141	0.205292
945.460712	0.203255
945.638265	0.202426
945.815801	0.201262
945.993317	0.200643
946.170816	0.199913
946.348297	0.199222
946.525759	0.197077
946.703203	0.197426
946.880629	0.194942
947.058036	0.194801
947.235425	0.192891
947.412797	0.191978
947.590149	0.189535
947.767484	0.188242
947.944800	0.188053
948.122099	0.186754
948.299379	0.184836
948.476640	0.184019
948.653884	0.183771
948.831109	0.183215
949.008316	0.181971
949.185505	0.182165
949.362676	0.179371
949.539828	0.178717
949.716962	0.179687
949.894078	0.179602
950.071176	0.176609
950.248256	0.174565
950.425317	0.173286
950.602360	0.171466
950.779385	0.168064
950.956391	0.167601
951.133380	0.167709
951.310350	0.163977
951.487302	0.162651
951.664235	0.163315
951.841151	0.162287
952.018048	0.163292
952.194927	0.163739
952.371788	0.160649
952.548631	0.159170
952.725455	0.157293
952.902261	0.157359
953.079049	0.153860
953.255819	0.153993
953.432570	0.153364
953.609303	0.151271
953.786018	0.147873
953.962715	0.151786
954.139394	0.151642
954.316054	0.150126
954.492696	0.150211
954.669320	0.150796
954.845926	0.148909
955.022513	0.147825
955.199083	0.145554
955.375634	0.144606
955.552166	0.141722
955.728681	0.141380
955.905177	0.136831
956.081655	0.135598
956.258115	0.133459
956.434557	0.130040
956.610980	0.128825
956.787385	0.129979
956.963772	0.129996
957.140141	0.129914
957.316492	0.127607
957.492824	0.129199
957.669138	0.125853
957.845434	0.126648
958.021712	0.126306
958.197971	0.124628
958.374212	0.122449
958.550435	0.123361
958.726640	0.122988
958.902826	0.123012
959.078995	0.121528
959.255145	0.122339
959.431277	0.121036
959.607390	0.122955
959.783486	0.122884
959.959563	0.121659
960.135622	0.118961
960.311662	0.116014
960.487685	0.116013
960.663689	0.114649
960.839675	0.112774
961.015643	0.113249
961.191593	0.110951
961.367524	0.111288
961.543437	0.110793
961.719332	0.112180
961.895209	0.111926
962.071067	0.112225
962.246907	0.113453
962.422730	0.114946
962.598533	0.114213
962.774319	0.113912
962.950086	0.110909
963.125835	0.112223
963.301566	0.111335
963.477279	0.112672
963.652973	0.110434
963.828650	0.111230
964.004308	0.109930
964.179947	0.108096
964.355569	0.107417
964.531172	0.110649
964.706757	0.108457
964.882324	0.106675
965.057873	0.104624
965.233403	0.105974
965.408916	0.103360
965.584410	0.103005
965.759885	0.102101
965.935343	0.102577
966.110782	0.102276
966.286203	0.103517
966.461606	0.102813
966.636991	0.103964
966.812357	0.103709
966.987705	0.106593
967.163035	0.105794
967.338347	0.107406
967.513641	0.105593
967.688916	0.102521
967.864173	0.099313
968.039412	0.098340
968.214632	0.096598
968.389835	0.095898
968.565019	0.092340
968.740185	0.094276
968.915333	0.096748
969.090462	0.096963
969.265573	0.098308
969.440667	0.101230
969.615741	0.103864
969.790798	0.105753
969.965836	0.105086
970.140856	0.107287
970.315858	0.105800
970.490842	0.103247
970.665808	0.105423
970.840755	0.104076
971.015684	0.101318
971.190595	0.102283
971.365487	0.099199
971.540362	0.100702
971.715218	0.100126
971.890056	0.099188
972.064875	0.098475
972.239677	0.096615
972.414460	0.096109
972.589225	0.097747
972.763972	0.096232
972.938700	0.096789
973.113411	0.093671
973.288103	0.092912
973.462777	0.094130
973.637432	0.095561
973.812070	0.098075
973.986689	0.098845
974.161290	0.099352
974.335873	0.101010
974.510437	0.101115
974.684984	0.101131
974.859512	0.101613
975.034022	0.102765
975.208513	0.102652
975.382987	0.099464
975.557442	0.099246
975.731879	0.097550
975.906298	0.097921
976.080698	0.098739
976.255080	0.097580
976.429445	0.096709
976.603790	0.095411
976.778118	0.092876
976.952427	0.096192
977.126719	0.097196
977.300992	0.096717
977.475246	0.095760
977.649483	0.095627
977.823701	0.099047
977.997901	0.100543
978.172083	0.101694
978.346247	0.099931
978.520392	0.096365
978.694519	0.097585
978.868628	0.100935
979.042719	0.101638
979.216791	0.100229
979.390845	0.098898
979.564882	0.099352
979.738899	0.097647
979.912899	0.100273
980.086880	0.102669
980.260843	0.101855
980.434788	0.100380
980.608715	0.099289
980.782623	0.103529
980.956514	0.103128
981.130386	0.101159
981.304240	0.100089
981.478075	0.099782
981.651892	0.098723
981.825692	0.098676
981.999472	0.096539
982.173235	0.096839
982.346980	0.094331
982.520706	0.095929
982.694414	0.097486
982.868104	0.099301
983.041775	0.101011
983.215428	0.103984
983.389064	0.102976
983.562680	0.104892
983.736279	0.105063
983.909860	0.106712
984.083422	0.106405
984.256966	0.105139
984.430491	0.104627
984.603999	0.103110
984.777488	0.100807
984.950959	0.101761
985.124412	0.101784
985.297847	0.100818
985.471263	0.098945
985.644661	0.099818
985.818041	0.099555
985.991403	0.099864
986.164747	0.099964
986.338072	0.097865
986.511379	0.098906
986.684668	0.099817
986.857938	0.099814
987.031191	0.097891
987.204425	0.097221
987.377641	0.096465
987.550839	0.098000
987.724018	0.098755
987.897179	0.100866
988.070322	0.099363
988.243447	0.099565
988.416554	0.098991
988.589642	0.100338
988.762712	0.098249
988.935764	0.097662
989.108798	0.097158
989.281813	0.097682
989.454811	0.095643
989.627790	0.096305
989.800751	0.095657
989.973693	0.095619
990.146617	0.096899
990.319524	0.098721
990.492412	0.100748
990.665281	0.099682
990.838133	0.099870
991.010966	0.102280
991.183781	0.101373
991.356578	0.101501
991.529356	0.101807
991.702117	0.100922
991.874859	0.099901
992.047583	0.100374
992.220288	0.099793
992.392976	0.097244
992.565645	0.096087
992.738296	0.096095
992.910929	0.095084
993.083543	0.094945
993.256139	0.093940
993.428718	0.092236
993.601277	0.093200
993.773819	0.095088
993.946342	0.095714
994.118848	0.097396
994.291335	0.095767
994.463803	0.098513
994.636254	0.100337
994.808686	0.101582
994.981100	0.104692
995.153496	0.102547
995.325874	0.100246
995.498233	0.100021
995.670574	0.098715
995.842897	0.099490
996.015202	0.097410
996.187488	0.096419
996.359757	0.097060
996.532007	0.096025
996.704239	0.097265
996.876452	0.098737
997.048648	0.100785
997.220825	0.102298
997.392984	0.105193
997.565124	0.104083
997.737247	0.103479
997.909351	0.101710
998.081437	0.101797
998.253505	0.099400
998.425554	0.097186
998.597586	0.097579
998.769599	0.095395
998.941594	0.092029
999.113571	0.092819
999.285529	0.093578
999.457469	0.095109
999.629391	0.093154
999.801295	0.094799
999.973181	0.097313
1000.145048	0.094952
1000.316897	0.095853
1000.488728	0.096435
1000.660541	0.095887
1000.832335	0.096103
1001.004111	0.095713
1001.175869	0.097068
1001.347609	0.096672
1001.519331	0.096266
1001.691034	0.097072
1001.862719	0.096837
1002.034386	0.096081
1002.206035	0.097787
1002.377665	0.096465
1002.549277	0.095968
1002.720871	0.095354
1002.892447	0.095289
1003.064004	0.095246
1003.235544	0.095382
1003.407065	0.094810
1003.578568	0.096254
1003.750052	0.094926
1003.921519	0.095107
1004.092967	0.096944
1004.264397	0.096675
1004.435809	0.097309
1004.607202	0.097395
1004.778577	0.097657
1004.949934	0.098169
1005.121273	0.098289
1005.292594	0.097054
1005.463896	0.097702
1005.635180	0.097372
1005.806446	0.095106
1005.977694	0.093649
1006.148923	0.093348
1006.320135	0.091845
1006.491328	0.091723
1006.662503	0.091056
1006.833659	0.091517
1007.004798	0.091566
1007.175918	0.089599
1007.347020	0.093828
1007.518103	0.094038
1007.689169	0.093497
1007.860216	0.093829
1008.031245	0.093302
1008.202256	0.091505
1008.373248	0.092074
1008.544223	0.090442
1008.715179	0.091398
1008.886117	0.090201
1009.057036	0.091254
1009.227938	0.091943
1009.398821	0.093618
1009.569686	0.093102
1009.740533	0.094702
1009.911361	0.095714
1010.082172	0.096772
1010.252964	0.096887
1010.423738	0.099885
1010.594493	0.099368
1010.765231	0.099480
1010.935950	0.098694
1011.106651	0.100135
1011.277334	0.098922
1011.447998	0.098966
1011.618645	0.098936
1011.789273	0.098429
1011.959882	0.096333
1012.130474	0.095442
1012.301048	0.094414
1012.471603	0.093110
1012.642140	0.092857
1012.812658	0.094636
1012.983159	0.093637
1013.153641	0.093641
1013.324105	0.094811
1013.494551	0.094649
1013.664979	0.093574
1013.835388	0.093093
1014.005779	0.094222
1014.176152	0.093983
1014.346507	0.093866
1014.516843	0.092447
1014.687162	0.092325
1014.857462	0.090385
1015.027744	0.090053
1015.198007	0.091762
1015.368252	0.093405
1015.538480	0.093478
1015.708689	0.092240
1015.878879	0.092843
1016.049052	0.094520
1016.219206	0.093290
1016.389342	0.094290
1016.559460	0.094649
1016.729559	0.094022
1016.899641	0.092712
1017.069704	0.093161
1017.239749	0.093256
1017.409775	0.090730
1017.579784	0.089798
1017.749774	0.090002
1017.919746	0.088926
1018.089700	0.087373
1018.259635	0.087107
1018.429553	0.088247
1018.599452	0.087134
1018.769333	0.087035
1018.939195	0.087292
1019.109040	0.087484
1019.278866	0.088579
1019.448674	0.088116
1019.618464	0.088740
1019.788235	0.088565
1019.957989	0.088548
1020.127724	0.086776
1020.297441	0.087918
1020.467139	0.087732
1020.636820	0.088956
1020.806482	0.088978
1020.976126	0.090340
1021.145752	0.090886
1021.315359	0.092615
1021.484948	0.090336
1021.654519	0.092091
1021.824072	0.089767
1021.993607	0.091299
1022.163123	0.089788
1022.332621	0.089514
1022.502101	0.090119
1022.671563	0.089801
1022.841007	0.090000
1023.010432	0.091275
1023.179839	0.090805
1023.349228	0.093997
1023.518598	0.093644
1023.687951	0.094874
1023.857285	0.093971
1024.026601	0.093379
1024.195899	0.093584
1024.365178	0.091764
1024.534439	0.091274
1024.703682	0.090600
1024.872907	0.090352
1025.042114	0.089891
1025.211302	0.088929
1025.380472	0.089779
1025.549624	0.089208
1025.718758	0.088197
1025.887873	0.088239
1026.056970	0.088783
1026.226049	0.088634
1026.395110	0.087548
1026.564153	0.088066
1026.733177	0.087141
1026.902183	0.087072
1027.071171	0.088607
1027.240141	0.089379
1027.409092	0.089939
1027.578026	0.089784
1027.746940	0.091475
1027.915837	0.090802
1028.084716	0.090694
1028.253576	0.089735
1028.422418	0.089337
1028.591242	0.088181
1028.760048	0.087896
1028.928835	0.088269
1029.097604	0.087281
1029.266355	0.086302
1029.435088	0.087286
1029.603803	0.087189
1029.772499	0.089780
1029.941177	0.090244
1030.109837	0.090365
1030.278478	0.089812
1030.447102	0.087973
1030.615707	0.087681
1030.784294	0.087412
1030.952863	0.086558
1031.121413	0.086545
1031.289945	0.086010
1031.458460	0.084948
1031.626955	0.082766
1031.795433	0.082964
1031.963892	0.083033
1032.132334	0.084344
1032.300756	0.083729
1032.469161	0.084838
1032.637548	0.084920
1032.805916	0.083804
1032.974266	0.085320
1033.142598	0.088158
1033.310911	0.088369
1033.479207	0.089525
1033.647484	0.088986
1033.815743	0.090070
1033.983983	0.087495
1034.152206	0.087011
1034.320410	0.085625
1034.488596	0.084868
1034.656764	0.083781
1034.824914	0.084686
1034.993045	0.083695
1035.161158	0.085263
1035.329253	0.085626
1035.497330	0.085697
1035.665388	0.086138
1035.833428	0.087932
1036.001450	0.088761
1036.169454	0.088033
1036.337440	0.084918
1036.505407	0.087868
1036.673356	0.087395
1036.841287	0.088605
1037.009200	0.090709
1037.177094	0.090793
1037.344970	0.091124
1037.512828	0.090175
1037.680668	0.088545
1037.848489	0.090898
1038.016293	0.087837
1038.184078	0.085796
1038.351845	0.084386
1038.519593	0.084439
1038.687324	0.083711
1038.855036	0.083686
1039.022730	0.083254
1039.190406	0.084375
1039.358063	0.082765
1039.525702	0.082394
1039.693323	0.082531
1039.860926	0.081563
1040.028511	0.081821
1040.196077	0.082641
1040.363625	0.081990
1040.531155	0.081179
1040.698667	0.082751
1040.866161	0.084770
1041.033636	0.086620
1041.201093	0.088515
1041.368532	0.087465
1041.535952	0.086343
1041.703355	0.084516
1041.870739	0.083730
1042.038105	0.085305
1042.205452	0.083266
1042.372782	0.082530
1042.540093	0.081194
1042.707386	0.079837
1042.874661	0.080875
1043.041918	0.081432
1043.209156	0.083981
1043.376376	0.085682
1043.543578	0.085781
1043.710762	0.086691
1043.877927	0.086292
1044.045074	0.087158
1044.212203	0.087563
1044.379314	0.088544
1044.546407	0.087481
1044.713481	0.086484
1044.880537	0.083601
1045.047575	0.082603
1045.214595	0.083417
1045.381596	0.084167
1045.548579	0.085399
1045.715544	0.087544
1045.882491	0.086523
1046.049420	0.088558
1046.216330	0.088384
1046.383222	0.090865
1046.550096	0.091528
1046.716951	0.090945
1046.883789	0.088517
1047.050608	0.088776
1047.217409	0.088579
1047.384192	0.088273
1047.550956	0.086115
1047.717703	0.086643
1047.884431	0.084568
1048.051140	0.084169
1048.217832	0.083888
1048.384505	0.086245
1048.551161	0.085195
1048.717798	0.083180
1048.884416	0.083954
1049.051017	0.083101
1049.217599	0.081931
1049.384163	0.084374
1049.550709	0.084545
1049.717237	0.082699
1049.883746	0.082957
1050.050237	0.082239
1050.216710	0.081138
1050.383165	0.079685
1050.549601	0.083488
1050.716019	0.083340
1050.882420	0.084033
1051.048801	0.084106
1051.215165	0.086454
1051.381510	0.085788
1051.547837	0.085299
1051.714146	0.087459
1051.880437	0.088814
1052.046709	0.086875
1052.212964	0.088131
1052.379200	0.086408
1052.545417	0.084802
1052.711617	0.084666
1052.877798	0.084746
1053.043961	0.084285
1053.210106	0.083920
1053.376233	0.082751
1053.542341	0.081654
1053.708432	0.080996
1053.874504	0.081784
1054.040557	0.083056
1054.206593	0.080631
1054.372610	0.080407
1054.538609	0.080501
1054.704590	0.077829
1054.870553	0.080083
1055.036497	0.080268
1055.202424	0.079150
1055.368331	0.079521
1055.534221	0.080799
1055.700093	0.082494
1055.865946	0.080958
1056.031781	0.080528
1056.197598	0.081401
1056.363397	0.080479
1056.529177	0.080083
1056.694939	0.082141
1056.860683	0.083221
1057.026409	0.082246
1057.192116	0.084500
1057.357806	0.087696
1057.523477	0.090143
1057.689130	0.092347
1057.854764	0.094452
1058.020381	0.095814
1058.185979	0.096139
1058.351559	0.094329
1058.517120	0.096906
1058.682664	0.096149
1058.848189	0.094208
1059.013696	0.091476
1059.179185	0.089869
1059.344656	0.088786
1059.510108	0.089824
1059.675542	0.089088
1059.840958	0.090688
1060.006356	0.088226
1060.171735	0.087803
1060.337096	0.088554
1060.502439	0.092412
1060.667764	0.092769
1060.833071	0.092969
1060.998359	0.091928
1061.163629	0.092857
1061.328881	0.092816
1061.494115	0.092078
1061.659330	0.091012
1061.824527	0.091604
1061.989706	0.090038
1062.154867	0.090098
1062.320010	0.087698
1062.485134	0.085152
1062.650240	0.084274
1062.815328	0.085286
1062.980398	0.085519
1063.145449	0.086251
1063.310482	0.086862
1063.475497	0.089338
1063.640494	0.089265
1063.805473	0.091425
1063.970433	0.096686
1064.135375	0.096444
1064.300299	0.095260
1064.465204	0.096461
1064.630092	0.099210
1064.794961	0.097180
1064.959812	0.095184
1065.124645	0.097015
1065.289459	0.097358
1065.454256	0.095505
1065.619034	0.096253
1065.783793	0.095513
1065.948535	0.095507
1066.113258	0.093920
1066.277964	0.095648
1066.442651	0.094722
1066.607319	0.094017
1066.771970	0.093971
1066.936602	0.093682
1067.101216	0.092233
1067.265812	0.093846
1067.430389	0.095731
1067.594949	0.095751
1067.759490	0.093618
1067.924013	0.094953
1068.088518	0.093637
1068.253004	0.092870
1068.417472	0.094612
1068.581922	0.095280
1068.746354	0.093459
1068.910768	0.092051
1069.075163	0.093015
1069.239540	0.094543
1069.403899	0.093696
1069.568240	0.095144
1069.732562	0.094459
1069.896866	0.092361
1070.061152	0.092982
1070.225420	0.093824
1070.389670	0.091949
1070.553901	0.089819
1070.718114	0.090359
1070.882309	0.088832
1071.046486	0.087310
1071.210644	0.086423
1071.374784	0.087355
1071.538906	0.087982
1071.703010	0.089360
1071.867096	0.090933
1072.031163	0.093915
1072.195212	0.093506
1072.359243	0.097361
1072.523256	0.098356
1072.687250	0.100399
1072.851226	0.099678
1073.015184	0.099527
1073.179124	0.096948
1073.343045	0.096721
1073.506949	0.094698
1073.670834	0.095790
1073.834701	0.093379
1073.998549	0.091654
1074.162380	0.091600
1074.326192	0.093852
1074.489986	0.094588
1074.653761	0.097133
1074.817519	0.096298
1074.981258	0.097566
1075.144979	0.095811
1075.308682	0.099049
1075.472367	0.102165
1075.636033	0.100277
1075.799681	0.100580
1075.963311	0.101410
1076.126923	0.099169
1076.290516	0.099476
1076.454092	0.100082
1076.617649	0.101430
1076.781187	0.101170
1076.944708	0.098872
1077.108210	0.099559
1077.271695	0.097606
1077.435160	0.097266
1077.598608	0.100467
1077.762038	0.101572
1077.925449	0.096778
1078.088842	0.095769
1078.252217	0.092463
1078.415573	0.096142
1078.578912	0.098312
1078.742232	0.098097
1078.905534	0.097672
1079.068817	0.095426
1079.232083	0.093401
1079.395330	0.098951
1079.558559	0.102023
1079.721770	0.101910
1079.884962	0.100688
1080.048136	0.100874
1080.211293	0.102621
1080.374430	0.102986
1080.537550	0.102893
1080.700651	0.104465
1080.863735	0.102796
1081.026800	0.098950
1081.189846	0.101132
1081.352875	0.100826
1081.515885	0.102835
1081.678877	0.100484
1081.841851	0.099464
1082.004807	0.099020
1082.167744	0.099369
1082.330663	0.101142
1082.493564	0.102770
1082.656447	0.101999
1082.819312	0.101273
1082.982158	0.103411
1083.144986	0.104016
1083.307796	0.102434
1083.470587	0.103946
1083.633361	0.104369
1083.796116	0.101251
1083.958853	0.101820
1084.121571	0.102766
1084.284272	0.106464
1084.446954	0.102606
1084.609618	0.105602
1084.772264	0.107420
1084.934892	0.107168
1085.097501	0.107727
1085.260092	0.110071
1085.422665	0.108481
1085.585220	0.106430
1085.747756	0.103834
1085.910274	0.108102
1086.072774	0.107246
1086.235256	0.106916
1086.397720	0.106996
1086.560165	0.106917
1086.722592	0.108505
1086.885001	0.110812
1087.047392	0.114967
1087.209764	0.113395
1087.372119	0.109943
1087.534455	0.110108
1087.696772	0.112398
1087.859072	0.111707
1088.021353	0.111377
1088.183616	0.111119
1088.345861	0.112343
1088.508088	0.109875
1088.670296	0.113591
1088.832486	0.113597
1088.994658	0.112303
1089.156812	0.110185
1089.318948	0.109616
1089.481065	0.110204
1089.643164	0.107936
1089.805245	0.105403
1089.967308	0.103648
1090.129352	0.102751
1090.291378	0.100585
1090.453386	0.100469
1090.615376	0.103774
1090.777347	0.106630
1090.939301	0.105466
1091.101236	0.106174
1091.263153	0.107486
1091.425051	0.109758
1091.586932	0.108676
1091.748794	0.111745
1091.910638	0.115003
1092.072463	0.115050
1092.234271	0.113538
1092.396060	0.117249
1092.557831	0.117598
1092.719584	0.115400
1092.881319	0.115859
1093.043035	0.116457
1093.204733	0.114379
1093.366413	0.110249
1093.528075	0.108998
1093.689718	0.109877
1093.851343	0.109842
1094.012950	0.110825
1094.174539	0.111678
1094.336110	0.111635
1094.497662	0.110201
1094.659196	0.110536
1094.820712	0.109818
1094.982210	0.111244
1095.143689	0.110221
1095.305151	0.111937
1095.466594	0.112065
1095.628018	0.116218
1095.789425	0.115135
1095.950813	0.117214
1096.112183	0.117502
1096.273535	0.121982
1096.434869	0.115730
1096.596184	0.114475
1096.757482	0.114353
1096.918761	0.113512
1097.080021	0.109161
1097.241264	0.108015
1097.402488	0.107901
1097.563694	0.108554
1097.724882	0.109186
1097.886052	0.110633
1098.047203	0.110772
1098.208336	0.110608
1098.369451	0.111963
1098.530548	0.113254
1098.691627	0.115915
1098.852687	0.113279
1099.013729	0.113712
1099.174753	0.109662
1099.335758	0.114656
1099.496746	0.119571
1099.657715	0.117386
1099.818666	0.111624
1099.979599	0.114889
1100.140513	0.114289
1100.301409	0.117100
1100.462287	0.118976
1100.623147	0.121757
1100.783989	0.123952
1100.944812	0.121077
1101.105617	0.120046
1101.266404	0.126902
1101.427173	0.124526
1101.587923	0.124627
1101.748656	0.126794
1101.909370	0.125514
1102.070066	0.122969
1102.230743	0.122409
1102.391403	0.121343
1102.552044	0.122641
1102.712667	0.122783
1102.873271	0.124734
1103.033858	0.125784
1103.194426	0.120804
1103.354976	0.118092
1103.515508	0.122309
1103.676021	0.120053
1103.836517	0.122020
1103.996994	0.122210
1104.157453	0.118975
1104.317893	0.121690
1104.478316	0.118446
1104.638720	0.121549
1104.799106	0.127824
1104.959474	0.125320
1105.119823	0.124764
1105.280155	0.121599
1105.440468	0.121513
1105.600763	0.121149
1105.761039	0.119622
1105.921298	0.121613
1106.081538	0.128564
1106.241760	0.126498
1106.401964	0.128577
1106.562149	0.129894
1106.722316	0.133333
1106.882465	0.132104
1107.042596	0.135307
1107.202709	0.132970
1107.362803	0.137544
1107.522879	0.130451
1107.682937	0.128291
1107.842977	0.126438
1108.002999	0.124196
1108.163002	0.120526
1108.322987	0.118903
1108.482954	0.119351
1108.642902	0.119512
1108.802833	0.118411
1108.962745	0.120057
1109.122639	0.121345
1109.282515	0.123997
1109.442372	0.128379
1109.602211	0.131410
1109.762032	0.134349
1109.921835	0.133648
1110.081620	0.133595
1110.241386	0.135679
1110.401134	0.131441
1110.560864	0.127683
1110.720576	0.122869
1110.880269	0.117931
1111.039945	0.116989
1111.199602	0.119237
1111.359240	0.117806
1111.518861	0.117359
1111.678463	0.111365
1111.838047	0.116915
1111.997613	0.120025
1112.157161	0.122170
1112.316690	0.122081
1112.476202	0.125974
1112.635695	0.121787
1112.795169	0.123065
1112.954626	0.123145
1113.114064	0.126121
1113.273484	0.126577
1113.432886	0.126932
1113.592270	0.131844
1113.751635	0.136897
1113.910983	0.134747
1114.070312	0.133977
1114.229622	0.130593
1114.388915	0.134723
1114.548189	0.135955
1114.707445	0.136874
1114.866683	0.135125
1115.025903	0.135630
1115.185104	0.135457
1115.344287	0.141910
1115.503452	0.147557
1115.662599	0.152811
1115.821727	0.151302
1115.980838	0.152387
1116.139930	0.145558
1116.299004	0.149216
1116.458059	0.142170
1116.617097	0.141508
1116.776116	0.136467
1116.935117	0.133730
1117.094099	0.135366
1117.253064	0.131375
1117.412010	0.130187
1117.570938	0.135128
1117.729848	0.133089
1117.888740	0.130449
1118.047613	0.134350
1118.206468	0.132032
1118.365305	0.130466
1118.524124	0.127066
1118.682924	0.131163
1118.841707	0.134722
1119.000471	0.133639
1119.159216	0.137156
1119.317944	0.145745
1119.476653	0.143844
1119.635344	0.149505
1119.794017	0.152077
1119.952672	0.153825
1120.111308	0.154173
1120.269927	0.159120
1120.428527	0.156491
1120.587108	0.152902
1120.745672	0.151360
1120.904217	0.148316
1121.062744	0.141839
1121.221253	0.141054
1121.379744	0.139142
1121.538216	0.142957
1121.696671	0.134634
1121.855107	0.137001
1122.013524	0.142270
1122.171924	0.139613
1122.330305	0.142822
1122.488668	0.147580
1122.647013	0.147434
1122.805340	0.151644
1122.963648	0.150689
1123.121938	0.146344
1123.280210	0.144892
1123.438464	0.132488
1123.596700	0.137505
1123.754917	0.138617
1123.913116	0.137495
1124.071297	0.133396
1124.229459	0.130901
1124.387604	0.125399
1124.545730	0.134846
1124.703838	0.135885
1124.861928	0.145958
1125.019999	0.140153
1125.178052	0.138434
1125.336088	0.136411
1125.494104	0.147499
1125.652103	0.146380
1125.810083	0.149944
1125.968045	0.142755
1126.125989	0.139573
1126.283915	0.139633
1126.441823	0.146857
1126.599712	0.145765
1126.757583	0.148841
1126.915436	0.143445
1127.073270	0.143214
1127.231087	0.135452
1127.388885	0.142300
1127.546665	0.153248
1127.704426	0.156677
1127.862170	0.156117
1128.019895	0.160793
1128.177602	0.158379
1128.335291	0.164172
1128.492961	0.166694
1128.650614	0.176740
1128.808248	0.171566
1128.965864	0.170415
1129.123461	0.168752
1129.281041	0.166473
1129.438602	0.163498
1129.596145	0.161873
1129.753670	0.157106
1129.911176	0.154828
1130.068665	0.154709
1130.226135	0.155402
1130.383587	0.147713
1130.541020	0.144449
1130.698436	0.144704
1130.855833	0.142799
1131.013212	0.151404
1131.170573	0.148443
1131.327915	0.147558
1131.485239	0.145899
1131.642545	0.145729
1131.799833	0.144599
1131.957103	0.149011
1132.114354	0.149361
1132.271588	0.144845
1132.428803	0.146043
1132.585999	0.148254
1132.743178	0.150050
1132.900338	0.142077
1133.057480	0.150771
1133.214604	0.147432
1133.371710	0.141374
1133.528797	0.133519
1133.685866	0.132564
1133.842917	0.120922
1133.999950	0.125807
1134.156964	0.128530
1134.313960	0.137828
1134.470938	0.131213
1134.627898	0.136566
1134.784840	0.140363
1134.941763	0.148425
1135.098668	0.149148
1135.255555	0.158895
1135.412424	0.152514
1135.569274	0.152682
1135.726107	0.152565
1135.882921	0.153036
1136.039716	0.153349
1136.196494	0.158032
1136.353253	0.163629
1136.509995	0.160362
1136.666717	0.155021
1136.823422	0.160757
1136.980109	0.161343
1137.136777	0.167594
1137.293427	0.173145
1137.450059	0.174469
1137.606672	0.162317
1137.763267	0.156934
1137.919844	0.170192
1138.076403	0.174949
1138.232944	0.171979
1138.389466	0.174720
1138.545971	0.162503
1138.702457	0.156369
1138.858924	0.158881
1139.015374	0.166107
1139.171805	0.158240
1139.328218	0.155248
1139.484613	0.152263
1139.640990	0.147581
1139.797348	0.145026
1139.953688	0.153432
1140.110010	0.153708
1140.266314	0.158946
1140.422600	0.155900
1140.578867	0.159980
1140.735116	0.162655
1140.891347	0.170853
1141.047559	0.180591
1141.203754	0.187182
1141.359930	0.179938
1141.516088	0.181543
1141.672228	0.171981
1141.828349	0.174541
1141.984452	0.183586
1142.140537	0.181137
1142.296604	0.170837
1142.452653	0.165398
1142.608683	0.165441
1142.764695	0.171246
1142.920689	0.177750
1143.076665	0.186325
1143.232622	0.189281
1143.388562	0.186043
1143.544483	0.178513
1143.700385	0.179816
1143.856270	0.178032
1144.012136	0.169559
1144.167985	0.162453
1144.323814	0.154157
1144.479626	0.153430
1144.635420	0.149154
1144.791195	0.149674
1144.946952	0.148596
1145.102691	0.140585
1145.258411	0.138277
1145.414113	0.136946
1145.569798	0.136386
1145.725463	0.132388
1145.881111	0.128860
1146.036741	0.135157
1146.192352	0.132614
1146.347945	0.144950
1146.503519	0.155823
1146.659076	0.157889
1146.814614	0.161763
1146.970134	0.168477
1147.125636	0.174816
1147.281120	0.167679
1147.436585	0.155825
1147.592032	0.166052
1147.747461	0.156216
1147.902872	0.159918
1148.058265	0.157675
1148.213639	0.152667
1148.368995	0.157759
1148.524333	0.148291
1148.679653	0.150720
1148.834954	0.164580
1148.990237	0.158938
1149.145502	0.170304
1149.300749	0.171612
1149.455977	0.176546
1149.611188	0.172203
1149.766380	0.166562
1149.921553	0.174680
1150.076709	0.173633
1150.231846	0.176017
1150.386966	0.173931
1150.542066	0.161285
1150.697149	0.163644
1150.852214	0.166109
1151.007260	0.172361
1151.162288	0.168731
1151.317298	0.173863
1151.472289	0.181260
1151.627263	0.166930
1151.782218	0.159944
1151.937155	0.165382
1152.092073	0.154424
1152.246974	0.149049
1152.401856	0.146552
1152.556720	0.154734
1152.711566	0.147374
1152.866393	0.134420
1153.021203	0.138048
1153.175994	0.139509
1153.330767	0.144849
1153.485521	0.152201
1153.640258	0.163536
1153.794976	0.174673
1153.949676	0.171376
1154.104358	0.170977
1154.259021	0.181468
1154.413667	0.178323
1154.568294	0.183227
1154.722903	0.174978
1154.877493	0.157650
1155.032066	0.141028
1155.186620	0.145042
1155.341156	0.145275
1155.495674	0.148409
1155.650173	0.153830
1155.804654	0.158700
1155.959118	0.158370
1156.113562	0.159464
1156.267989	0.180707
1156.422397	0.178705
1156.576788	0.172849
1156.731160	0.181561
1156.885513	0.181595
1157.039849	0.185965
1157.194166	0.179268
1157.348465	0.184617
1157.502746	0.184413
1157.657009	0.171011
1157.811253	0.179732
1157.965479	0.169546
1158.119687	0.155374
1158.273877	0.155877
1158.428048	0.145948
1158.582201	0.152668
1158.736337	0.146485
1158.890453	0.149728
1159.044552	0.150541
1159.198632	0.160261
1159.352694	0.171889
1159.506738	0.178654
1159.660764	0.171136
1159.814771	0.181441
1159.968761	0.174385
1160.122732	0.174862
1160.276685	0.170600
1160.430619	0.181092
1160.584535	0.168602
1160.738434	0.167581
1160.892313	0.164104
1161.046175	0.168131
1161.200019	0.166906
1161.353844	0.184885
1161.507651	0.175256
1161.661440	0.183088
1161.815210	0.182946
1161.968962	0.187094
1162.122697	0.187824
1162.276412	0.174667
1162.430110	0.168882
1162.583789	0.157543
1162.737451	0.144961
1162.891094	0.149177
1163.044718	0.144844
1163.198325	0.145204
1163.351913	0.155217
1163.505483	0.144866
1163.659035	0.159570
1163.812569	0.162975
1163.966084	0.177720
1164.119581	0.189809
1164.273060	0.191247
1164.426521	0.189979
1164.579964	0.187546
1164.733388	0.179049
1164.886794	0.175335
1165.040182	0.178931
1165.193551	0.179618
1165.346903	0.163853
1165.500236	0.163505
1165.653551	0.163047
1165.806848	0.171192
1165.960126	0.178607
1166.113386	0.167030
1166.266628	0.174383
1166.419852	0.162159
1166.573058	0.172300
1166.726245	0.179860
1166.879414	0.166119
1167.032565	0.161621
1167.185698	0.162155
1167.338812	0.148970
1167.491909	0.181044
1167.644987	0.177087
1167.798046	0.193869
1167.951088	0.190191
1168.104111	0.188746
1168.257117	0.205165
1168.410103	0.213197
1168.563072	0.214030
1168.716023	0.224664
1168.868955	0.197099
1169.021869	0.220542
1169.174765	0.217469
1169.327642	0.214739
1169.480501	0.216586
1169.633343	0.211107
1169.786165	0.204280
1169.938970	0.204964
1170.091757	0.204525
1170.244525	0.209665
1170.397275	0.176483
1170.550007	0.166398
1170.702720	0.164951
1170.855415	0.159842
1171.008092	0.169126
1171.160751	0.195423
1171.313392	0.202578
1171.466014	0.130564
1171.618619	0.357710
1171.771205	0.357710
1171.923772	0.357710
