sample name	sample
index	1061
start time	 04-22-2021  10:06:22 AM


Wavelength (nm)	Absorbance
494.344910	0.097838
494.563924	0.097838
494.782919	0.097838
495.001897	-0.034028
495.220856	0.002674
495.439797	-0.015374
495.658719	-0.038478
495.877624	-0.056867
496.096510	-0.070604
496.315378	-0.062011
496.534227	-0.064072
496.753059	-0.056113
496.971872	-0.032583
497.190667	0.059104
497.409444	0.095941
497.628203	0.106871
497.846943	0.111843
498.065665	0.116171
498.284369	0.117003
498.503055	0.118853
498.721723	0.119222
498.940372	0.117837
499.159003	0.117433
499.377616	0.115810
499.596210	0.115867
499.814787	0.114850
500.033345	0.114478
500.251885	0.114547
500.470406	0.114064
500.688910	0.113732
500.907395	0.114598
501.125862	0.115802
501.344311	0.116223
501.562742	0.115196
501.781154	0.115866
501.999548	0.115508
502.217924	0.115956
502.436282	0.115322
502.654621	0.114438
502.872942	0.115119
503.091245	0.115376
503.309530	0.116107
503.527797	0.116531
503.746045	0.116588
503.964275	0.116745
504.182487	0.115874
504.400681	0.116185
504.618856	0.117007
504.837013	0.116831
505.055152	0.116011
505.273273	0.115400
505.491376	0.115302
505.709460	0.115964
505.927526	0.115984
506.145574	0.116326
506.363604	0.116599
506.581615	0.116030
506.799608	0.116307
507.017583	0.116243
507.235540	0.116814
507.453478	0.117082
507.671399	0.116264
507.889301	0.115548
508.107185	0.116268
508.325050	0.115869
508.542898	0.116110
508.760727	0.115583
508.978538	0.115939
509.196330	0.115845
509.414105	0.116139
509.631861	0.116724
509.849599	0.116513
510.067319	0.115731
510.285021	0.116133
510.502704	0.115863
510.720369	0.116073
510.938016	0.116291
511.155645	0.116918
511.373255	0.117227
511.590848	0.116826
511.808422	0.117441
512.025977	0.117981
512.243515	0.117724
512.461034	0.117652
512.678536	0.118269
512.896018	0.117448
513.113483	0.116996
513.330930	0.117328
513.548358	0.117840
513.765768	0.118207
513.983160	0.117912
514.200533	0.118841
514.417889	0.119413
514.635226	0.119744
514.852545	0.120858
515.069845	0.120731
515.287128	0.120523
515.504392	0.120668
515.721638	0.120162
515.938866	0.120067
516.156075	0.120970
516.373267	0.120609
516.590440	0.119630
516.807594	0.118764
517.024731	0.118985
517.241850	0.118201
517.458950	0.118556
517.676032	0.118598
517.893095	0.119585
518.110141	0.118701
518.327168	0.119480
518.544177	0.120761
518.761168	0.120753
518.978141	0.120752
519.195095	0.121145
519.412031	0.120818
519.628949	0.120654
519.845849	0.120901
520.062731	0.121731
520.279594	0.121811
520.496439	0.121053
520.713266	0.122237
520.930074	0.122266
521.146865	0.122787
521.363637	0.122999
521.580391	0.123060
521.797127	0.122975
522.013844	0.122532
522.230543	0.123022
522.447224	0.123428
522.663887	0.123519
522.880532	0.123751
523.097158	0.123849
523.313766	0.123834
523.530356	0.124180
523.746928	0.123959
523.963481	0.123755
524.180017	0.123513
524.396534	0.123242
524.613032	0.122523
524.829513	0.122463
525.045975	0.122241
525.262420	0.122024
525.478845	0.122145
525.695253	0.121672
525.911643	0.122009
526.128014	0.121481
526.344367	0.121600
526.560702	0.121908
526.777018	0.122427
526.993316	0.123132
527.209597	0.123451
527.425858	0.123653
527.642102	0.124106
527.858328	0.124287
528.074535	0.124203
528.290724	0.124363
528.506894	0.124137
528.723047	0.123788
528.939181	0.123410
529.155297	0.123202
529.371395	0.123479
529.587475	0.123987
529.803536	0.123543
530.019579	0.123991
530.235604	0.123808
530.451611	0.124054
530.667600	0.124678
530.883570	0.124872
531.099522	0.125451
531.315456	0.126084
531.531372	0.125446
531.747269	0.126569
531.963148	0.127602
532.179009	0.127620
532.394852	0.127914
532.610676	0.127444
532.826482	0.127204
533.042271	0.126631
533.258040	0.126438
533.473792	0.127415
533.689525	0.127198
533.905240	0.127239
534.120937	0.128160
534.336616	0.127980
534.552277	0.128259
534.767919	0.128777
534.983543	0.129968
535.199149	0.129906
535.414736	0.129732
535.630306	0.129676
535.845857	0.129581
536.061390	0.129932
536.276904	0.130509
536.492401	0.131038
536.707879	0.131158
536.923339	0.130579
537.138781	0.130700
537.354204	0.130865
537.569610	0.130662
537.784997	0.130669
538.000366	0.130149
538.215716	0.130439
538.431049	0.130286
538.646363	0.130041
538.861659	0.130040
539.076937	0.130146
539.292196	0.130048
539.507438	0.130422
539.722661	0.130116
539.937866	0.129644
540.153052	0.129405
540.368221	0.130236
540.583371	0.131003
540.798503	0.131402
541.013617	0.131722
541.228712	0.132275
541.443789	0.131960
541.658848	0.132500
541.873889	0.132949
542.088912	0.133089
542.303916	0.132929
542.518902	0.132705
542.733870	0.132899
542.948820	0.132769
543.163752	0.132317
543.378665	0.132429
543.593560	0.132699
543.808437	0.133154
544.023295	0.133295
544.238136	0.133300
544.452958	0.133057
544.667762	0.132928
544.882548	0.133691
545.097315	0.134620
545.312064	0.135216
545.526795	0.134803
545.741508	0.134784
545.956203	0.134644
546.170879	0.134649
546.385537	0.134917
546.600177	0.135147
546.814799	0.135561
547.029402	0.135011
547.243988	0.134710
547.458555	0.134695
547.673103	0.135188
547.887634	0.135182
548.102146	0.134994
548.316640	0.135112
548.531116	0.134814
548.745574	0.134242
548.960013	0.134832
549.174435	0.135187
549.388838	0.135651
549.603222	0.135086
549.817589	0.135817
550.031937	0.136051
550.246267	0.136066
550.460579	0.136521
550.674873	0.136672
550.889148	0.136269
551.103405	0.136594
551.317644	0.136475
551.531865	0.136604
551.746068	0.135981
551.960252	0.136112
552.174418	0.136267
552.388566	0.135832
552.602696	0.135702
552.816807	0.135859
553.030900	0.135982
553.244975	0.136466
553.459032	0.136841
553.673070	0.137557
553.887091	0.137262
554.101093	0.137312
554.315077	0.137852
554.529042	0.137552
554.742990	0.137383
554.956919	0.137202
555.170830	0.136912
555.384722	0.137019
555.598597	0.136859
555.812453	0.137117
556.026291	0.137136
556.240111	0.137124
556.453913	0.137359
556.667696	0.137240
556.881461	0.137189
557.095208	0.136861
557.308937	0.136238
557.522647	0.136012
557.736339	0.136059
557.950013	0.136278
558.163669	0.136683
558.377307	0.136801
558.590926	0.137402
558.804527	0.137274
559.018110	0.137869
559.231675	0.138214
559.445221	0.138552
559.658749	0.138836
559.872259	0.138798
560.085751	0.138619
560.299225	0.139477
560.512680	0.139403
560.726117	0.139552
560.939536	0.139144
561.152937	0.139258
561.366319	0.139173
561.579683	0.138976
561.793029	0.138965
562.006357	0.138994
562.219667	0.138523
562.432958	0.138195
562.646231	0.138039
562.859486	0.138729
563.072723	0.138831
563.285941	0.138807
563.499141	0.139128
563.712323	0.138985
563.925487	0.139066
564.138632	0.139217
564.351760	0.139540
564.564869	0.140047
564.777960	0.139960
564.991032	0.139661
565.204087	0.140164
565.417123	0.140042
565.630141	0.140125
565.843140	0.140002
566.056122	0.139807
566.269085	0.139868
566.482030	0.139863
566.694957	0.139775
566.907866	0.139830
567.120756	0.139501
567.333628	0.139708
567.546482	0.140087
567.759318	0.140102
567.972135	0.140178
568.184935	0.140325
568.397716	0.140381
568.610478	0.140465
568.823223	0.141194
569.035949	0.141447
569.248657	0.141621
569.461347	0.141851
569.674019	0.142092
569.886672	0.142476
570.099308	0.142506
570.311925	0.142464
570.524523	0.142416
570.737104	0.142216
570.949666	0.142083
571.162210	0.141673
571.374736	0.141513
571.587244	0.141298
571.799733	0.141171
572.012205	0.141209
572.224658	0.141148
572.437092	0.141729
572.649509	0.141547
572.861907	0.141478
573.074287	0.141593
573.286649	0.141524
573.498993	0.141909
573.711318	0.141838
573.923625	0.141963
574.135914	0.141696
574.348185	0.141218
574.560438	0.141686
574.772672	0.141904
574.984888	0.141989
575.197086	0.142127
575.409266	0.141884
575.621427	0.141809
575.833570	0.141556
576.045695	0.142047
576.257802	0.142072
576.469890	0.141739
576.681961	0.141998
576.894013	0.142227
577.106046	0.141944
577.318062	0.142100
577.530059	0.142345
577.742039	0.142584
577.954000	0.143172
578.165942	0.143405
578.377867	0.143797
578.589773	0.143702
578.801661	0.143947
579.013531	0.144290
579.225382	0.144387
579.437216	0.144240
579.649031	0.144440
579.860828	0.143573
580.072606	0.143516
580.284367	0.143707
580.496109	0.143869
580.707833	0.143765
580.919539	0.144150
581.131227	0.144150
581.342896	0.144517
581.554547	0.144304
581.766180	0.144679
581.977795	0.145067
582.189391	0.145100
582.400969	0.144964
582.612529	0.144832
582.824071	0.144894
583.035595	0.144919
583.247100	0.144636
583.458587	0.144881
583.670056	0.144626
583.881506	0.144284
584.092939	0.144129
584.304353	0.144268
584.515749	0.144566
584.727127	0.144678
584.938486	0.144816
585.149828	0.145094
585.361151	0.144973
585.572456	0.145544
585.783742	0.145505
585.995011	0.145493
586.206261	0.145398
586.417493	0.145052
586.628706	0.144874
586.839902	0.145071
587.051079	0.145320
587.262238	0.145350
587.473379	0.145441
587.684502	0.145832
587.895606	0.145864
588.106692	0.145946
588.317760	0.146542
588.528810	0.146689
588.739841	0.146664
588.950855	0.146542
589.161850	0.146831
589.372827	0.146588
589.583785	0.146455
589.794726	0.146586
590.005648	0.146520
590.216552	0.146583
590.427437	0.146398
590.638305	0.146374
590.849154	0.146545
591.059985	0.146592
591.270798	0.146972
591.481592	0.147140
591.692369	0.147108
591.903127	0.147141
592.113867	0.146757
592.324588	0.146852
592.535292	0.147094
592.745977	0.147204
592.956644	0.147426
593.167293	0.147430
593.377923	0.147861
593.588536	0.147960
593.799130	0.148625
594.009706	0.148795
594.220263	0.148954
594.430803	0.149106
594.641324	0.148960
594.851827	0.148567
595.062312	0.148454
595.272778	0.148318
595.483227	0.148325
595.693657	0.148148
595.904069	0.148252
596.114462	0.148378
596.324838	0.148442
596.535195	0.148546
596.745534	0.149014
596.955855	0.149030
597.166157	0.148816
597.376441	0.148960
597.586707	0.148897
597.796955	0.149082
598.007185	0.149193
598.217396	0.149041
598.427589	0.149411
598.637764	0.149589
598.847921	0.149936
599.058060	0.149849
599.268180	0.150215
599.478282	0.150406
599.688366	0.150208
599.898431	0.150330
600.108479	0.150855
600.318508	0.150554
600.528519	0.150133
600.738511	0.149968
600.948486	0.150240
601.158442	0.150064
601.368380	0.149913
601.578300	0.149848
601.788202	0.149655
601.998085	0.149591
602.207950	0.149510
602.417797	0.149904
602.627626	0.150122
602.837436	0.150296
603.047228	0.150129
603.257002	0.150455
603.466758	0.150922
603.676496	0.151089
603.886215	0.150892
604.095916	0.150993
604.305599	0.151122
604.515264	0.150975
604.724910	0.150945
604.934538	0.151033
605.144148	0.150695
605.353740	0.150567
605.563314	0.150855
605.772869	0.150766
605.982406	0.151151
606.191925	0.151027
606.401425	0.150782
606.610908	0.150976
606.820372	0.151374
607.029818	0.151644
607.239246	0.151815
607.448655	0.151479
607.658047	0.151783
607.867420	0.151828
608.076775	0.151994
608.286111	0.152470
608.495430	0.152360
608.704730	0.152416
608.914012	0.152375
609.123275	0.152317
609.332521	0.152241
609.541748	0.152199
609.750957	0.152388
609.960148	0.152055
610.169321	0.152043
610.378475	0.151946
610.587611	0.151695
610.796729	0.151634
611.005829	0.151631
611.214910	0.151771
611.423974	0.151599
611.633019	0.151235
611.842045	0.151495
612.051054	0.151586
612.260044	0.151796
612.469017	0.151751
612.677970	0.151719
612.886906	0.151726
613.095824	0.151805
613.304723	0.152031
613.513604	0.152073
613.722467	0.152113
613.931311	0.152111
614.140138	0.152112
614.348946	0.152271
614.557736	0.152555
614.766507	0.152669
614.975261	0.152847
615.183996	0.152865
615.392713	0.153058
615.601412	0.152713
615.810092	0.152754
616.018754	0.152731
616.227399	0.152547
616.436024	0.152530
616.644632	0.152276
616.853222	0.152231
617.061793	0.152078
617.270346	0.151908
617.478880	0.152153
617.687397	0.152002
617.895895	0.151807
618.104375	0.152103
618.312837	0.152055
618.521281	0.152232
618.729706	0.152373
618.938113	0.152499
619.146502	0.152640
619.354873	0.152739
619.563226	0.152638
619.771560	0.153082
619.979876	0.152960
620.188174	0.153069
620.396453	0.152983
620.604715	0.152914
620.812958	0.152754
621.021183	0.152898
621.229390	0.153241
621.437578	0.153521
621.645748	0.153474
621.853900	0.153359
622.062034	0.153475
622.270150	0.153641
622.478247	0.153509
622.686326	0.153572
622.894387	0.153437
623.102430	0.153276
623.310454	0.153434
623.518461	0.153356
623.726449	0.153406
623.934418	0.153239
624.142370	0.153439
624.350303	0.153443
624.558218	0.153536
624.766115	0.153576
624.973994	0.153482
625.181855	0.153258
625.389697	0.153474
625.597521	0.153742
625.805327	0.153992
626.013114	0.153714
626.220883	0.154047
626.428634	0.154145
626.636367	0.154132
626.844082	0.154170
627.051778	0.154675
627.259457	0.154689
627.467117	0.154846
627.674758	0.154676
627.882382	0.154873
628.089987	0.154740
628.297574	0.154978
628.505143	0.155032
628.712694	0.155160
628.920226	0.154729
629.127740	0.154552
629.335236	0.154580
629.542714	0.154822
629.750174	0.154798
629.957615	0.154904
630.165038	0.154678
630.372443	0.154874
630.579829	0.154924
630.787198	0.155048
630.994548	0.155195
631.201880	0.155275
631.409194	0.155217
631.616489	0.155547
631.823766	0.155734
632.031025	0.156147
632.238266	0.156020
632.445489	0.156082
632.652693	0.156214
632.859879	0.156274
633.067047	0.156357
633.274197	0.156627
633.481329	0.156564
633.688442	0.156477
633.895537	0.156377
634.102614	0.156689
634.309672	0.156841
634.516713	0.156801
634.723735	0.156902
634.930739	0.156803
635.137724	0.156682
635.344692	0.157031
635.551641	0.157003
635.758572	0.156804
635.965485	0.156699
636.172379	0.156622
636.379256	0.156737
636.586114	0.156903
636.792954	0.156958
636.999775	0.157034
637.206579	0.156883
637.413364	0.157048
637.620131	0.157384
637.826880	0.157531
638.033610	0.157751
638.240323	0.157887
638.447017	0.157672
638.653692	0.157637
638.860350	0.157760
639.066990	0.158020
639.273611	0.158274
639.480214	0.158385
639.686798	0.158576
639.893365	0.158615
640.099913	0.158931
640.306443	0.159352
640.512955	0.159651
640.719449	0.159717
640.925924	0.159592
641.132381	0.159868
641.338820	0.159981
641.545241	0.159867
641.751644	0.160100
641.958028	0.160229
642.164394	0.160319
642.370742	0.160316
642.577071	0.160452
642.783383	0.160689
642.989676	0.160364
643.195951	0.160616
643.402207	0.160878
643.608446	0.160748
643.814666	0.160662
644.020868	0.160598
644.227052	0.160526
644.433218	0.160501
644.639365	0.160150
644.845494	0.160210
645.051605	0.159966
645.257698	0.159933
645.463772	0.160049
645.669828	0.160294
645.875866	0.160338
646.081886	0.160619
646.287888	0.160839
646.493871	0.160965
646.699836	0.161089
646.905783	0.160943
647.111712	0.161071
647.317622	0.161083
647.523514	0.160922
647.729388	0.161049
647.935244	0.161023
648.141082	0.161026
648.346901	0.161212
648.552702	0.161319
648.758485	0.161787
648.964250	0.161640
649.169996	0.161675
649.375724	0.161815
649.581434	0.161925
649.787126	0.161982
649.992800	0.161926
650.198455	0.162251
650.404092	0.162458
650.609711	0.162424
650.815311	0.162781
651.020894	0.162922
651.226458	0.162875
651.432004	0.162915
651.637532	0.163047
651.843041	0.163313
652.048532	0.163350
652.254006	0.163340
652.459460	0.163582
652.664897	0.163513
652.870315	0.163636
653.075716	0.163933
653.281097	0.164064
653.486461	0.164399
653.691807	0.164555
653.897134	0.164551
654.102443	0.164656
654.307734	0.164719
654.513006	0.165062
654.718261	0.165253
654.923497	0.165215
655.128715	0.165201
655.333915	0.165187
655.539096	0.165289
655.744259	0.165309
655.949404	0.165465
656.154531	0.165356
656.359640	0.165128
656.564730	0.164919
656.769802	0.165089
656.974856	0.165216
657.179892	0.165407
657.384909	0.165339
657.589908	0.165387
657.794889	0.165383
657.999852	0.165799
658.204797	0.166216
658.409723	0.166467
658.614631	0.166497
658.819521	0.166433
659.024393	0.166385
659.229246	0.166648
659.434081	0.166665
659.638898	0.166894
659.843697	0.166674
660.048478	0.166606
660.253240	0.166765
660.457984	0.166839
660.662710	0.167069
660.867417	0.167342
661.072107	0.167314
661.276778	0.167549
661.481431	0.167672
661.686066	0.167883
661.890682	0.167883
662.095281	0.168160
662.299861	0.168330
662.504422	0.168461
662.708966	0.168187
662.913491	0.168370
663.117999	0.168622
663.322488	0.168364
663.526958	0.168582
663.731411	0.168825
663.935845	0.168776
664.140261	0.168886
664.344659	0.168719
664.549038	0.169046
664.753400	0.168847
664.957743	0.168792
665.162068	0.169135
665.366375	0.168926
665.570663	0.168818
665.774933	0.168796
665.979185	0.168848
666.183419	0.168952
666.387635	0.168798
666.591832	0.168965
666.796011	0.169074
667.000172	0.168973
667.204315	0.169355
667.408439	0.169695
667.612545	0.169776
667.816634	0.169566
668.020703	0.169788
668.224755	0.170202
668.428788	0.170397
668.632803	0.170623
668.836800	0.170791
669.040779	0.170717
669.244739	0.170503
669.448681	0.170581
669.652605	0.170846
669.856511	0.171025
670.060399	0.170857
670.264268	0.170967
670.468119	0.170969
670.671952	0.170965
670.875767	0.170887
671.079563	0.171174
671.283341	0.171318
671.487101	0.171386
671.690843	0.171327
671.894567	0.171452
672.098272	0.171276
672.301959	0.171332
672.505628	0.171386
672.709278	0.171621
672.912911	0.171736
673.116525	0.171643
673.320121	0.171818
673.523699	0.171945
673.727258	0.172014
673.930799	0.172236
674.134322	0.172300
674.337827	0.172463
674.541314	0.172428
674.744782	0.172299
674.948232	0.172642
675.151664	0.172580
675.355078	0.172824
675.558474	0.172978
675.761851	0.173162
675.965210	0.173129
676.168551	0.173307
676.371873	0.173505
676.575178	0.173844
676.778464	0.173882
676.981732	0.174147
677.184981	0.174197
677.388213	0.174384
677.591426	0.174537
677.794621	0.174960
677.997798	0.175163
678.200956	0.175344
678.404097	0.175300
678.607219	0.175487
678.810323	0.175488
679.013408	0.175567
679.216476	0.175363
679.419525	0.175442
679.622556	0.175392
679.825569	0.175252
680.028563	0.175180
680.231540	0.175112
680.434498	0.175134
680.637438	0.175133
680.840359	0.175003
681.043263	0.175308
681.246148	0.175228
681.449015	0.175199
681.651864	0.175332
681.854694	0.175579
682.057506	0.175865
682.260301	0.175865
682.463076	0.176241
682.665834	0.176548
682.868573	0.176692
683.071295	0.176917
683.273998	0.176941
683.476682	0.177031
683.679349	0.176996
683.881997	0.177034
684.084627	0.177172
684.287239	0.176909
684.489833	0.176921
684.692408	0.176804
684.894965	0.176780
685.097504	0.177003
685.300025	0.177015
685.502527	0.177033
685.705012	0.177039
685.907478	0.177071
686.109925	0.177315
686.312355	0.177316
686.514766	0.177391
686.717159	0.177440
686.919534	0.177185
687.121891	0.177418
687.324230	0.177581
687.526550	0.177469
687.728852	0.177466
687.931136	0.177403
688.133401	0.177347
688.335649	0.177524
688.537878	0.177664
688.740089	0.177965
688.942281	0.177831
689.144456	0.177843
689.346612	0.177922
689.548750	0.178091
689.750870	0.178303
689.952971	0.178532
690.155055	0.178678
690.357120	0.178534
690.559167	0.178470
690.761195	0.178727
690.963206	0.178969
691.165198	0.179248
691.367172	0.179171
691.569128	0.179166
691.771065	0.179266
691.972984	0.179373
692.174885	0.179842
692.376768	0.180162
692.578633	0.180325
692.780479	0.180343
692.982308	0.180428
693.184118	0.180673
693.385909	0.180685
693.587683	0.180735
693.789438	0.180764
693.991175	0.180653
694.192894	0.180446
694.394595	0.180251
694.596277	0.180164
694.797941	0.179985
694.999587	0.179811
695.201215	0.179700
695.402824	0.179537
695.604416	0.179457
695.805989	0.179460
696.007543	0.179582
696.209080	0.179684
696.410598	0.179668
696.612099	0.179777
696.813580	0.179847
697.015044	0.179997
697.216490	0.180204
697.417917	0.180191
697.619326	0.180317
697.820717	0.180340
698.022089	0.180388
698.223444	0.180462
698.424780	0.180678
698.626098	0.180752
698.827397	0.180895
699.028679	0.180872
699.229942	0.180875
699.431187	0.180612
699.632414	0.180690
699.833622	0.180798
700.034813	0.180867
700.235985	0.180974
700.437139	0.181005
700.638274	0.181088
700.839392	0.181174
701.040491	0.181389
701.241572	0.181764
701.442635	0.181886
701.643679	0.181877
701.844706	0.181797
702.045714	0.181705
702.246704	0.181865
702.447675	0.181884
702.648629	0.182021
702.849564	0.182052
703.050481	0.182041
703.251380	0.181797
703.452260	0.181843
703.653122	0.182048
703.853966	0.181960
704.054792	0.181932
704.255600	0.181962
704.456389	0.181746
704.657160	0.181600
704.857913	0.181452
705.058648	0.181654
705.259365	0.181449
705.460063	0.181255
705.660743	0.181227
705.861405	0.181073
706.062048	0.181080
706.262674	0.181165
706.463281	0.181143
706.663870	0.181171
706.864441	0.181160
707.064993	0.181416
707.265527	0.181468
707.466043	0.181493
707.666541	0.181667
707.867021	0.181488
708.067482	0.181489
708.267925	0.181490
708.468350	0.181752
708.668757	0.181833
708.869145	0.181754
709.069516	0.181959
709.269868	0.182175
709.470201	0.182181
709.670517	0.182518
709.870814	0.182799
710.071093	0.183061
710.271354	0.183016
710.471597	0.182902
710.671821	0.182839
710.872028	0.182726
711.072216	0.182701
711.272385	0.182792
711.472537	0.182647
711.672670	0.182481
711.872785	0.182210
712.072882	0.182068
712.272961	0.182056
712.473021	0.182184
712.673063	0.182299
712.873087	0.182065
713.073093	0.181926
713.273081	0.181699
713.473050	0.181593
713.673001	0.181752
713.872934	0.181797
714.072849	0.182109
714.272745	0.182029
714.472623	0.181934
714.672483	0.181874
714.872325	0.181888
715.072148	0.182038
715.271954	0.182038
715.471741	0.181898
715.671509	0.181827
715.871260	0.181487
716.070992	0.181357
716.270707	0.181202
716.470403	0.181418
716.670080	0.181359
716.869740	0.181096
717.069381	0.181192
717.269004	0.180963
717.468609	0.180783
717.668195	0.180697
717.867764	0.180804
718.067314	0.180813
718.266846	0.180618
718.466360	0.180550
718.665855	0.180543
718.865332	0.180443
719.064791	0.180499
719.264232	0.180427
719.463655	0.180503
719.663059	0.180203
719.862445	0.180043
720.061813	0.180074
720.261163	0.179891
720.460494	0.179959
720.659807	0.179802
720.859102	0.179922
721.058379	0.179867
721.257638	0.179767
721.456878	0.179988
721.656100	0.180127
721.855304	0.179977
722.054490	0.180029
722.253657	0.180189
722.452806	0.180223
722.651937	0.180035
722.851050	0.180027
723.050145	0.179972
723.249221	0.179886
723.448279	0.179883
723.647319	0.179815
723.846340	0.179715
724.045344	0.179349
724.244329	0.179332
724.443296	0.179265
724.642245	0.179287
724.841175	0.179141
725.040088	0.178960
725.238982	0.178627
725.437857	0.178678
725.636715	0.178607
725.835554	0.178602
726.034376	0.178429
726.233179	0.178377
726.431963	0.178271
726.630730	0.178398
726.829478	0.178297
727.028208	0.178347
727.226920	0.178229
727.425614	0.178387
727.624289	0.178449
727.822946	0.178383
728.021585	0.178389
728.220206	0.178206
728.418808	0.178011
728.617392	0.177967
728.815958	0.177796
729.014506	0.177708
729.213036	0.177533
729.411547	0.177411
729.610040	0.177303
729.808515	0.177056
730.006972	0.177108
730.205410	0.177060
730.403831	0.176902
730.602233	0.176895
730.800616	0.176671
730.998982	0.176423
731.197329	0.176367
731.395658	0.176261
731.593969	0.176450
731.792262	0.176247
731.990536	0.176262
732.188793	0.176364
732.387031	0.176485
732.585250	0.176746
732.783452	0.176746
732.981635	0.176510
733.179800	0.176454
733.377947	0.176264
733.576076	0.176125
733.774186	0.175930
733.972278	0.175732
734.170352	0.175487
734.368408	0.175330
734.566446	0.175364
734.764465	0.175274
734.962466	0.175267
735.160449	0.174933
735.358413	0.174953
735.556360	0.174884
735.754288	0.174841
735.952198	0.174690
736.150090	0.174388
736.347963	0.174045
736.545818	0.174229
736.743655	0.174141
736.941474	0.174189
737.139275	0.174060
737.337057	0.173903
737.534821	0.173737
737.732567	0.173649
737.930295	0.173691
738.128005	0.173741
738.325696	0.173332
738.523369	0.173215
738.721024	0.173107
738.918660	0.173000
739.116279	0.172875
739.313879	0.172928
739.511461	0.172820
739.709024	0.172821
739.906570	0.172711
740.104097	0.172820
740.301606	0.172666
740.499097	0.172703
740.696569	0.172714
740.894024	0.172858
741.091460	0.172665
741.288878	0.172682
741.486277	0.172650
741.683659	0.172717
741.881022	0.172680
742.078367	0.172766
742.275694	0.172696
742.473002	0.172665
742.670293	0.172546
742.867565	0.172529
743.064819	0.172411
743.262054	0.172489
743.459272	0.172183
743.656471	0.172101
743.853652	0.171969
744.050815	0.171808
744.247959	0.171822
744.445085	0.171632
744.642194	0.171547
744.839283	0.171597
745.036355	0.171229
745.233408	0.171338
745.430444	0.171010
745.627461	0.170958
745.824459	0.171027
746.021440	0.170726
746.218402	0.170544
746.415346	0.170503
746.612272	0.170391
746.809180	0.170308
747.006069	0.170078
747.202940	0.170131
747.399793	0.169892
747.596628	0.169557
747.793444	0.169623
747.990243	0.169480
748.187023	0.169232
748.383784	0.169074
748.580528	0.168979
748.777253	0.169040
748.973960	0.168905
749.170649	0.168791
749.367320	0.168803
749.563973	0.168603
749.760607	0.168757
749.957223	0.168873
750.153821	0.168599
750.350400	0.168523
750.546962	0.168325
750.743505	0.168188
750.940030	0.168012
751.136536	0.168019
751.333025	0.167902
751.529495	0.167685
751.725947	0.167428
751.922381	0.167555
752.118796	0.167333
752.315194	0.167444
752.511573	0.167246
752.707934	0.166967
752.904276	0.166487
753.100601	0.166278
753.296907	0.166228
753.493195	0.166065
753.689465	0.165793
753.885716	0.165887
754.081949	0.165620
754.278164	0.165408
754.474361	0.165549
754.670540	0.165728
754.866700	0.165574
755.062843	0.165513
755.258967	0.165430
755.455072	0.165402
755.651160	0.165354
755.847229	0.165274
756.043280	0.165488
756.239313	0.165390
756.435328	0.165234
756.631324	0.165391
756.827302	0.165302
757.023262	0.165565
757.219204	0.165488
757.415127	0.165302
757.611033	0.165288
757.806920	0.165164
758.002788	0.165266
758.198639	0.165338
758.394471	0.165237
758.590286	0.165225
758.786081	0.164781
758.981859	0.164846
759.177619	0.164637
759.373360	0.164430
759.569083	0.164320
759.764788	0.163914
759.960474	0.163777
760.156143	0.163483
760.351793	0.163243
760.547425	0.163100
760.743038	0.162888
760.938634	0.162923
761.134211	0.162931
761.329770	0.162900
761.525311	0.163134
761.720833	0.163096
761.916338	0.163175
762.111824	0.163225
762.307292	0.163291
762.502741	0.163184
762.698173	0.163231
762.893586	0.163113
763.088981	0.162881
763.284358	0.163146
763.479716	0.163127
763.675057	0.163285
763.870379	0.163316
764.065683	0.163349
764.260968	0.163405
764.456236	0.163207
764.651485	0.163155
764.846716	0.163381
765.041929	0.162969
765.237123	0.162833
765.432299	0.162800
765.627457	0.162621
765.822597	0.162553
766.017719	0.162322
766.212822	0.162462
766.407907	0.162710
766.602974	0.162810
766.798023	0.162761
766.993054	0.162660
767.188066	0.162394
767.383060	0.162344
767.578036	0.162198
767.772993	0.162065
767.967933	0.162108
768.162854	0.161942
768.357757	0.161560
768.552642	0.161589
768.747508	0.161529
768.942356	0.161735
769.137186	0.161522
769.331998	0.161585
769.526792	0.161686
769.721567	0.161382
769.916324	0.161098
770.111063	0.161091
770.305784	0.160839
770.500486	0.160696
770.695171	0.160391
770.889837	0.160420
771.084484	0.160265
771.279114	0.160199
771.473725	0.160165
771.668318	0.160085
771.862893	0.159963
772.057450	0.159987
772.251988	0.160069
772.446509	0.160242
772.641011	0.160375
772.835494	0.160517
773.029960	0.160828
773.224407	0.160592
773.418836	0.160680
773.613247	0.160539
773.807640	0.160587
774.002014	0.160647
774.196370	0.160475
774.390708	0.160394
774.585028	0.160202
774.779330	0.160163
774.973613	0.160408
775.167878	0.160343
775.362125	0.160341
775.556354	0.160507
775.750564	0.160421
775.944756	0.160413
776.138930	0.160516
776.333086	0.160445
776.527223	0.160264
776.721343	0.160118
776.915444	0.159868
777.109526	0.160011
777.303591	0.159689
777.497637	0.159903
777.691666	0.159869
777.885676	0.159580
778.079667	0.159555
778.273641	0.159630
778.467596	0.159577
778.661533	0.159700
778.855452	0.159596
779.049352	0.159638
779.243235	0.159129
779.437099	0.158936
779.630945	0.158801
779.824773	0.158837
780.018582	0.158745
780.212373	0.158857
780.406146	0.158567
780.599901	0.158806
780.793638	0.158645
780.987356	0.159049
781.181056	0.159138
781.374738	0.159495
781.568402	0.159620
781.762047	0.159700
781.955674	0.159776
782.149283	0.160049
782.342874	0.160011
782.536447	0.160085
782.730001	0.160063
782.923537	0.160315
783.117055	0.160079
783.310555	0.160194
783.504036	0.160010
783.697499	0.159984
783.890944	0.160219
784.084371	0.160151
784.277780	0.160339
784.471170	0.160296
784.664542	0.160357
784.857896	0.160690
785.051231	0.160690
785.244549	0.161178
785.437848	0.161256
785.631129	0.161100
785.824392	0.161570
786.017636	0.161646
786.210863	0.161767
786.404071	0.161798
786.597260	0.161728
786.790432	0.161834
786.983585	0.161664
787.176721	0.161892
787.369838	0.162259
787.562936	0.162180
787.756017	0.162659
787.949079	0.162819
788.142123	0.162744
788.335149	0.162794
788.528156	0.163025
788.721146	0.163021
788.914117	0.163063
789.107070	0.162959
789.300005	0.162953
789.492921	0.162704
789.685819	0.162995
789.878699	0.163121
790.071561	0.163427
790.264405	0.163220
790.457230	0.163276
790.650037	0.163378
790.842826	0.163619
791.035597	0.163831
791.228349	0.163807
791.421084	0.163270
791.613800	0.163405
791.806497	0.163256
791.999177	0.163344
792.191838	0.163635
792.384481	0.163376
792.577106	0.163248
792.769713	0.163046
792.962301	0.162981
793.154871	0.163224
793.347423	0.163243
793.539957	0.163289
793.732473	0.163362
793.924970	0.163143
794.117449	0.163582
794.309910	0.163528
794.502353	0.163646
794.694777	0.164126
794.887183	0.164093
795.079571	0.164009
795.271941	0.164391
795.464293	0.164567
795.656626	0.164684
795.848941	0.164702
796.041238	0.165166
796.233516	0.165463
796.425777	0.165455
796.618019	0.165867
796.810243	0.165978
797.002449	0.166031
797.194636	0.166288
797.386805	0.166360
797.578956	0.166231
797.771089	0.166265
797.963204	0.166341
798.155300	0.166266
798.347378	0.166412
798.539438	0.166741
798.731480	0.166620
798.923503	0.166531
799.115509	0.167039
799.307496	0.167163
799.499465	0.167085
799.691415	0.167081
799.883348	0.166978
800.075262	0.166904
800.267158	0.166810
800.459035	0.166994
800.650895	0.167112
800.842736	0.166815
801.034559	0.167015
801.226364	0.167286
801.418150	0.167338
801.609919	0.167690
801.801669	0.167864
801.993401	0.168188
802.185114	0.168031
802.376810	0.168124
802.568487	0.168339
802.760146	0.168470
802.951787	0.168546
803.143409	0.168703
803.335014	0.168913
803.526600	0.169226
803.718168	0.169217
803.909717	0.169654
804.101249	0.169677
804.292762	0.169931
804.484257	0.169887
804.675734	0.170032
804.867192	0.170097
805.058632	0.170238
805.250054	0.170348
805.441458	0.170521
805.632844	0.170485
805.824211	0.170778
806.015561	0.171092
806.206891	0.171654
806.398204	0.171843
806.589499	0.172141
806.780775	0.172334
806.972033	0.172354
807.163273	0.172778
807.354495	0.173139
807.545698	0.173450
807.736883	0.173321
807.928050	0.173446
808.119199	0.173917
808.310329	0.173969
808.501441	0.174145
808.692535	0.174433
808.883611	0.174415
809.074669	0.174430
809.265708	0.174658
809.456729	0.174933
809.647732	0.174789
809.838717	0.174788
810.029683	0.175166
810.220632	0.175674
810.411562	0.175790
810.602474	0.175959
810.793367	0.176396
810.984242	0.176502
811.175100	0.176590
811.365938	0.176999
811.556759	0.177244
811.747562	0.177412
811.938346	0.177374
812.129112	0.177715
812.319860	0.177904
812.510589	0.177946
812.701300	0.177983
812.891994	0.178100
813.082668	0.178316
813.273325	0.178496
813.463964	0.178720
813.654584	0.178728
813.845186	0.178565
814.035769	0.178950
814.226335	0.179164
814.416882	0.179635
814.607411	0.180081
814.797922	0.180146
814.988415	0.179971
815.178889	0.180155
815.369345	0.180530
815.559783	0.180721
815.750203	0.180971
815.940605	0.180944
816.130988	0.180726
816.321353	0.180806
816.511700	0.181000
816.702028	0.181138
816.892339	0.181061
817.082631	0.181121
817.272905	0.181710
817.463161	0.181670
817.653398	0.181868
817.843617	0.182055
818.033819	0.182115
818.224001	0.182188
818.414166	0.182602
818.604312	0.182788
818.794440	0.182934
818.984550	0.182858
819.174642	0.183080
819.364716	0.183524
819.554771	0.183923
819.744808	0.184206
819.934827	0.184688
820.124827	0.184921
820.314810	0.185174
820.504774	0.185360
820.694720	0.185375
820.884647	0.185362
821.074557	0.185704
821.264448	0.185645
821.454321	0.185730
821.644176	0.185591
821.834012	0.185995
822.023831	0.186114
822.213631	0.186217
822.403413	0.186597
822.593176	0.187081
822.782922	0.186971
822.972649	0.187361
823.162358	0.187634
823.352049	0.188019
823.541721	0.187864
823.731376	0.188092
823.921012	0.188238
824.110629	0.188476
824.300229	0.188396
824.489811	0.188681
824.679374	0.188911
824.868919	0.189073
825.058445	0.189193
825.247954	0.189433
825.437444	0.189636
825.626916	0.190059
825.816370	0.190416
826.005806	0.190746
826.195223	0.190987
826.384622	0.191270
826.574003	0.191616
826.763366	0.191835
826.952711	0.191981
827.142037	0.192385
827.331345	0.192479
827.520635	0.192842
827.709906	0.193218
827.899160	0.193502
828.088395	0.193714
828.277612	0.194082
828.466810	0.194379
828.655991	0.194682
828.845153	0.194905
829.034297	0.195078
829.223423	0.194813
829.412531	0.194901
829.601620	0.195031
829.790691	0.195288
829.979744	0.195407
830.168779	0.195509
830.357795	0.195844
830.546793	0.196195
830.735773	0.196517
830.924735	0.197046
831.113679	0.197296
831.302604	0.197513
831.491511	0.197662
831.680400	0.197767
831.869271	0.198212
832.058123	0.198307
832.246957	0.198327
832.435773	0.198524
832.624571	0.198419
832.813351	0.198437
833.002112	0.198710
833.190855	0.198934
833.379580	0.199224
833.568287	0.199366
833.756975	0.199620
833.945645	0.200087
834.134297	0.200245
834.322931	0.200579
834.511547	0.201140
834.700144	0.201195
834.888723	0.201387
835.077284	0.201622
835.265826	0.201734
835.454351	0.202117
835.642857	0.202126
835.831345	0.202496
836.019815	0.202970
836.208266	0.203054
836.396699	0.203450
836.585114	0.203769
836.773511	0.204399
836.961890	0.204632
837.150250	0.204752
837.338592	0.205093
837.526916	0.205293
837.715222	0.205566
837.903510	0.205598
838.091779	0.205912
838.280030	0.206005
838.468263	0.205960
838.656477	0.206519
838.844674	0.207009
839.032852	0.207355
839.221012	0.207742
839.409153	0.207744
839.597277	0.208309
839.785382	0.208476
839.973469	0.208758
840.161538	0.208962
840.349589	0.209401
840.537621	0.209682
840.725635	0.210026
840.913631	0.210358
841.101609	0.211133
841.289568	0.211540
841.477509	0.212186
841.665432	0.212773
841.853337	0.213198
842.041224	0.213418
842.229092	0.213583
842.416942	0.213780
842.604774	0.214105
842.792588	0.214313
842.980383	0.214636
843.168160	0.214846
843.355919	0.214962
843.543660	0.215170
843.731382	0.215256
843.919087	0.215685
844.106773	0.215839
844.294441	0.215964
844.482090	0.216004
844.669722	0.216173
844.857335	0.216117
845.044930	0.216658
845.232507	0.217206
845.420065	0.217576
845.607605	0.217451
845.795127	0.217570
845.982631	0.217695
846.170117	0.217813
846.357584	0.217766
846.545033	0.218383
846.732464	0.218423
846.919877	0.218580
847.107272	0.218856
847.294648	0.219310
847.482006	0.219918
847.669346	0.220699
847.856667	0.220882
848.043971	0.221379
848.231256	0.221625
848.418523	0.221809
848.605771	0.222098
848.793002	0.222004
848.980214	0.222386
849.167408	0.222460
849.354584	0.222497
849.541742	0.223072
849.728881	0.223608
849.916002	0.223720
850.103105	0.224217
850.290190	0.223990
850.477256	0.224591
850.664304	0.224773
850.851334	0.225190
851.038346	0.225170
851.225340	0.225723
851.412315	0.225614
851.599272	0.225909
851.786211	0.225933
851.973132	0.226529
852.160034	0.226529
852.346918	0.226769
852.533784	0.227236
852.720632	0.227763
852.907462	0.227948
853.094273	0.228471
853.281066	0.228603
853.467841	0.229111
853.654598	0.229122
853.841336	0.229633
854.028056	0.230020
854.214758	0.229859
854.401442	0.230055
854.588107	0.230176
854.774755	0.230250
854.961384	0.230667
855.147995	0.230919
855.334587	0.231300
855.521162	0.231708
855.707718	0.232012
855.894256	0.232501
856.080775	0.232805
856.267277	0.232864
856.453760	0.233389
856.640225	0.233653
856.826672	0.234041
857.013101	0.234425
857.199511	0.234474
857.385903	0.234758
857.572277	0.235345
857.758633	0.235683
857.944970	0.236171
858.131290	0.236265
858.317591	0.236432
858.503873	0.236640
858.690138	0.236876
858.876384	0.237099
859.062612	0.237301
859.248822	0.237323
859.435014	0.237508
859.621188	0.238108
859.807343	0.238514
859.993480	0.238765
860.179599	0.238880
860.365699	0.239278
860.551781	0.239584
860.737846	0.239599
860.923891	0.239701
861.109919	0.239859
861.295929	0.239603
861.481920	0.239755
861.667893	0.240104
861.853848	0.240146
862.039784	0.239994
862.225702	0.240515
862.411603	0.240775
862.597484	0.241044
862.783348	0.241258
862.969193	0.241368
863.155021	0.241528
863.340830	0.241655
863.526620	0.242086
863.712393	0.242237
863.898147	0.241728
864.083883	0.242217
864.269601	0.242469
864.455301	0.242727
864.640982	0.243074
864.826645	0.243295
865.012290	0.243438
865.197917	0.243787
865.383526	0.244200
865.569116	0.244998
865.754688	0.244997
865.940242	0.244821
866.125777	0.244635
866.311295	0.244877
866.496794	0.245027
866.682275	0.245708
866.867737	0.245637
867.053182	0.245902
867.238608	0.245629
867.424016	0.245850
867.609406	0.246525
867.794778	0.246915
867.980131	0.247189
868.165466	0.247519
868.350783	0.247187
868.536082	0.247327
868.721362	0.247665
868.906625	0.248232
869.091869	0.248253
869.277094	0.248363
869.462302	0.249018
869.647491	0.248942
869.832662	0.249150
870.017815	0.249335
870.202950	0.249446
870.388066	0.249519
870.573165	0.249396
870.758245	0.249995
870.943306	0.249925
871.128350	0.249655
871.313375	0.250087
871.498382	0.250204
871.683371	0.250558
871.868342	0.250716
872.053294	0.251115
872.238229	0.251268
872.423144	0.251604
872.608042	0.251714
872.792922	0.252148
872.977783	0.252601
873.162626	0.253030
873.347451	0.253358
873.532258	0.253953
873.717046	0.253973
873.901816	0.254603
874.086568	0.254531
874.271302	0.254802
874.456017	0.254816
874.640715	0.254426
874.825394	0.253928
875.010055	0.253879
875.194697	0.253962
875.379322	0.254155
875.563928	0.254249
875.748516	0.254511
875.933085	0.255042
876.117637	0.255421
876.302170	0.255675
876.486685	0.256313
876.671182	0.256801
876.855661	0.256661
877.040121	0.256830
877.224563	0.256855
877.408987	0.256826
877.593393	0.256825
877.777780	0.256713
877.962150	0.257269
878.146501	0.257232
878.330833	0.257587
878.515148	0.257927
878.699444	0.258022
878.883722	0.258266
879.067982	0.258319
879.252224	0.258453
879.436447	0.258603
879.620653	0.258861
879.804840	0.259444
879.989008	0.259348
880.173159	0.259592
880.357291	0.259817
880.541405	0.259982
880.725501	0.260298
880.909579	0.260855
881.093638	0.261378
881.277680	0.261105
881.461703	0.260810
881.645707	0.260683
881.829694	0.260726
882.013662	0.260790
882.197612	0.260620
882.381544	0.260699
882.565458	0.260475
882.749353	0.260386
882.933230	0.260645
883.117089	0.260991
883.300930	0.261002
883.484753	0.261136
883.668557	0.260914
883.852343	0.260827
884.036111	0.260831
884.219861	0.260652
884.403592	0.260803
884.587305	0.260612
884.771000	0.260411
884.954677	0.260265
885.138335	0.260021
885.321976	0.260294
885.505598	0.260437
885.689201	0.260502
885.872787	0.260584
886.056354	0.260267
886.239904	0.260231
886.423434	0.260593
886.606947	0.260901
886.790442	0.260821
886.973918	0.261026
887.157376	0.261543
887.340816	0.261361
887.524237	0.261580
887.707641	0.261942
887.891026	0.262302
888.074393	0.262053
888.257741	0.262072
888.441072	0.262322
888.624384	0.262214
888.807678	0.261808
888.990954	0.261711
889.174211	0.261645
889.357451	0.261373
889.540672	0.261365
889.723875	0.261676
889.907059	0.261357
890.090226	0.261598
890.273374	0.261500
890.456504	0.261416
890.639616	0.261961
890.822709	0.261615
891.005785	0.261732
891.188842	0.261453
891.371881	0.261342
891.554901	0.261916
891.737904	0.261946
891.920888	0.261904
892.103854	0.262360
892.286802	0.262588
892.469731	0.262879
892.652643	0.263221
892.835536	0.263622
893.018410	0.263589
893.201267	0.263642
893.384106	0.263280
893.566926	0.263214
893.749728	0.263005
893.932511	0.262915
894.115277	0.262613
894.298024	0.262472
894.480753	0.262402
894.663464	0.262295
894.846157	0.262002
895.028831	0.262199
895.211487	0.262536
895.394125	0.262390
895.576745	0.261696
895.759346	0.262037
895.941930	0.261876
896.124495	0.261557
896.307041	0.261581
896.489570	0.261515
896.672080	0.261199
896.854573	0.261075
897.037046	0.261102
897.219502	0.261447
897.401940	0.261073
897.584359	0.261167
897.766760	0.261043
897.949143	0.260809
898.131507	0.260421
898.313854	0.260640
898.496182	0.260239
898.678492	0.259868
898.860783	0.259625
899.043057	0.259780
899.225312	0.259256
899.407549	0.259222
899.589768	0.258968
899.771968	0.258920
899.954151	0.258631
900.136315	0.258363
900.318461	0.258483
900.500588	0.258281
900.682698	0.258101
900.864789	0.258270
901.046862	0.258054
901.228917	0.258096
901.410953	0.257511
901.592971	0.257246
901.774972	0.257495
901.956953	0.256879
902.138917	0.256692
902.320862	0.256318
902.502790	0.255562
902.684699	0.255573
902.866589	0.255116
903.048462	0.255439
903.230316	0.255379
903.412152	0.254767
903.593970	0.254626
903.775770	0.254753
903.957551	0.254404
904.139314	0.254505
904.321059	0.254340
904.502786	0.254397
904.684494	0.253849
904.866185	0.253437
905.047857	0.253010
905.229510	0.252872
905.411146	0.252315
905.592763	0.252381
905.774363	0.252068
905.955943	0.251451
906.137506	0.250413
906.319051	0.250109
906.500577	0.249621
906.682085	0.249669
906.863575	0.249919
907.045046	0.249519
907.226500	0.249105
907.407935	0.249009
907.589352	0.248841
907.770750	0.248938
907.952131	0.248734
908.133493	0.248535
908.314837	0.248223
908.496163	0.248247
908.677470	0.248349
908.858760	0.248547
909.040031	0.248668
909.221284	0.248488
909.402518	0.248714
909.583735	0.248982
909.764933	0.248719
909.946113	0.248522
910.127275	0.248014
910.308418	0.247881
910.489544	0.247115
910.670651	0.246773
910.851740	0.246471
911.032810	0.246313
911.213863	0.245678
911.394897	0.245361
911.575913	0.245449
911.756911	0.244990
911.937890	0.243867
912.118851	0.243800
912.299794	0.243040
912.480719	0.242888
912.661626	0.242359
912.842514	0.242323
913.023384	0.242621
913.204236	0.241854
913.385070	0.241424
913.565886	0.241974
913.746683	0.241630
913.927462	0.241506
914.108223	0.240821
914.288965	0.240610
914.469690	0.240156
914.650396	0.239241
914.831084	0.238773
915.011754	0.238527
915.192405	0.237656
915.373038	0.237097
915.553653	0.236048
915.734250	0.235775
915.914829	0.235194
916.095389	0.234342
916.275931	0.234404
916.456455	0.234365
916.636961	0.233751
916.817448	0.232969
916.997917	0.232496
917.178368	0.232889
917.358801	0.232831
917.539216	0.232610
917.719612	0.232499
917.899990	0.231624
918.080350	0.231157
918.260692	0.230310
918.441015	0.230596
918.621320	0.230176
918.801607	0.229374
918.981876	0.229102
919.162127	0.228485
919.342359	0.227964
919.522573	0.227656
919.702769	0.227327
919.882947	0.227365
920.063106	0.227079
920.243247	0.226317
920.423370	0.226419
920.603475	0.225240
920.783562	0.224767
920.963630	0.224234
921.143680	0.223872
921.323712	0.223609
921.503725	0.222726
921.683721	0.221783
921.863698	0.221807
922.043657	0.220854
922.223598	0.220658
922.403520	0.220418
922.583424	0.220022
922.763311	0.219093
922.943178	0.218349
923.123028	0.218664
923.302859	0.217875
923.482673	0.217594
923.662467	0.217140
923.842244	0.216580
924.022003	0.216069
924.201743	0.216133
924.381465	0.215931
924.561169	0.214751
924.740854	0.214029
924.920522	0.213847
925.100171	0.213105
925.279802	0.212607
925.459414	0.212613
925.639009	0.211987
925.818585	0.211055
925.998143	0.210520
926.177683	0.210324
926.357205	0.209729
926.536708	0.209160
926.716193	0.208249
926.895660	0.208098
927.075109	0.207215
927.254539	0.206068
927.433951	0.205515
927.613345	0.204788
927.792721	0.204363
927.972079	0.203735
928.151418	0.203162
928.330739	0.203090
928.510042	0.202082
928.689327	0.201332
928.868593	0.201436
929.047841	0.200672
929.227071	0.199987
929.406283	0.199517
929.585476	0.198703
929.764652	0.197878
929.943809	0.196603
930.122948	0.196036
930.302068	0.195387
930.481171	0.194055
930.660255	0.193901
930.839321	0.193695
931.018369	0.192699
931.197398	0.192697
931.376409	0.192268
931.555402	0.192436
931.734377	0.191864
931.913334	0.190939
932.092272	0.190346
932.271192	0.189358
932.450094	0.189087
932.628978	0.189046
932.807844	0.188023
932.986691	0.187234
933.165520	0.186069
933.344331	0.185365
933.523123	0.184701
933.701898	0.184828
933.880654	0.184271
934.059392	0.182877
934.238111	0.182008
934.416813	0.180947
934.595496	0.180141
934.774161	0.178893
934.952808	0.178630
935.131437	0.178443
935.310047	0.177370
935.488639	0.175748
935.667213	0.176359
935.845769	0.175020
936.024306	0.174857
936.202825	0.175263
936.381326	0.175339
936.559809	0.174129
936.738274	0.173271
936.916720	0.172824
937.095148	0.172787
937.273558	0.171738
937.451950	0.172077
937.630323	0.171224
937.808678	0.169379
937.987015	0.168721
938.165334	0.168403
938.343635	0.167664
938.521917	0.166150
938.700181	0.165751
938.878427	0.164636
939.056655	0.163343
939.234864	0.162873
939.413055	0.162946
939.591228	0.161838
939.769383	0.160504
939.947519	0.160384
940.125638	0.160406
940.303738	0.160006
940.481820	0.159363
940.659883	0.158946
940.837929	0.157860
941.015956	0.156992
941.193965	0.157111
941.371955	0.157114
941.549928	0.155210
941.727882	0.154680
941.905818	0.153199
942.083736	0.152340
942.261636	0.151502
942.439517	0.151531
942.617380	0.151250
942.795225	0.150813
942.973052	0.149432
943.150860	0.149526
943.328651	0.148017
943.506423	0.148536
943.684176	0.147962
943.861912	0.147502
944.039629	0.145600
944.217328	0.144357
944.395009	0.142548
944.572672	0.141869
944.750317	0.141602
944.927943	0.141388
945.105551	0.140644
945.283141	0.139137
945.460712	0.138877
945.638265	0.138980
945.815801	0.138140
945.993317	0.138093
946.170816	0.138440
946.348297	0.137298
946.525759	0.136526
946.703203	0.134564
946.880629	0.134859
947.058036	0.133403
947.235425	0.132517
947.412797	0.132198
947.590149	0.132123
947.767484	0.131326
947.944800	0.131476
948.122099	0.131215
948.299379	0.133351
948.476640	0.132448
948.653884	0.132485
948.831109	0.132543
949.008316	0.131189
949.185505	0.130766
949.362676	0.131190
949.539828	0.129874
949.716962	0.129647
949.894078	0.126751
950.071176	0.126975
950.248256	0.126810
950.425317	0.126361
950.602360	0.125857
950.779385	0.123609
950.956391	0.121705
951.133380	0.121038
951.310350	0.120293
951.487302	0.120097
951.664235	0.119216
951.841151	0.118805
952.018048	0.117065
952.194927	0.117899
952.371788	0.119601
952.548631	0.118608
952.725455	0.117196
952.902261	0.116351
953.079049	0.115264
953.255819	0.114602
953.432570	0.113634
953.609303	0.113916
953.786018	0.113645
953.962715	0.111982
954.139394	0.111570
954.316054	0.112614
954.492696	0.111897
954.669320	0.113478
954.845926	0.113136
955.022513	0.111840
955.199083	0.111032
955.375634	0.109003
955.552166	0.109947
955.728681	0.109632
955.905177	0.107244
956.081655	0.107321
956.258115	0.105554
956.434557	0.105071
956.610980	0.105068
956.787385	0.103859
956.963772	0.103810
957.140141	0.100610
957.316492	0.100525
957.492824	0.103463
957.669138	0.104147
957.845434	0.104234
958.021712	0.105745
958.197971	0.107346
958.374212	0.107015
958.550435	0.107073
958.726640	0.107305
958.902826	0.106630
959.078995	0.104853
959.255145	0.102453
959.431277	0.101447
959.607390	0.098647
959.783486	0.096159
959.959563	0.098046
960.135622	0.098296
960.311662	0.098052
960.487685	0.099103
960.663689	0.099315
960.839675	0.099462
961.015643	0.099874
961.191593	0.101895
961.367524	0.101889
961.543437	0.100780
961.719332	0.100154
961.895209	0.101447
962.071067	0.101190
962.246907	0.100103
962.422730	0.101849
962.598533	0.101061
962.774319	0.100154
962.950086	0.098707
963.125835	0.099082
963.301566	0.100783
963.477279	0.099450
963.652973	0.098044
963.828650	0.099149
964.004308	0.097474
964.179947	0.096573
964.355569	0.097658
964.531172	0.100284
964.706757	0.099265
964.882324	0.096475
965.057873	0.097440
965.233403	0.097665
965.408916	0.098119
965.584410	0.100289
965.759885	0.101793
965.935343	0.101690
966.110782	0.100992
966.286203	0.103488
966.461606	0.102069
966.636991	0.103910
966.812357	0.104405
966.987705	0.103623
967.163035	0.101868
967.338347	0.104172
967.513641	0.102351
967.688916	0.102479
967.864173	0.100266
968.039412	0.104637
968.214632	0.103573
968.389835	0.104255
968.565019	0.105277
968.740185	0.105938
968.915333	0.101892
969.090462	0.102400
969.265573	0.102382
969.440667	0.103101
969.615741	0.101074
969.790798	0.099407
969.965836	0.098197
970.140856	0.096498
970.315858	0.098427
970.490842	0.101295
970.665808	0.101580
970.840755	0.101812
971.015684	0.100499
971.190595	0.100680
971.365487	0.101829
971.540362	0.101843
971.715218	0.101886
971.890056	0.101168
972.064875	0.099576
972.239677	0.099036
972.414460	0.099287
972.589225	0.099316
972.763972	0.100061
972.938700	0.098798
973.113411	0.098441
973.288103	0.098740
973.462777	0.098394
973.637432	0.101027
973.812070	0.101545
973.986689	0.099112
974.161290	0.098661
974.335873	0.098869
974.510437	0.099505
974.684984	0.100993
974.859512	0.099163
975.034022	0.098594
975.208513	0.095620
975.382987	0.095133
975.557442	0.095032
975.731879	0.097748
975.906298	0.095704
976.080698	0.095776
976.255080	0.094485
976.429445	0.094830
976.603790	0.094823
976.778118	0.097169
976.952427	0.096294
977.126719	0.095558
977.300992	0.093418
977.475246	0.095108
977.649483	0.095702
977.823701	0.096997
977.997901	0.097918
978.172083	0.097161
978.346247	0.097161
978.520392	0.100031
978.694519	0.102069
978.868628	0.103565
979.042719	0.104272
979.216791	0.103265
979.390845	0.102456
979.564882	0.101127
979.738899	0.103818
979.912899	0.103016
980.086880	0.100835
980.260843	0.101413
980.434788	0.103036
980.608715	0.100316
980.782623	0.101624
980.956514	0.103243
981.130386	0.104119
981.304240	0.102591
981.478075	0.103694
981.651892	0.104550
981.825692	0.102362
981.999472	0.102502
982.173235	0.101972
982.346980	0.102272
982.520706	0.100195
982.694414	0.101598
982.868104	0.101786
983.041775	0.100929
983.215428	0.100171
983.389064	0.100535
983.562680	0.099076
983.736279	0.102086
983.909860	0.101477
984.083422	0.103317
984.256966	0.101085
984.430491	0.102086
984.603999	0.101026
984.777488	0.102258
984.950959	0.102601
985.124412	0.101719
985.297847	0.100621
985.471263	0.100407
985.644661	0.099000
985.818041	0.100956
985.991403	0.098751
986.164747	0.099343
986.338072	0.098882
986.511379	0.100429
986.684668	0.100471
986.857938	0.098993
987.031191	0.098321
987.204425	0.098496
987.377641	0.097406
987.550839	0.098359
987.724018	0.098785
987.897179	0.096213
988.070322	0.097009
988.243447	0.096998
988.416554	0.099457
988.589642	0.101252
988.762712	0.101791
988.935764	0.099484
989.108798	0.100181
989.281813	0.099368
989.454811	0.099981
989.627790	0.098615
989.800751	0.098805
989.973693	0.097712
990.146617	0.097589
990.319524	0.097816
990.492412	0.100068
990.665281	0.098677
990.838133	0.098515
991.010966	0.099098
991.183781	0.099248
991.356578	0.096921
991.529356	0.096429
991.702117	0.096725
991.874859	0.097344
992.047583	0.098260
992.220288	0.097935
992.392976	0.099077
992.565645	0.100724
992.738296	0.100378
992.910929	0.103121
993.083543	0.103210
993.256139	0.101351
993.428718	0.099773
993.601277	0.100310
993.773819	0.101138
993.946342	0.100670
994.118848	0.099912
994.291335	0.099955
994.463803	0.100452
994.636254	0.099676
994.808686	0.100432
994.981100	0.100115
995.153496	0.099776
995.325874	0.098345
995.498233	0.098481
995.670574	0.097248
995.842897	0.098433
996.015202	0.097966
996.187488	0.099716
996.359757	0.101711
996.532007	0.103844
996.704239	0.102585
996.876452	0.104130
997.048648	0.103191
997.220825	0.104707
997.392984	0.103842
997.565124	0.103780
997.737247	0.102454
997.909351	0.100638
998.081437	0.100282
998.253505	0.101937
998.425554	0.102367
998.597586	0.102858
998.769599	0.102956
998.941594	0.101589
999.113571	0.100889
999.285529	0.102591
999.457469	0.101158
999.629391	0.101001
999.801295	0.100378
999.973181	0.099931
1000.145048	0.099459
1000.316897	0.099563
1000.488728	0.098800
1000.660541	0.100404
1000.832335	0.100074
1001.004111	0.100441
1001.175869	0.098518
1001.347609	0.098149
1001.519331	0.096493
1001.691034	0.096656
1001.862719	0.097240
1002.034386	0.098572
1002.206035	0.095735
1002.377665	0.094299
1002.549277	0.094326
1002.720871	0.095747
1002.892447	0.095756
1003.064004	0.096963
1003.235544	0.096725
1003.407065	0.095783
1003.578568	0.096336
1003.750052	0.097167
1003.921519	0.099405
1004.092967	0.100977
1004.264397	0.101607
1004.435809	0.102330
1004.607202	0.101573
1004.778577	0.102411
1004.949934	0.101677
1005.121273	0.101001
1005.292594	0.101266
1005.463896	0.100655
1005.635180	0.099526
1005.806446	0.098913
1005.977694	0.097499
1006.148923	0.096970
1006.320135	0.095899
1006.491328	0.096909
1006.662503	0.096806
1006.833659	0.098252
1007.004798	0.096421
1007.175918	0.096598
1007.347020	0.096668
1007.518103	0.098050
1007.689169	0.099168
1007.860216	0.098552
1008.031245	0.098386
1008.202256	0.099202
1008.373248	0.098944
1008.544223	0.100151
1008.715179	0.100463
1008.886117	0.101030
1009.057036	0.100019
1009.227938	0.100334
1009.398821	0.101138
1009.569686	0.101665
1009.740533	0.101658
1009.911361	0.102327
1010.082172	0.103832
1010.252964	0.105004
1010.423738	0.104964
1010.594493	0.105505
1010.765231	0.103806
1010.935950	0.103441
1011.106651	0.101870
1011.277334	0.101445
1011.447998	0.100050
1011.618645	0.098575
1011.789273	0.098028
1011.959882	0.096836
1012.130474	0.095822
1012.301048	0.097694
1012.471603	0.099767
1012.642140	0.099522
1012.812658	0.099024
1012.983159	0.098813
1013.153641	0.098264
1013.324105	0.099371
1013.494551	0.098261
1013.664979	0.098003
1013.835388	0.099009
1014.005779	0.098077
1014.176152	0.099608
1014.346507	0.101231
1014.516843	0.102800
1014.687162	0.103384
1014.857462	0.100440
1015.027744	0.101421
1015.198007	0.103307
1015.368252	0.101895
1015.538480	0.100911
1015.708689	0.100326
1015.878879	0.099599
1016.049052	0.096770
1016.219206	0.096404
1016.389342	0.096523
1016.559460	0.097142
1016.729559	0.095692
1016.899641	0.094912
1017.069704	0.096133
1017.239749	0.095601
1017.409775	0.097084
1017.579784	0.097859
1017.749774	0.099134
1017.919746	0.098905
1018.089700	0.098551
1018.259635	0.098354
1018.429553	0.098069
1018.599452	0.097548
1018.769333	0.098831
1018.939195	0.097935
1019.109040	0.096857
1019.278866	0.096111
1019.448674	0.098138
1019.618464	0.098459
1019.788235	0.099575
1019.957989	0.100509
1020.127724	0.100008
1020.297441	0.098150
1020.467139	0.097262
1020.636820	0.097596
1020.806482	0.096970
1020.976126	0.095649
1021.145752	0.095335
1021.315359	0.096363
1021.484948	0.096045
1021.654519	0.094996
1021.824072	0.094120
1021.993607	0.093398
1022.163123	0.094755
1022.332621	0.095364
1022.502101	0.096589
1022.671563	0.095630
1022.841007	0.094159
1023.010432	0.094928
1023.179839	0.095673
1023.349228	0.097990
1023.518598	0.099063
1023.687951	0.099664
1023.857285	0.099728
1024.026601	0.098043
1024.195899	0.098529
1024.365178	0.098911
1024.534439	0.098004
1024.703682	0.098663
1024.872907	0.097138
1025.042114	0.096743
1025.211302	0.095736
1025.380472	0.094450
1025.549624	0.095631
1025.718758	0.096653
1025.887873	0.096066
1026.056970	0.095284
1026.226049	0.094218
1026.395110	0.096190
1026.564153	0.096172
1026.733177	0.097799
1026.902183	0.100114
1027.071171	0.100340
1027.240141	0.100279
1027.409092	0.101362
1027.578026	0.102272
1027.746940	0.103413
1027.915837	0.102410
1028.084716	0.103218
1028.253576	0.102352
1028.422418	0.101437
1028.591242	0.101657
1028.760048	0.102405
1028.928835	0.101680
1029.097604	0.100976
1029.266355	0.100536
1029.435088	0.101868
1029.603803	0.101835
1029.772499	0.102911
1029.941177	0.101021
1030.109837	0.100479
1030.278478	0.099856
1030.447102	0.100169
1030.615707	0.101357
1030.784294	0.102074
1030.952863	0.099068
1031.121413	0.098522
1031.289945	0.097939
1031.458460	0.097709
1031.626955	0.098986
1031.795433	0.096856
1031.963892	0.096415
1032.132334	0.096886
1032.300756	0.096307
1032.469161	0.097218
1032.637548	0.096234
1032.805916	0.094220
1032.974266	0.096822
1033.142598	0.095594
1033.310911	0.096666
1033.479207	0.096057
1033.647484	0.095833
1033.815743	0.096200
1033.983983	0.095679
1034.152206	0.096058
1034.320410	0.097554
1034.488596	0.096228
1034.656764	0.095232
1034.824914	0.094487
1034.993045	0.095668
1035.161158	0.095017
1035.329253	0.094129
1035.497330	0.095791
1035.665388	0.097738
1035.833428	0.097170
1036.001450	0.098360
1036.169454	0.100462
1036.337440	0.100509
1036.505407	0.101207
1036.673356	0.099595
1036.841287	0.100086
1037.009200	0.100112
1037.177094	0.098258
1037.344970	0.099523
1037.512828	0.099432
1037.680668	0.097682
1037.848489	0.096901
1038.016293	0.097120
1038.184078	0.099415
1038.351845	0.100959
1038.519593	0.100374
1038.687324	0.101053
1038.855036	0.099089
1039.022730	0.098483
1039.190406	0.098088
1039.358063	0.100679
1039.525702	0.099224
1039.693323	0.097938
1039.860926	0.097075
1040.028511	0.097419
1040.196077	0.097414
1040.363625	0.098068
1040.531155	0.097263
1040.698667	0.097599
1040.866161	0.097859
1041.033636	0.098780
1041.201093	0.100606
1041.368532	0.099929
1041.535952	0.099844
1041.703355	0.098866
1041.870739	0.098348
1042.038105	0.098571
1042.205452	0.098970
1042.372782	0.097477
1042.540093	0.096061
1042.707386	0.095111
1042.874661	0.095849
1043.041918	0.096719
1043.209156	0.097956
1043.376376	0.097410
1043.543578	0.096931
1043.710762	0.098772
1043.877927	0.098923
1044.045074	0.096594
1044.212203	0.095965
1044.379314	0.095439
1044.546407	0.095292
1044.713481	0.094620
1044.880537	0.095330
1045.047575	0.095905
1045.214595	0.094732
1045.381596	0.094595
1045.548579	0.097156
1045.715544	0.099774
1045.882491	0.101209
1046.049420	0.101634
1046.216330	0.101991
1046.383222	0.103268
1046.550096	0.103295
1046.716951	0.102828
1046.883789	0.103072
1047.050608	0.103250
1047.217409	0.099571
1047.384192	0.098046
1047.550956	0.096206
1047.717703	0.096053
1047.884431	0.094979
1048.051140	0.093409
1048.217832	0.094147
1048.384505	0.094393
1048.551161	0.092488
1048.717798	0.094725
1048.884416	0.093999
1049.051017	0.093140
1049.217599	0.093786
1049.384163	0.092658
1049.550709	0.095791
1049.717237	0.093340
1049.883746	0.093165
1050.050237	0.093972
1050.216710	0.093393
1050.383165	0.092773
1050.549601	0.092532
1050.716019	0.091080
1050.882420	0.091384
1051.048801	0.089205
1051.215165	0.090616
1051.381510	0.090956
1051.547837	0.091882
1051.714146	0.092597
1051.880437	0.093957
1052.046709	0.093990
1052.212964	0.094860
1052.379200	0.094800
1052.545417	0.096564
1052.711617	0.096054
1052.877798	0.094422
1053.043961	0.093964
1053.210106	0.092972
1053.376233	0.093099
1053.542341	0.094338
1053.708432	0.095587
1053.874504	0.095715
1054.040557	0.094877
1054.206593	0.095073
1054.372610	0.095806
1054.538609	0.096471
1054.704590	0.096622
1054.870553	0.096589
1055.036497	0.095672
1055.202424	0.092116
1055.368331	0.094235
1055.534221	0.094699
1055.700093	0.096766
1055.865946	0.097228
1056.031781	0.098510
1056.197598	0.098546
1056.363397	0.098470
1056.529177	0.098987
1056.694939	0.102680
1056.860683	0.100634
1057.026409	0.099202
1057.192116	0.096811
1057.357806	0.094400
1057.523477	0.093488
1057.689130	0.092529
1057.854764	0.093346
1058.020381	0.092226
1058.185979	0.091154
1058.351559	0.091092
1058.517120	0.092749
1058.682664	0.095582
1058.848189	0.098301
1059.013696	0.097122
1059.179185	0.095997
1059.344656	0.093979
1059.510108	0.095332
1059.675542	0.095216
1059.840958	0.094769
1060.006356	0.094454
1060.171735	0.092374
1060.337096	0.092157
1060.502439	0.092066
1060.667764	0.096426
1060.833071	0.097554
1060.998359	0.097506
1061.163629	0.096940
1061.328881	0.099365
1061.494115	0.098783
1061.659330	0.099106
1061.824527	0.099261
1061.989706	0.097250
1062.154867	0.094251
1062.320010	0.093266
1062.485134	0.092791
1062.650240	0.093713
1062.815328	0.092367
1062.980398	0.091201
1063.145449	0.089015
1063.310482	0.088124
1063.475497	0.091248
1063.640494	0.092722
1063.805473	0.093289
1063.970433	0.093647
1064.135375	0.091217
1064.300299	0.092054
1064.465204	0.092202
1064.630092	0.093529
1064.794961	0.093201
1064.959812	0.092011
1065.124645	0.091026
1065.289459	0.090664
1065.454256	0.092228
1065.619034	0.093185
1065.783793	0.093512
1065.948535	0.093993
1066.113258	0.093811
1066.277964	0.093442
1066.442651	0.092648
1066.607319	0.093225
1066.771970	0.096421
1066.936602	0.094599
1067.101216	0.096400
1067.265812	0.094033
1067.430389	0.095105
1067.594949	0.095468
1067.759490	0.094529
1067.924013	0.094026
1068.088518	0.095037
1068.253004	0.093433
1068.417472	0.095388
1068.581922	0.094962
1068.746354	0.095632
1068.910768	0.096482
1069.075163	0.097442
1069.239540	0.097683
1069.403899	0.096389
1069.568240	0.093779
1069.732562	0.091060
1069.896866	0.088985
1070.061152	0.088533
1070.225420	0.088778
1070.389670	0.088518
1070.553901	0.085851
1070.718114	0.087777
1070.882309	0.090377
1071.046486	0.091702
1071.210644	0.091429
1071.374784	0.091316
1071.538906	0.090628
1071.703010	0.088612
1071.867096	0.086116
1072.031163	0.088455
1072.195212	0.087398
1072.359243	0.088489
1072.523256	0.086280
1072.687250	0.086763
1072.851226	0.087787
1073.015184	0.087378
1073.179124	0.089051
1073.343045	0.091322
1073.506949	0.090446
1073.670834	0.091585
1073.834701	0.093435
1073.998549	0.095641
1074.162380	0.096978
1074.326192	0.097367
1074.489986	0.098423
1074.653761	0.099721
1074.817519	0.100272
1074.981258	0.100468
1075.144979	0.098936
1075.308682	0.097178
1075.472367	0.097543
1075.636033	0.096576
1075.799681	0.095038
1075.963311	0.094326
1076.126923	0.093758
1076.290516	0.091765
1076.454092	0.091683
1076.617649	0.093858
1076.781187	0.093043
1076.944708	0.091372
1077.108210	0.094226
1077.271695	0.094591
1077.435160	0.096020
1077.598608	0.096814
1077.762038	0.096349
1077.925449	0.095403
1078.088842	0.093813
1078.252217	0.094887
1078.415573	0.094178
1078.578912	0.093303
1078.742232	0.095048
1078.905534	0.093500
1079.068817	0.095788
1079.232083	0.095953
1079.395330	0.099257
1079.558559	0.100275
1079.721770	0.098546
1079.884962	0.100650
1080.048136	0.101263
1080.211293	0.101295
1080.374430	0.103011
1080.537550	0.100196
1080.700651	0.101530
1080.863735	0.096664
1081.026800	0.095153
1081.189846	0.095897
1081.352875	0.092979
1081.515885	0.092102
1081.678877	0.089797
1081.841851	0.086309
1082.004807	0.084009
1082.167744	0.084058
1082.330663	0.086965
1082.493564	0.087514
1082.656447	0.087339
1082.819312	0.088815
1082.982158	0.086981
1083.144986	0.089287
1083.307796	0.091490
1083.470587	0.094165
1083.633361	0.093820
1083.796116	0.093031
1083.958853	0.092977
1084.121571	0.094438
1084.284272	0.093603
1084.446954	0.095283
1084.609618	0.093650
1084.772264	0.095067
1084.934892	0.093237
1085.097501	0.091880
1085.260092	0.090840
1085.422665	0.092419
1085.585220	0.091729
1085.747756	0.091696
1085.910274	0.091602
1086.072774	0.090500
1086.235256	0.090285
1086.397720	0.092291
1086.560165	0.090634
1086.722592	0.091566
1086.885001	0.089219
1087.047392	0.090361
1087.209764	0.093528
1087.372119	0.093319
1087.534455	0.093778
1087.696772	0.092656
1087.859072	0.094503
1088.021353	0.095697
1088.183616	0.096823
1088.345861	0.098176
1088.508088	0.096154
1088.670296	0.096796
1088.832486	0.096509
1088.994658	0.098258
1089.156812	0.095678
1089.318948	0.091973
1089.481065	0.092088
1089.643164	0.089525
1089.805245	0.088551
1089.967308	0.088194
1090.129352	0.086773
1090.291378	0.086328
1090.453386	0.083140
1090.615376	0.086692
1090.777347	0.084710
1090.939301	0.085422
1091.101236	0.085069
1091.263153	0.082406
1091.425051	0.084177
1091.586932	0.083280
1091.748794	0.082841
1091.910638	0.083403
1092.072463	0.081404
1092.234271	0.084237
1092.396060	0.083419
1092.557831	0.086919
1092.719584	0.089951
1092.881319	0.086973
1093.043035	0.086094
1093.204733	0.084813
1093.366413	0.087347
1093.528075	0.087004
1093.689718	0.085752
1093.851343	0.086142
1094.012950	0.082800
1094.174539	0.080262
1094.336110	0.080931
1094.497662	0.081312
1094.659196	0.083642
1094.820712	0.083294
1094.982210	0.084873
1095.143689	0.084062
1095.305151	0.085394
1095.466594	0.086990
1095.628018	0.087560
1095.789425	0.085120
1095.950813	0.082167
1096.112183	0.079065
1096.273535	0.076950
1096.434869	0.077009
1096.596184	0.078264
1096.757482	0.077588
1096.918761	0.077097
1097.080021	0.078520
1097.241264	0.078933
1097.402488	0.080835
1097.563694	0.084525
1097.724882	0.082969
1097.886052	0.079724
1098.047203	0.078009
1098.208336	0.076109
1098.369451	0.075268
1098.530548	0.073626
1098.691627	0.073809
1098.852687	0.075175
1099.013729	0.075442
1099.174753	0.077192
1099.335758	0.079742
1099.496746	0.080825
1099.657715	0.084471
1099.818666	0.087358
1099.979599	0.088216
1100.140513	0.090224
1100.301409	0.088435
1100.462287	0.084878
1100.623147	0.087080
1100.783989	0.089158
1100.944812	0.086902
1101.105617	0.087182
1101.266404	0.087840
1101.427173	0.088652
1101.587923	0.088095
1101.748656	0.084870
1101.909370	0.087585
1102.070066	0.088414
1102.230743	0.084217
1102.391403	0.088563
1102.552044	0.082341
1102.712667	0.078605
1102.873271	0.079406
1103.033858	0.078592
1103.194426	0.082686
1103.354976	0.081358
1103.515508	0.080077
1103.676021	0.081796
1103.836517	0.077476
1103.996994	0.086056
1104.157453	0.086936
1104.317893	0.083002
1104.478316	0.085427
1104.638720	0.086725
1104.799106	0.086134
1104.959474	0.085602
1105.119823	0.087458
1105.280155	0.090714
1105.440468	0.084993
1105.600763	0.080658
1105.761039	0.082983
1105.921298	0.081074
1106.081538	0.078778
1106.241760	0.078940
1106.401964	0.076769
1106.562149	0.072856
1106.722316	0.070147
1106.882465	0.071876
1107.042596	0.075352
1107.202709	0.076904
1107.362803	0.077870
1107.522879	0.073789
1107.682937	0.072191
1107.842977	0.072475
1108.002999	0.076071
1108.163002	0.080379
1108.322987	0.078926
1108.482954	0.078839
1108.642902	0.078528
1108.802833	0.079633
1108.962745	0.085172
1109.122639	0.090385
1109.282515	0.093795
1109.442372	0.088851
1109.602211	0.086992
1109.762032	0.087958
1109.921835	0.089699
1110.081620	0.090483
1110.241386	0.089995
1110.401134	0.088578
1110.560864	0.085083
1110.720576	0.081853
1110.880269	0.087064
1111.039945	0.088288
1111.199602	0.089520
1111.359240	0.088705
1111.518861	0.087914
1111.678463	0.086122
1111.838047	0.088378
1111.997613	0.089822
1112.157161	0.093671
1112.316690	0.093531
1112.476202	0.094083
1112.635695	0.095524
1112.795169	0.096145
1112.954626	0.098104
1113.114064	0.094685
1113.273484	0.095677
1113.432886	0.093250
1113.592270	0.091763
1113.751635	0.089906
1113.910983	0.087530
1114.070312	0.081408
1114.229622	0.078991
1114.388915	0.073609
1114.548189	0.077810
1114.707445	0.075796
1114.866683	0.080020
1115.025903	0.080370
1115.185104	0.080345
1115.344287	0.077787
1115.503452	0.077990
1115.662599	0.075413
1115.821727	0.077795
1115.980838	0.080822
1116.139930	0.081826
1116.299004	0.079340
1116.458059	0.080830
1116.617097	0.080281
1116.776116	0.083656
1116.935117	0.086837
1117.094099	0.096192
1117.253064	0.096569
1117.412010	0.091959
1117.570938	0.088835
1117.729848	0.085757
1117.888740	0.081062
1118.047613	0.079062
1118.206468	0.075107
1118.365305	0.067127
1118.524124	0.062937
1118.682924	0.062940
1118.841707	0.064002
1119.000471	0.066294
1119.159216	0.071787
1119.317944	0.072738
1119.476653	0.074388
1119.635344	0.072823
1119.794017	0.082735
1119.952672	0.084035
1120.111308	0.084823
1120.269927	0.086353
1120.428527	0.081415
1120.587108	0.079634
1120.745672	0.081648
1120.904217	0.083602
1121.062744	0.086467
1121.221253	0.087710
1121.379744	0.084616
1121.538216	0.082102
1121.696671	0.080474
1121.855107	0.091127
1122.013524	0.089075
1122.171924	0.085962
1122.330305	0.084358
1122.488668	0.085720
1122.647013	0.082763
1122.805340	0.085917
1122.963648	0.089939
1123.121938	0.091891
1123.280210	0.090553
1123.438464	0.093089
1123.596700	0.088754
1123.754917	0.089455
1123.913116	0.095340
1124.071297	0.095167
1124.229459	0.099173
1124.387604	0.095808
1124.545730	0.094308
1124.703838	0.086759
1124.861928	0.086839
1125.019999	0.089747
1125.178052	0.090532
1125.336088	0.087594
1125.494104	0.083009
1125.652103	0.078653
1125.810083	0.081817
1125.968045	0.082018
1126.125989	0.082940
1126.283915	0.082316
1126.441823	0.082527
1126.599712	0.082538
1126.757583	0.081964
1126.915436	0.087025
1127.073270	0.086371
1127.231087	0.082961
1127.388885	0.082144
1127.546665	0.085701
1127.704426	0.087633
1127.862170	0.094137
1128.019895	0.089431
1128.177602	0.086869
1128.335291	0.081716
1128.492961	0.081134
1128.650614	0.084379
1128.808248	0.084685
1128.965864	0.082045
1129.123461	0.077833
1129.281041	0.071542
1129.438602	0.074139
1129.596145	0.078877
1129.753670	0.080431
1129.911176	0.075481
1130.068665	0.074302
1130.226135	0.071524
1130.383587	0.073555
1130.541020	0.070744
1130.698436	0.072421
1130.855833	0.070161
1131.013212	0.064942
1131.170573	0.065701
1131.327915	0.078219
1131.485239	0.076908
1131.642545	0.080206
1131.799833	0.074114
1131.957103	0.082026
1132.114354	0.085088
1132.271588	0.087073
1132.428803	0.087183
1132.585999	0.087367
1132.743178	0.079470
1132.900338	0.082663
1133.057480	0.080466
1133.214604	0.086241
1133.371710	0.078452
1133.528797	0.073457
1133.685866	0.072731
1133.842917	0.072864
1133.999950	0.071316
1134.156964	0.067896
1134.313960	0.068832
1134.470938	0.065457
1134.627898	0.067944
1134.784840	0.070761
1134.941763	0.078612
1135.098668	0.072258
1135.255555	0.071460
1135.412424	0.071161
1135.569274	0.072452
1135.726107	0.066895
1135.882921	0.069781
1136.039716	0.069197
1136.196494	0.065838
1136.353253	0.063649
1136.509995	0.071412
1136.666717	0.071011
1136.823422	0.067544
1136.980109	0.063770
1137.136777	0.067191
1137.293427	0.069052
1137.450059	0.059595
1137.606672	0.058097
1137.763267	0.055077
1137.919844	0.056966
1138.076403	0.057902
1138.232944	0.061258
1138.389466	0.063282
1138.545971	0.061857
1138.702457	0.064100
1138.858924	0.066259
1139.015374	0.072940
1139.171805	0.072365
1139.328218	0.069600
1139.484613	0.074439
1139.640990	0.081544
1139.797348	0.079700
1139.953688	0.078109
1140.110010	0.068966
1140.266314	0.068846
1140.422600	0.071013
1140.578867	0.065371
1140.735116	0.065654
1140.891347	0.062380
1141.047559	0.056819
1141.203754	0.061730
1141.359930	0.059933
1141.516088	0.062085
1141.672228	0.070293
1141.828349	0.063009
1141.984452	0.066132
1142.140537	0.067112
1142.296604	0.055860
1142.452653	0.056004
1142.608683	0.057351
1142.764695	0.058146
1142.920689	0.060627
1143.076665	0.061146
1143.232622	0.064025
1143.388562	0.065078
1143.544483	0.063571
1143.700385	0.073500
1143.856270	0.077432
1144.012136	0.069270
1144.167985	0.066268
1144.323814	0.063301
1144.479626	0.052087
1144.635420	0.053892
1144.791195	0.051563
1144.946952	0.050255
1145.102691	0.056023
1145.258411	0.052399
1145.414113	0.060704
1145.569798	0.061560
1145.725463	0.058077
1145.881111	0.065962
1146.036741	0.062072
1146.192352	0.063774
1146.347945	0.062532
1146.503519	0.053880
1146.659076	0.052080
1146.814614	0.050367
1146.970134	0.056947
1147.125636	0.063269
1147.281120	0.064614
1147.436585	0.067309
1147.592032	0.065134
1147.747461	0.067985
1147.902872	0.070480
1148.058265	0.069633
1148.213639	0.063759
1148.368995	0.058994
1148.524333	0.059537
1148.679653	0.056863
1148.834954	0.057471
1148.990237	0.063915
1149.145502	0.067260
1149.300749	0.072008
1149.455977	0.071862
1149.611188	0.080901
1149.766380	0.086271
1149.921553	0.089759
1150.076709	0.083897
1150.231846	0.083809
1150.386966	0.087877
1150.542066	0.075092
1150.697149	0.074143
1150.852214	0.083877
1151.007260	0.076675
1151.162288	0.072679
1151.317298	0.069664
1151.472289	0.065792
1151.627263	0.061999
1151.782218	0.062055
1151.937155	0.069977
1152.092073	0.062779
1152.246974	0.051069
1152.401856	0.052157
1152.556720	0.054013
1152.711566	0.053952
1152.866393	0.061870
1153.021203	0.065410
1153.175994	0.056525
1153.330767	0.056288
1153.485521	0.057834
1153.640258	0.061292
1153.794976	0.057876
1153.949676	0.063831
1154.104358	0.060618
1154.259021	0.058496
1154.413667	0.061799
1154.568294	0.060670
1154.722903	0.062240
1154.877493	0.063084
1155.032066	0.066799
1155.186620	0.075145
1155.341156	0.059993
1155.495674	0.062870
1155.650173	0.059518
1155.804654	0.052690
1155.959118	0.055340
1156.113562	0.052861
1156.267989	0.056822
1156.422397	0.056493
1156.576788	0.053966
1156.731160	0.057061
1156.885513	0.058239
1157.039849	0.070730
1157.194166	0.076247
1157.348465	0.071876
1157.502746	0.067510
1157.657009	0.060648
1157.811253	0.058323
1157.965479	0.059729
1158.119687	0.062085
1158.273877	0.066957
1158.428048	0.056093
1158.582201	0.053286
1158.736337	0.059488
1158.890453	0.068761
1159.044552	0.073285
1159.198632	0.067108
1159.352694	0.065926
1159.506738	0.059572
1159.660764	0.051849
1159.814771	0.062999
1159.968761	0.060897
1160.122732	0.057285
1160.276685	0.058605
1160.430619	0.057961
1160.584535	0.059087
1160.738434	0.050873
1160.892313	0.058701
1161.046175	0.057521
1161.200019	0.046189
1161.353844	0.053815
1161.507651	0.061090
1161.661440	0.055052
1161.815210	0.054821
1161.968962	0.069501
1162.122697	0.074496
1162.276412	0.075456
1162.430110	0.079886
1162.583789	0.084449
1162.737451	0.069720
1162.891094	0.067446
1163.044718	0.076734
1163.198325	0.083047
1163.351913	0.070534
1163.505483	0.079794
1163.659035	0.076744
1163.812569	0.076147
1163.966084	0.077538
1164.119581	0.077197
1164.273060	0.066050
1164.426521	0.059110
1164.579964	0.045705
1164.733388	0.045991
1164.886794	0.036120
1165.040182	0.042635
1165.193551	0.038425
1165.346903	0.028874
1165.500236	0.041484
1165.653551	0.051551
1165.806848	0.053111
1165.960126	0.060316
1166.113386	0.061807
1166.266628	0.064745
1166.419852	0.061374
1166.573058	0.055365
1166.726245	0.068264
1166.879414	0.065799
1167.032565	0.067961
1167.185698	0.062210
1167.338812	0.065407
1167.491909	0.074078
1167.644987	0.067345
1167.798046	0.072818
1167.951088	0.080801
1168.104111	0.068560
1168.257117	0.070901
1168.410103	0.066468
1168.563072	0.063305
1168.716023	0.064271
1168.868955	0.052815
1169.021869	0.056626
1169.174765	0.041158
1169.327642	0.032306
1169.480501	0.032444
1169.633343	0.027171
1169.786165	0.017541
1169.938970	0.016832
1170.091757	0.013252
1170.244525	0.016766
1170.397275	0.023363
1170.550007	0.025078
1170.702720	0.036577
1170.855415	0.030944
1171.008092	0.033656
1171.160751	0.046196
1171.313392	0.054822
1171.466014	-0.038791
1171.618619	0.091206
1171.771205	0.091206
1171.923772	0.091206
