sample name	sample
index	1497
start time	 05-18-2021  02:19:27 PM
880	0.383525
Peak Time (s)	92.537
Peak Height 	0.3835
calc peak height	90,93
Baseline Time (s)	9.036
Baseline Value 	-0.007106
subtract baseline	10,4
Abs	0.274387
Peak Time (s)	92.036
Peak Height 	0.2744
calc peak height	90,93
Baseline Time (s)	8.536
Baseline Value 	6.1958E-4
subtract baseline	10,3
PK_550	0.163991
Peak Time (s)	91.537
Peak Height 	0.164
calc peak height	90,93
Baseline Time (s)	8.536
Baseline Value 	-4.8398E-5
subtract baseline	10,2
PK_880	0.281064
Peak Time (s)	92.036
Peak Height 	0.2811
calc peak height	90,93
Baseline Time (s)	8.536
Baseline Value 	0.0012
subtract baseline	10,1


Time (s)	A880-A510	A880-A775	A880-A975	A880	I510	I775	I975	I880	
0.035500	0.000401	0.000891	0.002322	0.005693	6561.365253	43948.839952	3973.661552	22702.802834
0.539000	-0.004141	-0.001396	-0.002922	0.006001	6521.539372	43704.931095	3960.651523	22688.806109
1.036000	-0.003793	-0.000591	-0.001174	0.005523	6528.295978	43825.392727	3965.850099	22710.541314
1.536500	-0.000309	0.000291	0.003191	0.003984	6569.625703	44053.548010	3979.760219	22780.622560
2.037000	0.001427	0.000326	0.007424	0.003500	6588.045076	44102.656407	3991.009211	22802.700808
2.537500	-0.000881	0.000399	-0.005261	0.005746	6550.359619	43897.448707	3955.812010	22700.377764
3.035000	0.001769	0.001308	0.000849	0.001257	6609.612359	44408.901680	3980.671051	22905.372762
3.534500	0.001196	0.000307	0.007263	0.001394	6603.679886	44300.575468	3995.684488	22899.109102
4.035000	0.002337	0.000834	0.001624	0.001799	6609.838403	44312.183468	3981.226505	22880.523994
4.535500	0.001413	0.000291	0.002966	0.001546	6604.218933	44284.605682	3985.021677	22892.107715
5.035500	0.002230	-0.000191	0.002774	0.001072	6615.022980	44283.843262	3985.693737	22913.861333
5.536000	0.000542	-0.000464	-0.000361	0.000598	6604.865689	44302.944925	3979.363442	22935.636848
6.036500	0.000364	0.000695	0.002271	0.001234	6598.072571	44352.677807	3984.110242	22906.444352
6.537000	0.000801	-0.000475	0.004511	0.000249	6609.952388	44335.091152	3991.819825	22951.700476
7.037000	-0.001654	-0.000300	0.004613	-0.000070	6592.123101	44382.200993	3992.831254	22966.404552
7.537500	0.001236	-0.000014	-0.002121	0.000211	6613.913365	44382.641109	3976.115754	22953.476019
8.034500	0.001861	-0.000116	0.003432	0.001027	6612.308578	44295.193062	3987.372647	22915.938158
8.535500	0.000000	0.000000	0.000000	0.001073	6596.375094	44301.886604	3979.094701	22913.823580
9.035500	-0.000113	-0.000243	0.005028	0.000000	6604.394184	44380.898976	3993.660872	22963.165860
9.535500	0.001112	0.000117	-0.003326	0.000153	6613.364832	44400.598062	3973.407460	22956.129760
10.039000	0.002376	0.000680	-0.002183	0.000196	6623.597570	44450.229228	3976.003366	22954.130419
10.536500	0.001309	-0.000081	-0.001745	-0.000329	6619.052437	44427.668990	3978.282658	22978.317081
11.036500	-0.000343	-0.000149	0.004088	-0.000213	6604.246058	44410.190586	3991.914414	22972.981348
11.537000	-0.000170	0.000514	0.001937	-0.000075	6604.537419	44460.247660	3986.432965	22966.611502
12.036500	0.001022	-0.000013	0.003883	0.000277	6611.563944	44376.437305	3990.246848	22950.405806
12.534500	0.000846	-0.000339	0.002805	0.000190	6610.826523	44353.712379	3987.876563	22954.427767
13.034500	0.001184	-0.000390	0.000800	0.000716	6609.255680	44298.836686	3981.842293	22930.254555
13.535000	-0.000391	0.000095	0.003598	0.001160	6592.393563	44302.667042	3987.452519	22909.854654
14.035500	0.000406	0.000640	-0.000130	0.002642	6586.688073	44213.645980	3975.074046	22841.900320
14.536500	0.000467	-0.000076	-0.001767	0.002657	6587.079042	44144.427954	3971.181874	22841.245042
15.036500	-0.001497	-0.000385	0.005519	0.000936	6585.050479	44278.261306	3992.590158	22920.101859
15.536500	0.000666	0.000667	0.001998	0.001455	6598.740375	44328.932611	3982.933216	22896.280589
16.037000	0.000452	-0.000399	0.003687	0.001009	6600.682572	44269.992167	3988.024051	22916.756141
16.537000	-0.000149	-0.000190	-0.000838	0.001509	6591.500901	44242.414693	3976.078417	22893.799328
17.037000	-0.000922	-0.000656	0.000326	0.000326	6594.915568	44310.518661	3981.641237	22948.152376
17.535000	0.000116	0.000091	-0.000167	0.000700	6600.455046	44345.977894	3979.581713	22930.950947
18.035000	-0.001246	0.000313	0.003097	0.001838	6579.647368	44258.953941	3984.639101	22878.753873
18.535000	0.001944	-0.000084	0.001183	0.001466	6609.334980	44256.596697	3980.969848	22895.806666
19.035500	0.000546	0.000174	0.001177	0.002147	6591.981892	44216.442973	3979.339859	22864.583430
19.538500	-0.002236	0.000242	0.007311	0.001375	6575.270965	44296.202402	3995.845058	22899.962248
20.039000	0.001213	0.000398	0.005454	0.001739	6600.943152	44276.477699	3990.509891	22883.287624
20.536000	0.000642	-0.000196	0.002006	0.001394	6599.061036	44252.807247	3983.098279	22899.113585
21.039500	-0.002048	-0.000531	0.002041	0.001210	6578.199305	44238.382736	3983.616620	22907.521181
21.537000	-0.000240	0.000704	0.003794	0.002178	6585.183289	44263.817751	3985.490580	22863.161213
22.037500	-0.001444	0.000234	-0.000598	0.001207	6583.241536	44311.394479	3977.360861	22907.690318
22.535000	-0.000157	0.000753	0.004811	0.002109	6586.443946	44274.974118	3988.083404	22866.319862
23.035000	-0.000715	0.000148	0.002978	0.001154	6589.741070	44308.264781	3985.985475	22910.111301
23.535500	-0.001672	0.000702	0.002655	0.001970	6575.019871	44283.427554	3983.272138	22872.696444
24.038500	0.000864	0.000204	0.002085	0.001324	6601.493513	44297.479443	3983.454260	22902.331609
24.536000	-0.000799	-0.000546	0.001307	0.001069	6589.755596	44250.393259	3982.208413	22914.023831
25.036000	-0.001351	0.000728	0.003760	0.001919	6578.103404	44290.643939	3986.025825	22875.022218
25.536500	-0.000842	-0.000347	0.006470	0.000918	6590.646579	44283.628239	3994.920696	22920.937889
26.037000	-0.000021	0.000036	0.001583	0.001488	6592.745005	44265.943402	3981.869491	22894.797284
26.537000	-0.001376	-0.000368	0.001040	0.000821	6587.014168	44290.854219	3982.161609	22925.386604
27.034500	0.002313	0.000511	0.001085	0.001655	6610.845298	44295.187661	3980.289146	22887.143178
27.535000	0.001147	-0.000716	0.006886	-0.002925	6639.529029	44615.143255	4005.221743	23098.247402
28.035500	0.001125	-0.000507	0.004533	-0.000315	6617.392659	44385.777582	3993.227137	22977.664873
28.536000	-0.005293	-0.000448	-0.003667	0.005585	6515.534417	43832.908931	3959.886750	22707.704712
29.036000	0.001023	0.000580	0.000026	0.000851	6606.773251	44378.269984	3979.684031	22924.051745
29.536500	0.002124	0.000094	0.001765	0.000592	6618.161257	44356.608470	3984.432105	22935.931340
30.036500	0.001198	-0.000345	-0.001643	-0.000518	6619.712040	44420.559173	3978.972379	22987.030176
30.536500	-0.002374	0.001099	-0.002336	0.006042	6535.657837	43935.519574	3961.922691	22686.944597
31.037500	-0.000940	-0.000298	0.002388	0.001796	6582.536280	44204.906879	3983.049375	22880.647417
31.537500	0.000152	-0.000319	0.001672	0.000724	6600.556976	44304.759312	3983.897394	22929.870543
32.035000	0.002123	0.000353	0.001827	0.000598	6618.106907	44380.677545	3984.565478	22935.650657
32.535000	-0.002061	-0.000213	-0.002895	0.006004	6538.542748	43815.723370	3960.709292	22688.698718
33.041000	0.000287	-0.000665	0.007908	-0.000607	6612.815657	44398.526666	4002.077596	22991.147822
33.538500	0.001132	0.000540	0.001805	-0.001437	6626.874388	44592.916344	3989.375762	23029.413596
34.036500	0.000479	0.000829	0.004859	0.001569	6596.238084	44333.600919	3989.490939	22891.073450
34.536500	-0.001061	0.000238	0.003389	0.001546	6583.607307	44279.526373	3986.031006	22892.120561
35.036500	-0.000726	0.000042	0.004065	0.001237	6588.961800	44290.267087	3988.384610	22906.301651
35.540000	0.000625	0.000058	0.002895	0.001650	6596.777130	44252.601399	3984.604535	22887.364089
36.037000	-0.001260	0.000042	-0.000648	0.001266	6584.281683	44287.524404	3977.103308	22904.982646
36.534500	-0.000308	0.000268	0.002472	0.002849	6579.043301	44158.732677	3980.746413	22832.442098
37.035000	-0.002523	-0.000630	0.000888	0.000745	6578.116052	44273.132229	3981.981432	22928.885823
37.535500	-0.000463	-0.000093	0.002766	0.001291	6590.702411	44272.371988	3985.154653	22903.836422
38.035500	0.001092	0.000151	0.006597	0.001815	6599.295331	44245.787831	3993.068218	22879.788466
38.535500	-0.000844	0.000379	0.005758	0.001550	6585.384233	44292.571651	3991.692167	22891.955176
39.035500	0.000803	-0.000046	0.000959	0.001083	6602.989206	44296.530639	3981.347466	22913.356852
39.536500	0.000889	0.000112	-0.000781	0.001335	6601.612241	44287.708847	3976.625988	22901.814069
40.036500	0.001015	0.000005	-0.000613	0.001109	6604.542410	44298.923735	3977.556047	22912.160394
40.537000	-0.000662	-0.000035	0.001915	0.001152	6590.203682	44291.057467	3983.456670	22910.216464
41.034500	-0.001195	-0.000248	-0.000461	0.000980	6587.201426	44287.184667	3978.223684	22918.096866
41.534500	-0.001562	0.001133	0.000683	0.001868	6576.773130	44334.025470	3978.830675	22877.362159
42.035000	-0.002482	-0.000502	0.002893	0.001025	6576.136848	44258.772006	3986.091564	22916.050301
42.535500	-0.001430	0.000024	0.000512	0.002331	6574.025032	44184.724538	3977.327208	22856.132337
43.038500	-0.002144	0.000616	0.002605	0.001516	6574.863345	44318.367167	3984.232855	22893.486338
43.536500	-0.001189	0.000035	-0.005205	0.001210	6585.336159	44292.224957	3966.509455	22907.543858
44.036500	0.003526	0.000902	0.004920	-0.002689	6657.660794	44747.790406	3999.885233	23087.356407
44.536500	-0.002128	0.000023	-0.002683	0.005679	6540.657528	43868.430878	3961.961612	22703.456997
45.037000	0.001061	0.000460	-0.004192	0.000633	6608.915157	44387.570362	3970.238595	22934.045464
45.537000	0.002243	0.000133	0.004239	-0.000092	6624.906103	44425.515764	3991.985266	22967.411559
46.034500	-0.001800	0.000417	0.004126	0.000268	6588.087913	44418.332686	3990.852118	22950.843090
46.535000	-0.001365	0.000497	-0.000520	0.005809	6545.854853	43900.758088	3966.709238	22697.527323
47.035000	0.001255	0.000218	0.000889	0.000147	6614.606318	44410.739632	3983.406853	22956.379037
47.536000	-0.001372	0.000230	0.005354	0.001188	6583.998029	44312.903425	3991.591191	22908.563383
48.035500	-0.000501	-0.000576	0.001812	0.000424	6597.611935	44308.797530	3984.945420	22943.646509
48.535500	-0.002341	-0.000400	0.001487	0.002950	6561.379878	44085.976862	3978.173264	22827.848063
49.036500	0.000708	0.000397	0.008633	0.000044	6610.892680	44437.715894	4002.256413	22961.149616
49.537000	0.001529	0.000007	0.004154	-0.001249	6628.631649	44524.007694	3994.563286	23020.745052
50.037000	0.002517	0.000327	0.002426	-0.002177	6644.782530	44643.416005	3992.638993	23063.633770
50.536500	-0.001065	-0.000619	0.000379	0.000927	6588.716932	44256.970546	3980.339566	22920.527893
51.035000	-0.010215	-0.009430	0.004023	0.005518	6476.177473	43003.467755	3978.096784	22710.772001
51.535000	-0.006694	-0.018891	-0.011568	0.400625	4396.116673	18762.349113	3349.061899	10918.544431
52.035000	-0.021369	-0.020757	-0.033719	0.021358	6265.180753	40577.988453	3858.712543	22003.763693
52.538500	-0.020601	-0.093775	-0.040100	-0.272481	9458.757020	65478.418905	4711.924553	40411.492773
53.036000	-0.016803	-0.119503	-0.026078	-0.298603	9921.183816	65535.000000	4882.593984	42732.562534
53.536000	-0.014971	-0.091135	-0.019233	-0.268428	9482.332559	65275.350900	4781.492437	40063.676608
54.036500	-0.010780	-0.065182	-0.016140	-0.233979	9044.397435	64069.189158	4653.891926	37235.141213
54.537000	-0.006064	-0.043913	-0.013356	-0.200240	8652.036715	62340.685286	4536.639422	34673.971728
55.037000	-0.001383	-0.036553	-0.007097	-0.188904	8565.704339	61799.930742	4518.193318	33857.165218
55.534500	0.003654	-0.031745	0.002785	-0.177843	8488.695782	60959.445499	4513.939314	33080.460906
56.035000	0.011907	-0.018679	0.016565	-0.145514	8191.361993	58445.246016	4448.535579	30920.539597
56.535000	0.022639	-0.010361	0.022153	-0.112134	7926.298691	55336.358838	4355.613189	28852.768602
57.038000	0.043209	0.003187	0.045772	-0.054017	7516.214073	50232.419150	4248.242954	25611.022056
57.536000	0.062130	0.016987	0.063105	-0.001867	7181.722163	46240.905216	4148.195509	23049.310697
58.036500	0.086221	0.031452	0.088856	0.061360	6819.220009	41649.085320	4049.099848	20329.009881
58.536000	0.116803	0.049759	0.112915	0.127955	6513.298784	37582.609830	3946.509998	17861.317329
59.036500	0.139516	0.064974	0.145292	0.183569	6255.152616	34511.269650	3894.570323	16071.562509
59.537000	0.161520	0.080646	0.159714	0.219800	6149.434933	33054.597412	3848.286920	15022.992224
60.037500	0.180112	0.093276	0.179346	0.250047	6065.379742	31860.040393	3826.586984	14212.183218
60.534500	0.193204	0.104904	0.188688	0.282948	5927.593503	30480.729086	3780.279620	13392.035711
61.035000	0.206440	0.115966	0.207225	0.304851	5869.247161	29803.342732	3773.864582	12879.485065
61.537500	0.217580	0.122736	0.218613	0.323189	5821.671317	29098.963581	3760.777985	12469.806829
62.035500	0.215775	0.127045	0.216464	0.343098	5682.848489	28178.350223	3720.605419	12044.194012
62.536000	0.220200	0.132344	0.221738	0.346568	5688.809964	28284.557266	3723.814858	11971.987480
63.036500	0.225942	0.134642	0.225215	0.348000	5715.869244	28334.983575	3727.467207	11942.348465
63.540000	0.230211	0.135747	0.235570	0.350546	5726.768304	28251.080933	3741.582583	11889.913539
64.037000	0.231759	0.137432	0.234643	0.353757	5716.256359	28162.577569	3734.073231	11824.224489
64.537000	0.236620	0.141118	0.241320	0.362956	5689.007450	27845.242672	3729.529364	11638.661484
65.035000	0.239232	0.142833	0.246105	0.370761	5656.750895	27499.365053	3724.124929	11484.287221
65.534500	0.241583	0.145566	0.246564	0.374140	5650.407294	27462.949527	3718.933721	11418.304282
66.035500	0.243781	0.146291	0.246565	0.375564	5655.183708	27423.604933	3716.418962	11390.655581
66.538000	0.245087	0.147024	0.247968	0.376217	5659.213709	27428.074460	3717.742046	11377.994197
67.035500	0.250134	0.149603	0.247214	0.378270	5677.782294	27457.669570	3712.792760	11338.346936
67.535500	0.245264	0.149134	0.245868	0.378369	5647.030474	27425.702256	3710.257637	11336.434801
68.036500	0.248570	0.151085	0.253506	0.381499	5648.122203	27359.587816	3718.196369	11276.376511
68.536000	0.251360	0.152426	0.249373	0.383715	5651.653375	27310.541089	3707.040762	11234.095421
69.037000	0.251614	0.152892	0.254492	0.384147	5650.552308	27312.399257	3715.260113	11225.875167
69.537500	0.248842	0.153460	0.259911	0.385253	5626.771921	27282.322045	3722.902528	11204.885748
70.034500	0.253568	0.154418	0.260200	0.385801	5652.406163	27305.237475	3722.440080	11194.499599
70.538000	0.257413	0.156434	0.261550	0.388767	5657.830667	27252.186019	3719.571439	11138.538982
71.035000	0.258677	0.157622	0.259679	0.385159	5688.094431	27521.413527	3722.655114	11206.660985
71.535500	0.258820	0.158675	0.263879	0.384554	5692.774153	27615.208696	3731.257644	11218.159096
72.036000	0.258888	0.158012	0.267867	0.383188	5701.757696	27655.066117	3740.954557	11244.131131
72.536000	0.260618	0.158020	0.266329	0.382147	5719.215530	27714.704344	3740.049956	11263.993160
73.036000	0.259121	0.158919	0.265210	0.381667	5712.795100	27793.256880	3738.887734	11273.159327
73.539500	0.262746	0.160931	0.265864	0.382408	5731.036305	27865.913762	3738.729797	11259.009460
74.037000	0.259674	0.160008	0.263857	0.381182	5719.351898	27883.277705	3737.310918	11282.441547
74.534500	0.258799	0.161767	0.265964	0.382517	5705.418665	27907.555760	3738.711843	11256.917834
75.034500	0.261377	0.162692	0.265408	0.383019	5718.497626	27931.843172	3736.792353	11247.352074
75.535000	0.262538	0.162028	0.268023	0.383922	5720.131168	27842.050956	3739.901194	11230.161445
76.038000	0.260109	0.162619	0.263881	0.384886	5698.767892	27820.697318	3730.663270	11211.847006
76.535500	0.261161	0.161819	0.273886	0.383233	5715.783916	27869.460430	3751.914512	11243.267155
77.036000	0.263134	0.161824	0.267370	0.382614	5732.190388	27905.260956	3741.095348	11255.075996
77.536500	0.264609	0.162688	0.267744	0.382222	5744.075195	27977.384869	3742.492745	11262.562220
78.036500	0.264265	0.161044	0.267392	0.380323	5753.998043	27992.004463	3745.319607	11298.882146
78.537000	0.266473	0.163528	0.268615	0.381487	5760.690813	28068.078044	3745.429603	11276.593841
79.037000	0.268314	0.162327	0.269110	0.379414	5785.906367	28118.476648	3750.149721	11316.334563
79.535000	0.265794	0.161825	0.266731	0.378531	5775.332613	28140.511591	3747.395898	11333.316914
80.035000	0.268252	0.161623	0.259752	0.377961	5794.923311	28161.796747	3735.708729	11344.296705
80.535500	0.269696	0.162436	0.262081	0.378977	5797.710738	28150.064143	3738.089669	11324.744413
81.035500	0.270794	0.163130	0.269638	0.378711	5806.587065	28205.700645	3752.422559	11329.858541
81.536000	0.269363	0.161808	0.268771	0.377635	5804.272230	28191.399291	3752.807321	11350.585600
82.035500	0.273950	0.163867	0.264644	0.380323	5816.672862	28154.978821	3740.303084	11298.897215
82.536000	0.273184	0.163661	0.273121	0.380920	5807.771682	28108.556032	3754.780450	11287.457219
83.037000	0.274213	0.163607	0.266481	0.380083	5819.961686	28153.830302	3744.091559	11303.488211
83.537000	0.277729	0.162913	0.274294	0.380020	5843.503578	28117.303208	3758.632048	11304.692246
84.034500	0.273827	0.163321	0.264456	0.380563	5814.298143	28109.497696	3739.522749	11294.282366
84.535000	0.275656	0.163550	0.279073	0.381308	5821.392901	28079.681686	3765.161592	11280.016446
85.035000	0.278054	0.163115	0.273347	0.380076	5845.288212	28125.767136	3756.766282	11303.631485
85.538500	0.278662	0.164115	0.267786	0.381549	5839.576693	28098.414407	3743.798994	11275.421028
86.038500	0.277267	0.163251	0.271482	0.381397	5831.384031	28057.319733	3750.866193	11278.321343
86.536000	0.275655	0.162993	0.273808	0.381570	5819.676007	28032.497631	3754.849339	11275.018853
87.036000	0.277314	0.162529	0.273716	0.381051	5833.970613	28035.577560	3755.639657	11284.933485
87.536500	0.276931	0.161182	0.270427	0.379468	5841.884365	28049.246061	3752.481843	11315.308485
88.039500	0.275337	0.162217	0.273209	0.380734	5823.064142	28035.940423	3755.289547	11291.014675
88.537000	0.278703	0.162171	0.274734	0.380405	5847.401757	28052.216510	3758.735434	11297.314491
89.037000	0.276440	0.162194	0.272936	0.381193	5827.290640	28008.116065	3753.931294	11282.213053
89.535000	0.274324	0.162877	0.271720	0.380222	5819.786286	28103.598489	3753.478176	11300.835371
90.038000	0.277722	0.163195	0.271453	0.381950	5830.743352	28022.208678	3749.793517	11267.748302
90.535500	0.279843	0.163014	0.270168	0.381858	5845.337176	28017.088590	3747.599881	11269.515122
91.036000	0.278906	0.162775	0.273789	0.381778	5839.676943	28007.943322	3754.428755	11271.039005
91.536500	0.280421	0.163991	0.269692	0.383023	5841.453869	28006.246417	3744.588865	11247.270344
92.036000	0.281064	0.163119	0.274387	0.383364	5843.447055	27936.505053	3752.599276	11240.770253
92.537000	0.280879	0.163700	0.272265	0.383525	5841.162655	27960.646950	3748.389373	11237.718453
93.037000	0.279452	0.162352	0.270779	0.382873	5836.057379	27920.671846	3746.856745	11250.137060
93.584500	0.278825	0.162246	0.274556	0.382780	5832.539398	27919.938064	3753.993728	11251.909349
94.035000	0.278289	0.162511	0.273927	0.384732	5816.216278	27823.342277	3749.226651	11214.779207
94.535000	0.281170	0.161936	0.274631	0.384330	5837.775706	27813.463758	3751.264468	11222.404314
95.034500	0.281763	0.162566	0.269674	0.384830	5838.391582	27820.923473	3741.254937	11212.915771
95.535500	0.281371	0.163625	0.274140	0.386233	5826.579207	27801.271940	3746.859603	11186.335658
96.036000	0.280145	0.162591	0.274449	0.386580	5816.262673	27722.482080	3746.787993	11179.762017
