sample name	sample
index	430
start time	 03-08-2021  12:05:45 PM


Wavelength (nm)	Absorbance
494.344910	0.659599
494.563924	0.659599
494.782919	0.659599
495.001897	-0.165709
495.220856	0.456070
495.439797	0.281192
495.658719	0.101629
495.877624	0.117186
496.096510	0.373283
496.315378	0.317110
496.534227	0.885946
496.753059	0.339592
496.971872	0.241625
497.190667	0.090922
497.409444	0.087184
497.628203	0.081666
497.846943	0.083779
498.065665	0.084873
498.284369	0.084103
498.503055	0.081671
498.721723	0.080375
498.940372	0.079060
499.159003	0.079514
499.377616	0.079450
499.596210	0.081340
499.814787	0.079662
500.033345	0.077343
500.251885	0.077112
500.470406	0.077585
500.688910	0.077602
500.907395	0.078878
501.125862	0.078188
501.344311	0.077081
501.562742	0.075866
501.781154	0.075777
501.999548	0.076314
502.217924	0.076484
502.436282	0.077059
502.654621	0.077472
502.872942	0.077111
503.091245	0.077643
503.309530	0.078674
503.527797	0.078214
503.746045	0.079118
503.964275	0.078919
504.182487	0.079035
504.400681	0.079054
504.618856	0.079937
504.837013	0.080529
505.055152	0.081154
505.273273	0.080728
505.491376	0.081414
505.709460	0.080870
505.927526	0.081285
506.145574	0.081264
506.363604	0.080578
506.581615	0.079875
506.799608	0.079683
507.017583	0.079044
507.235540	0.078956
507.453478	0.078016
507.671399	0.078226
507.889301	0.077813
508.107185	0.077696
508.325050	0.078322
508.542898	0.078489
508.760727	0.078334
508.978538	0.077946
509.196330	0.078032
509.414105	0.079244
509.631861	0.078678
509.849599	0.078934
510.067319	0.078879
510.285021	0.078630
510.502704	0.078927
510.720369	0.078921
510.938016	0.079417
511.155645	0.079906
511.373255	0.079591
511.590848	0.079233
511.808422	0.079789
512.025977	0.080243
512.243515	0.079981
512.461034	0.080553
512.678536	0.080488
512.896018	0.080645
513.113483	0.080462
513.330930	0.080938
513.548358	0.081579
513.765768	0.081232
513.983160	0.080842
514.200533	0.080669
514.417889	0.079883
514.635226	0.080545
514.852545	0.080258
515.069845	0.080052
515.287128	0.079525
515.504392	0.079987
515.721638	0.079690
515.938866	0.080413
516.156075	0.081442
516.373267	0.081736
516.590440	0.081359
516.807594	0.081772
517.024731	0.081869
517.241850	0.082279
517.458950	0.082109
517.676032	0.082460
517.893095	0.082084
518.110141	0.082214
518.327168	0.081775
518.544177	0.081953
518.761168	0.081749
518.978141	0.081977
519.195095	0.081864
519.412031	0.081641
519.628949	0.082227
519.845849	0.082240
520.062731	0.082011
520.279594	0.082310
520.496439	0.082216
520.713266	0.082512
520.930074	0.082647
521.146865	0.082928
521.363637	0.083294
521.580391	0.083171
521.797127	0.083301
522.013844	0.082942
522.230543	0.083387
522.447224	0.083393
522.663887	0.084053
522.880532	0.084264
523.097158	0.084116
523.313766	0.083813
523.530356	0.084130
523.746928	0.084120
523.963481	0.084870
524.180017	0.084937
524.396534	0.085052
524.613032	0.084759
524.829513	0.084924
525.045975	0.085179
525.262420	0.086297
525.478845	0.085870
525.695253	0.086457
525.911643	0.085925
526.128014	0.086197
526.344367	0.086853
526.560702	0.086673
526.777018	0.087303
526.993316	0.087957
527.209597	0.087848
527.425858	0.088308
527.642102	0.088237
527.858328	0.088803
528.074535	0.088326
528.290724	0.088536
528.506894	0.088754
528.723047	0.088697
528.939181	0.088485
529.155297	0.088191
529.371395	0.088130
529.587475	0.088738
529.803536	0.088828
530.019579	0.089088
530.235604	0.088681
530.451611	0.089404
530.667600	0.089548
530.883570	0.089822
531.099522	0.090082
531.315456	0.090093
531.531372	0.089937
531.747269	0.090282
531.963148	0.091371
532.179009	0.091461
532.394852	0.091658
532.610676	0.091249
532.826482	0.091566
533.042271	0.092079
533.258040	0.092407
533.473792	0.092367
533.689525	0.092266
533.905240	0.091555
534.120937	0.092167
534.336616	0.091771
534.552277	0.092388
534.767919	0.092172
534.983543	0.092201
535.199149	0.092635
535.414736	0.092834
535.630306	0.093515
535.845857	0.093838
536.061390	0.093231
536.276904	0.093299
536.492401	0.092876
536.707879	0.093006
536.923339	0.093462
537.138781	0.093915
537.354204	0.094105
537.569610	0.093519
537.784997	0.093827
538.000366	0.094511
538.215716	0.095099
538.431049	0.095269
538.646363	0.095826
538.861659	0.095926
539.076937	0.095706
539.292196	0.095612
539.507438	0.095834
539.722661	0.095835
539.937866	0.095993
540.153052	0.096028
540.368221	0.096902
540.583371	0.096713
540.798503	0.096499
541.013617	0.096399
541.228712	0.096850
541.443789	0.097176
541.658848	0.097289
541.873889	0.097616
542.088912	0.097538
542.303916	0.097236
542.518902	0.097771
542.733870	0.097724
542.948820	0.097869
543.163752	0.097981
543.378665	0.098179
543.593560	0.098415
543.808437	0.098312
544.023295	0.098445
544.238136	0.098446
544.452958	0.098443
544.667762	0.098727
544.882548	0.099319
545.097315	0.099771
545.312064	0.099443
545.526795	0.099563
545.741508	0.099328
545.956203	0.099476
546.170879	0.099713
546.385537	0.099645
546.600177	0.099772
546.814799	0.099760
547.029402	0.099412
547.243988	0.100203
547.458555	0.100245
547.673103	0.100595
547.887634	0.100729
548.102146	0.101069
548.316640	0.101351
548.531116	0.101837
548.745574	0.101654
548.960013	0.101926
549.174435	0.102002
549.388838	0.102121
549.603222	0.102184
549.817589	0.102405
550.031937	0.102370
550.246267	0.102259
550.460579	0.102208
550.674873	0.102747
550.889148	0.102778
551.103405	0.102679
551.317644	0.102845
551.531865	0.102797
551.746068	0.102768
551.960252	0.103011
552.174418	0.103207
552.388566	0.103060
552.602696	0.102863
552.816807	0.102751
553.030900	0.103100
553.244975	0.103048
553.459032	0.103449
553.673070	0.103275
553.887091	0.103199
554.101093	0.103551
554.315077	0.103933
554.529042	0.103850
554.742990	0.104227
554.956919	0.104470
555.170830	0.104626
555.384722	0.104813
555.598597	0.105117
555.812453	0.105380
556.026291	0.105373
556.240111	0.105395
556.453913	0.105835
556.667696	0.105781
556.881461	0.105558
557.095208	0.105558
557.308937	0.106134
557.522647	0.106619
557.736339	0.106688
557.950013	0.106264
558.163669	0.106374
558.377307	0.106284
558.590926	0.106248
558.804527	0.106533
559.018110	0.106820
559.231675	0.106488
559.445221	0.106438
559.658749	0.106529
559.872259	0.107272
560.085751	0.107368
560.299225	0.107531
560.512680	0.107887
560.726117	0.107930
560.939536	0.107936
561.152937	0.107909
561.366319	0.108160
561.579683	0.108379
561.793029	0.108358
562.006357	0.108309
562.219667	0.108647
562.432958	0.108721
562.646231	0.108672
562.859486	0.108983
563.072723	0.109182
563.285941	0.109077
563.499141	0.109117
563.712323	0.109136
563.925487	0.109636
564.138632	0.109651
564.351760	0.109750
564.564869	0.109898
564.777960	0.109869
564.991032	0.110219
565.204087	0.110290
565.417123	0.110323
565.630141	0.110512
565.843140	0.110398
566.056122	0.110525
566.269085	0.110712
566.482030	0.110793
566.694957	0.111032
566.907866	0.111097
567.120756	0.111702
567.333628	0.111795
567.546482	0.111712
567.759318	0.111913
567.972135	0.111984
568.184935	0.112409
568.397716	0.112559
568.610478	0.112487
568.823223	0.112198
569.035949	0.111604
569.248657	0.111536
569.461347	0.111944
569.674019	0.111780
569.886672	0.111603
570.099308	0.111441
570.311925	0.111459
570.524523	0.111699
570.737104	0.111928
570.949666	0.112197
571.162210	0.112816
571.374736	0.112663
571.587244	0.113249
571.799733	0.113379
572.012205	0.113253
572.224658	0.113367
572.437092	0.113380
572.649509	0.113451
572.861907	0.113559
573.074287	0.113356
573.286649	0.113337
573.498993	0.113437
573.711318	0.113681
573.923625	0.113999
574.135914	0.113861
574.348185	0.113965
574.560438	0.114388
574.772672	0.114459
574.984888	0.114523
575.197086	0.114795
575.409266	0.114931
575.621427	0.115281
575.833570	0.115254
576.045695	0.115610
576.257802	0.115795
576.469890	0.115683
576.681961	0.115958
576.894013	0.116000
577.106046	0.115862
577.318062	0.115543
577.530059	0.115583
577.742039	0.115722
577.954000	0.115692
578.165942	0.115859
578.377867	0.115908
578.589773	0.115772
578.801661	0.116076
579.013531	0.116328
579.225382	0.116653
579.437216	0.116447
579.649031	0.116419
579.860828	0.116706
580.072606	0.116851
580.284367	0.116999
580.496109	0.117238
580.707833	0.117199
580.919539	0.117517
581.131227	0.117415
581.342896	0.117640
581.554547	0.118079
581.766180	0.118265
581.977795	0.118210
582.189391	0.118615
582.400969	0.118577
582.612529	0.118588
582.824071	0.118425
583.035595	0.118361
583.247100	0.118514
583.458587	0.118843
583.670056	0.118885
583.881506	0.119102
584.092939	0.119148
584.304353	0.119706
584.515749	0.120048
584.727127	0.120504
584.938486	0.120638
585.149828	0.120773
585.361151	0.120491
585.572456	0.120566
585.783742	0.120628
585.995011	0.120696
586.206261	0.120800
586.417493	0.120901
586.628706	0.120926
586.839902	0.121126
587.051079	0.121094
587.262238	0.120883
587.473379	0.120681
587.684502	0.120812
587.895606	0.121079
588.106692	0.121145
588.317760	0.121249
588.528810	0.121283
588.739841	0.121287
588.950855	0.121682
589.161850	0.122051
589.372827	0.122222
589.583785	0.122454
589.794726	0.122456
590.005648	0.122542
590.216552	0.122813
590.427437	0.122779
590.638305	0.122915
590.849154	0.122727
591.059985	0.122698
591.270798	0.123110
591.481592	0.123032
591.692369	0.122594
591.903127	0.122371
592.113867	0.122016
592.324588	0.122298
592.535292	0.122270
592.745977	0.122615
592.956644	0.122975
593.167293	0.123058
593.377923	0.123155
593.588536	0.123786
593.799130	0.124097
594.009706	0.124365
594.220263	0.124579
594.430803	0.125049
594.641324	0.124953
594.851827	0.125065
595.062312	0.125463
595.272778	0.125580
595.483227	0.125699
595.693657	0.125827
595.904069	0.126062
596.114462	0.126080
596.324838	0.126180
596.535195	0.126589
596.745534	0.126338
596.955855	0.126359
597.166157	0.126643
597.376441	0.126753
597.586707	0.126829
597.796955	0.126825
598.007185	0.126683
598.217396	0.126504
598.427589	0.126474
598.637764	0.126825
598.847921	0.126577
599.058060	0.126409
599.268180	0.126184
599.478282	0.126586
599.688366	0.126851
599.898431	0.127229
600.108479	0.127486
600.318508	0.127574
600.528519	0.128118
600.738511	0.128245
600.948486	0.128663
601.158442	0.129114
601.368380	0.128915
601.578300	0.128972
601.788202	0.128981
601.998085	0.129213
602.207950	0.129194
602.417797	0.128787
602.627626	0.128942
602.837436	0.128866
603.047228	0.128815
603.257002	0.128948
603.466758	0.129053
603.676496	0.129270
603.886215	0.129570
604.095916	0.129819
604.305599	0.130180
604.515264	0.130500
604.724910	0.130897
604.934538	0.131106
605.144148	0.131215
605.353740	0.131381
605.563314	0.131615
605.772869	0.131572
605.982406	0.131718
606.191925	0.131581
606.401425	0.131475
606.610908	0.131309
606.820372	0.131020
607.029818	0.130962
607.239246	0.130926
607.448655	0.131026
607.658047	0.130910
607.867420	0.130557
608.076775	0.130518
608.286111	0.130678
608.495430	0.130769
608.704730	0.131070
608.914012	0.131472
609.123275	0.131538
609.332521	0.131697
609.541748	0.132093
609.750957	0.132477
609.960148	0.133090
610.169321	0.133071
610.378475	0.133093
610.587611	0.133144
610.796729	0.133031
611.005829	0.133343
611.214910	0.133233
611.423974	0.133336
611.633019	0.133643
611.842045	0.133382
612.051054	0.133528
612.260044	0.133590
612.469017	0.133722
612.677970	0.133974
612.886906	0.133710
613.095824	0.133880
613.304723	0.133874
613.513604	0.133915
613.722467	0.134055
613.931311	0.134049
614.140138	0.134209
614.348946	0.134181
614.557736	0.133976
614.766507	0.134392
614.975261	0.134279
615.183996	0.134316
615.392713	0.134544
615.601412	0.134676
615.810092	0.135083
616.018754	0.135473
616.227399	0.135911
616.436024	0.136222
616.644632	0.136076
616.853222	0.136403
617.061793	0.136409
617.270346	0.136356
617.478880	0.136393
617.687397	0.136342
617.895895	0.136201
618.104375	0.136133
618.312837	0.136157
618.521281	0.136374
618.729706	0.136438
618.938113	0.136598
619.146502	0.136748
619.354873	0.136919
619.563226	0.137162
619.771560	0.137366
619.979876	0.137465
620.188174	0.137667
620.396453	0.137827
620.604715	0.138059
620.812958	0.137928
621.021183	0.137675
621.229390	0.137784
621.437578	0.137541
621.645748	0.137317
621.853900	0.137364
622.062034	0.137324
622.270150	0.137210
622.478247	0.137040
622.686326	0.137413
622.894387	0.137500
623.102430	0.137604
623.310454	0.137829
623.518461	0.138112
623.726449	0.138175
623.934418	0.138405
624.142370	0.138595
624.350303	0.138570
624.558218	0.138493
624.766115	0.138827
624.973994	0.138713
625.181855	0.138923
625.389697	0.139051
625.597521	0.139175
625.805327	0.139128
626.013114	0.139114
626.220883	0.139405
626.428634	0.139532
626.636367	0.139507
626.844082	0.139780
627.051778	0.139764
627.259457	0.140079
627.467117	0.140251
627.674758	0.140497
627.882382	0.140909
628.089987	0.141139
628.297574	0.141371
628.505143	0.141570
628.712694	0.141735
628.920226	0.141875
629.127740	0.141640
629.335236	0.141720
629.542714	0.141639
629.750174	0.141385
629.957615	0.141224
630.165038	0.141283
630.372443	0.141485
630.579829	0.141738
630.787198	0.141881
630.994548	0.142270
631.201880	0.142268
631.409194	0.142515
631.616489	0.142964
631.823766	0.143141
632.031025	0.143140
632.238266	0.142894
632.445489	0.142683
632.652693	0.142641
632.859879	0.142464
633.067047	0.142786
633.274197	0.142633
633.481329	0.142652
633.688442	0.142591
633.895537	0.142840
634.102614	0.143232
634.309672	0.143357
634.516713	0.143456
634.723735	0.143489
634.930739	0.143608
635.137724	0.143807
635.344692	0.143751
635.551641	0.144076
635.758572	0.143989
635.965485	0.143925
636.172379	0.143973
636.379256	0.143987
636.586114	0.144278
636.792954	0.144238
636.999775	0.144307
637.206579	0.144588
637.413364	0.144627
637.620131	0.144532
637.826880	0.144668
638.033610	0.144979
638.240323	0.145196
638.447017	0.145245
638.653692	0.145551
638.860350	0.145514
639.066990	0.145253
639.273611	0.145369
639.480214	0.145576
639.686798	0.145534
639.893365	0.145435
640.099913	0.145341
640.306443	0.145282
640.512955	0.145063
640.719449	0.145178
640.925924	0.145650
641.132381	0.145634
641.338820	0.145813
641.545241	0.145903
641.751644	0.145977
641.958028	0.146420
642.164394	0.146766
642.370742	0.147021
642.577071	0.147012
642.783383	0.147041
642.989676	0.146955
643.195951	0.147211
643.402207	0.147484
643.608446	0.147492
643.814666	0.147405
644.020868	0.147184
644.227052	0.147020
644.433218	0.147397
644.639365	0.147429
644.845494	0.147670
645.051605	0.147674
645.257698	0.147705
645.463772	0.147812
645.669828	0.147998
645.875866	0.148228
646.081886	0.148175
646.287888	0.148151
646.493871	0.148160
646.699836	0.148108
646.905783	0.147908
647.111712	0.147961
647.317622	0.147953
647.523514	0.147869
647.729388	0.147849
647.935244	0.148137
648.141082	0.148308
648.346901	0.148505
648.552702	0.148468
648.758485	0.148879
648.964250	0.149022
649.169996	0.149499
649.375724	0.149593
649.581434	0.149881
649.787126	0.150109
649.992800	0.150250
650.198455	0.150224
650.404092	0.150727
650.609711	0.150670
650.815311	0.150716
651.020894	0.150603
651.226458	0.150752
651.432004	0.150830
651.637532	0.150943
651.843041	0.151093
652.048532	0.151259
652.254006	0.151294
652.459460	0.151434
652.664897	0.151494
652.870315	0.151521
653.075716	0.151776
653.281097	0.151650
653.486461	0.151680
653.691807	0.151758
653.897134	0.151853
654.102443	0.151947
654.307734	0.151963
654.513006	0.152159
654.718261	0.152500
654.923497	0.152495
655.128715	0.152697
655.333915	0.152767
655.539096	0.152876
655.744259	0.153038
655.949404	0.153199
656.154531	0.153586
656.359640	0.153578
656.564730	0.153415
656.769802	0.153561
656.974856	0.153927
657.179892	0.154105
657.384909	0.154247
657.589908	0.154226
657.794889	0.154305
657.999852	0.154234
658.204797	0.154443
658.409723	0.154823
658.614631	0.154956
658.819521	0.154920
659.024393	0.155050
659.229246	0.154956
659.434081	0.154985
659.638898	0.155112
659.843697	0.155221
660.048478	0.155071
660.253240	0.154957
660.457984	0.155079
660.662710	0.155077
660.867417	0.155115
661.072107	0.155342
661.276778	0.155413
661.481431	0.155660
661.686066	0.155714
661.890682	0.156096
662.095281	0.156378
662.299861	0.156372
662.504422	0.156476
662.708966	0.156486
662.913491	0.156540
663.117999	0.156851
663.322488	0.156716
663.526958	0.156986
663.731411	0.157101
663.935845	0.157171
664.140261	0.157508
664.344659	0.157602
664.549038	0.157669
664.753400	0.157717
664.957743	0.157761
665.162068	0.157885
665.366375	0.158019
665.570663	0.158180
665.774933	0.158377
665.979185	0.158307
666.183419	0.158686
666.387635	0.159013
666.591832	0.159255
666.796011	0.159552
667.000172	0.159777
667.204315	0.159955
667.408439	0.160273
667.612545	0.160440
667.816634	0.160789
668.020703	0.160912
668.224755	0.161185
668.428788	0.161438
668.632803	0.161381
668.836800	0.161551
669.040779	0.161598
669.244739	0.161560
669.448681	0.161530
669.652605	0.161471
669.856511	0.161450
670.060399	0.161383
670.264268	0.161555
670.468119	0.161768
670.671952	0.161753
670.875767	0.161903
671.079563	0.162033
671.283341	0.162190
671.487101	0.162350
671.690843	0.162331
671.894567	0.162340
672.098272	0.162313
672.301959	0.162271
672.505628	0.162235
672.709278	0.162291
672.912911	0.162112
673.116525	0.162020
673.320121	0.161942
673.523699	0.162137
673.727258	0.162177
673.930799	0.162170
674.134322	0.162153
674.337827	0.162293
674.541314	0.162381
674.744782	0.162728
674.948232	0.162880
675.151664	0.163141
675.355078	0.163240
675.558474	0.163344
675.761851	0.163358
675.965210	0.163739
676.168551	0.163869
676.371873	0.164064
676.575178	0.164151
676.778464	0.164362
676.981732	0.164329
677.184981	0.164294
677.388213	0.164642
677.591426	0.165053
677.794621	0.165166
677.997798	0.165485
678.200956	0.165387
678.404097	0.165443
678.607219	0.165571
678.810323	0.165781
679.013408	0.166069
679.216476	0.166173
679.419525	0.165950
679.622556	0.165843
679.825569	0.165921
680.028563	0.166013
680.231540	0.166024
680.434498	0.166095
680.637438	0.166004
680.840359	0.166130
681.043263	0.165983
681.246148	0.166302
681.449015	0.166314
681.651864	0.166321
681.854694	0.166368
682.057506	0.166427
682.260301	0.166443
682.463076	0.166675
682.665834	0.166802
682.868573	0.167073
683.071295	0.167232
683.273998	0.167442
683.476682	0.167630
683.679349	0.167788
683.881997	0.168011
684.084627	0.168239
684.287239	0.168302
684.489833	0.168267
684.692408	0.168325
684.894965	0.168192
685.097504	0.168635
685.300025	0.168781
685.502527	0.169009
685.705012	0.169370
685.907478	0.169422
686.109925	0.169528
686.312355	0.169830
686.514766	0.170103
686.717159	0.170411
686.919534	0.170385
687.121891	0.170272
687.324230	0.170564
687.526550	0.170556
687.728852	0.170830
687.931136	0.171040
688.133401	0.171088
688.335649	0.170987
688.537878	0.171023
688.740089	0.171065
688.942281	0.171364
689.144456	0.171374
689.346612	0.171244
689.548750	0.171202
689.750870	0.171275
689.952971	0.171250
690.155055	0.171426
690.357120	0.171616
690.559167	0.171818
690.761195	0.171746
690.963206	0.171723
691.165198	0.171831
691.367172	0.171912
691.569128	0.171920
691.771065	0.172138
691.972984	0.172122
692.174885	0.172200
692.376768	0.172198
692.578633	0.172433
692.780479	0.172612
692.982308	0.172826
693.184118	0.173025
693.385909	0.173129
693.587683	0.173134
693.789438	0.173410
693.991175	0.173449
694.192894	0.173536
694.394595	0.173670
694.596277	0.173541
694.797941	0.173667
694.999587	0.173582
695.201215	0.173708
695.402824	0.173847
695.604416	0.173917
695.805989	0.173963
696.007543	0.173919
696.209080	0.173813
696.410598	0.173976
696.612099	0.174038
696.813580	0.174154
697.015044	0.174405
697.216490	0.174531
697.417917	0.174438
697.619326	0.174516
697.820717	0.174683
698.022089	0.174813
698.223444	0.174864
698.424780	0.175068
698.626098	0.175174
698.827397	0.175323
699.028679	0.175516
699.229942	0.175826
699.431187	0.175910
699.632414	0.176046
699.833622	0.176077
700.034813	0.176470
700.235985	0.176364
700.437139	0.176403
700.638274	0.176396
700.839392	0.176319
701.040491	0.176441
701.241572	0.176592
701.442635	0.176615
701.643679	0.176958
701.844706	0.176864
702.045714	0.176950
702.246704	0.177016
702.447675	0.177062
702.648629	0.176977
702.849564	0.177111
703.050481	0.177147
703.251380	0.177281
703.452260	0.177222
703.653122	0.177396
703.853966	0.177541
704.054792	0.177549
704.255600	0.177338
704.456389	0.177599
704.657160	0.177511
704.857913	0.177510
705.058648	0.177600
705.259365	0.177645
705.460063	0.177446
705.660743	0.177450
705.861405	0.177507
706.062048	0.177666
706.262674	0.177544
706.463281	0.177489
706.663870	0.177512
706.864441	0.177415
707.064993	0.177337
707.265527	0.177421
707.466043	0.177414
707.666541	0.177546
707.867021	0.177676
708.067482	0.177602
708.267925	0.177728
708.468350	0.177818
708.668757	0.177786
708.869145	0.178019
709.069516	0.178003
709.269868	0.178151
709.470201	0.177959
709.670517	0.177926
709.870814	0.178103
710.071093	0.177952
710.271354	0.177972
710.471597	0.178009
710.671821	0.178109
710.872028	0.178057
711.072216	0.178027
711.272385	0.178184
711.472537	0.178137
711.672670	0.178021
711.872785	0.178130
712.072882	0.178132
712.272961	0.178109
712.473021	0.177957
712.673063	0.178037
712.873087	0.177869
713.073093	0.178057
713.273081	0.178257
713.473050	0.178485
713.673001	0.178461
713.872934	0.178458
714.072849	0.178563
714.272745	0.178641
714.472623	0.178915
714.672483	0.179189
714.872325	0.179184
715.072148	0.179015
715.271954	0.179069
715.471741	0.179125
715.671509	0.179143
715.871260	0.179200
716.070992	0.179084
716.270707	0.178950
716.470403	0.178874
716.670080	0.178761
716.869740	0.178727
717.069381	0.178533
717.269004	0.178477
717.468609	0.178311
717.668195	0.178212
717.867764	0.178240
718.067314	0.178202
718.266846	0.178248
718.466360	0.178077
718.665855	0.178145
718.865332	0.178236
719.064791	0.178106
719.264232	0.178169
719.463655	0.178262
719.663059	0.178122
719.862445	0.178028
720.061813	0.177745
720.261163	0.177816
720.460494	0.177794
720.659807	0.177766
720.859102	0.177845
721.058379	0.177840
721.257638	0.177589
721.456878	0.177544
721.656100	0.177748
721.855304	0.177767
722.054490	0.177905
722.253657	0.177874
722.452806	0.177832
722.651937	0.177865
722.851050	0.177807
723.050145	0.178012
723.249221	0.178009
723.448279	0.177652
723.647319	0.177726
723.846340	0.177567
724.045344	0.177440
724.244329	0.177374
724.443296	0.177391
724.642245	0.177500
724.841175	0.177402
725.040088	0.177457
725.238982	0.177550
725.437857	0.177441
725.636715	0.177506
725.835554	0.177438
726.034376	0.177490
726.233179	0.177562
726.431963	0.177406
726.630730	0.177335
726.829478	0.177251
727.028208	0.177310
727.226920	0.177387
727.425614	0.177251
727.624289	0.177347
727.822946	0.177326
728.021585	0.177257
728.220206	0.177218
728.418808	0.177140
728.617392	0.177213
728.815958	0.177187
729.014506	0.177247
729.213036	0.177339
729.411547	0.177428
729.610040	0.177304
729.808515	0.176949
730.006972	0.177079
730.205410	0.177068
730.403831	0.176858
730.602233	0.176624
730.800616	0.176578
730.998982	0.176410
731.197329	0.176206
731.395658	0.176176
731.593969	0.176244
731.792262	0.176000
731.990536	0.175997
732.188793	0.176129
732.387031	0.176016
732.585250	0.175880
732.783452	0.176006
732.981635	0.175975
733.179800	0.175825
733.377947	0.175767
733.576076	0.175653
733.774186	0.175544
733.972278	0.175463
734.170352	0.175508
734.368408	0.175433
734.566446	0.175200
734.764465	0.175326
734.962466	0.175313
735.160449	0.175403
735.358413	0.175683
735.556360	0.175822
735.754288	0.175709
735.952198	0.175589
736.150090	0.175492
736.347963	0.175698
736.545818	0.175560
736.743655	0.175596
736.941474	0.175365
737.139275	0.175188
737.337057	0.174934
737.534821	0.174978
737.732567	0.175035
737.930295	0.174829
738.128005	0.174349
738.325696	0.174060
738.523369	0.173946
738.721024	0.173862
738.918660	0.173489
739.116279	0.173614
739.313879	0.173473
739.511461	0.173522
739.709024	0.173767
739.906570	0.173875
740.104097	0.173747
740.301606	0.173905
740.499097	0.173897
740.696569	0.173935
740.894024	0.173721
741.091460	0.173456
741.288878	0.173112
741.486277	0.172749
741.683659	0.172762
741.881022	0.172798
742.078367	0.172664
742.275694	0.172598
742.473002	0.172445
742.670293	0.172272
742.867565	0.172442
743.064819	0.172525
743.262054	0.172411
743.459272	0.172069
743.656471	0.171972
743.853652	0.171701
744.050815	0.171549
744.247959	0.171628
744.445085	0.171516
744.642194	0.171235
744.839283	0.171140
745.036355	0.171025
745.233408	0.170982
745.430444	0.170970
745.627461	0.170927
745.824459	0.170832
746.021440	0.170810
746.218402	0.170688
746.415346	0.170608
746.612272	0.170256
746.809180	0.170146
747.006069	0.170037
747.202940	0.169886
747.399793	0.169602
747.596628	0.169436
747.793444	0.169280
747.990243	0.169251
748.187023	0.169243
748.383784	0.169375
748.580528	0.169367
748.777253	0.169339
748.973960	0.169185
749.170649	0.169105
749.367320	0.169089
749.563973	0.168960
749.760607	0.168683
749.957223	0.168423
750.153821	0.168276
750.350400	0.168384
750.546962	0.168209
750.743505	0.168215
750.940030	0.168185
751.136536	0.168005
751.333025	0.168093
751.529495	0.168022
751.725947	0.167940
751.922381	0.167847
752.118796	0.167472
752.315194	0.167470
752.511573	0.167364
752.707934	0.167368
752.904276	0.167127
753.100601	0.166684
753.296907	0.166793
753.493195	0.166564
753.689465	0.166371
753.885716	0.166427
754.081949	0.166144
754.278164	0.166077
754.474361	0.165809
754.670540	0.165937
754.866700	0.165850
755.062843	0.165713
755.258967	0.165789
755.455072	0.165606
755.651160	0.165439
755.847229	0.165554
756.043280	0.165349
756.239313	0.165143
756.435328	0.165119
756.631324	0.165087
756.827302	0.164856
757.023262	0.164577
757.219204	0.164697
757.415127	0.164590
757.611033	0.164414
757.806920	0.164200
758.002788	0.164402
758.198639	0.164146
758.394471	0.164057
758.590286	0.164178
758.786081	0.164363
758.981859	0.164223
759.177619	0.163890
759.373360	0.163778
759.569083	0.164090
759.764788	0.164007
759.960474	0.164113
760.156143	0.164187
760.351793	0.164065
760.547425	0.163881
760.743038	0.163864
760.938634	0.164086
761.134211	0.164102
761.329770	0.163714
761.525311	0.163584
761.720833	0.163362
761.916338	0.163080
762.111824	0.163170
762.307292	0.163164
762.502741	0.163112
762.698173	0.162930
762.893586	0.162958
763.088981	0.162905
763.284358	0.162805
763.479716	0.162993
763.675057	0.163057
763.870379	0.162802
764.065683	0.162777
764.260968	0.162795
764.456236	0.162797
764.651485	0.162777
764.846716	0.162744
765.041929	0.162727
765.237123	0.162636
765.432299	0.162506
765.627457	0.162576
765.822597	0.162494
766.017719	0.162427
766.212822	0.162305
766.407907	0.162135
766.602974	0.162179
766.798023	0.161971
766.993054	0.162015
767.188066	0.162135
767.383060	0.162001
767.578036	0.161928
767.772993	0.161858
767.967933	0.162071
768.162854	0.162211
768.357757	0.162128
768.552642	0.162235
768.747508	0.161968
768.942356	0.161828
769.137186	0.161743
769.331998	0.161709
769.526792	0.161506
769.721567	0.161207
769.916324	0.160969
770.111063	0.160918
770.305784	0.160729
770.500486	0.160703
770.695171	0.160568
770.889837	0.160518
771.084484	0.160338
771.279114	0.160389
771.473725	0.160272
771.668318	0.160337
771.862893	0.160291
772.057450	0.160425
772.251988	0.160353
772.446509	0.160382
772.641011	0.160110
772.835494	0.160072
773.029960	0.159841
773.224407	0.159921
773.418836	0.159645
773.613247	0.159505
773.807640	0.159384
774.002014	0.159075
774.196370	0.158923
774.390708	0.158920
774.585028	0.158949
774.779330	0.159011
774.973613	0.159029
775.167878	0.158996
775.362125	0.158984
775.556354	0.158867
775.750564	0.158929
775.944756	0.158957
776.138930	0.159316
776.333086	0.159216
776.527223	0.159301
776.721343	0.159384
776.915444	0.159339
777.109526	0.159207
777.303591	0.159151
777.497637	0.159077
777.691666	0.158941
777.885676	0.158666
778.079667	0.158822
778.273641	0.158666
778.467596	0.158528
778.661533	0.158662
778.855452	0.158683
779.049352	0.158481
779.243235	0.158546
779.437099	0.158540
779.630945	0.158381
779.824773	0.158326
780.018582	0.158411
780.212373	0.158213
780.406146	0.158166
780.599901	0.158396
780.793638	0.158518
780.987356	0.158679
781.181056	0.158918
781.374738	0.159107
781.568402	0.159017
781.762047	0.158871
781.955674	0.159040
782.149283	0.159114
782.342874	0.158990
782.536447	0.159053
782.730001	0.158979
782.923537	0.158975
783.117055	0.158906
783.310555	0.158863
783.504036	0.158799
783.697499	0.158632
783.890944	0.158357
784.084371	0.158447
784.277780	0.158442
784.471170	0.158336
784.664542	0.158225
784.857896	0.158297
785.051231	0.158159
785.244549	0.158301
785.437848	0.158477
785.631129	0.158672
785.824392	0.158622
786.017636	0.158462
786.210863	0.158562
786.404071	0.158386
786.597260	0.158354
786.790432	0.158370
786.983585	0.158210
787.176721	0.158035
787.369838	0.157978
787.562936	0.157890
787.756017	0.158174
787.949079	0.158152
788.142123	0.158339
788.335149	0.158156
788.528156	0.158147
788.721146	0.158151
788.914117	0.158216
789.107070	0.158279
789.300005	0.158090
789.492921	0.157937
789.685819	0.157824
789.878699	0.157789
790.071561	0.157793
790.264405	0.158002
790.457230	0.158181
790.650037	0.158163
790.842826	0.158000
791.035597	0.158302
791.228349	0.158437
791.421084	0.158670
791.613800	0.158556
791.806497	0.158606
791.999177	0.158646
792.191838	0.158761
792.384481	0.159058
792.577106	0.159186
792.769713	0.158981
792.962301	0.158943
793.154871	0.158784
793.347423	0.159007
793.539957	0.159238
793.732473	0.159184
793.924970	0.159097
794.117449	0.158988
794.309910	0.159026
794.502353	0.159165
794.694777	0.159206
794.887183	0.159561
795.079571	0.159489
795.271941	0.159682
795.464293	0.159747
795.656626	0.159503
795.848941	0.159272
796.041238	0.159253
796.233516	0.159341
796.425777	0.159493
796.618019	0.159420
796.810243	0.159722
797.002449	0.159461
797.194636	0.159551
797.386805	0.160018
797.578956	0.160301
797.771089	0.160568
797.963204	0.160603
798.155300	0.160658
798.347378	0.160689
798.539438	0.160868
798.731480	0.160885
798.923503	0.160915
799.115509	0.160748
799.307496	0.160900
799.499465	0.160851
799.691415	0.160901
799.883348	0.160797
800.075262	0.160817
800.267158	0.160649
800.459035	0.160984
800.650895	0.161009
800.842736	0.161139
801.034559	0.161210
801.226364	0.161555
801.418150	0.161637
801.609919	0.161808
801.801669	0.161994
801.993401	0.162114
802.185114	0.162251
802.376810	0.162552
802.568487	0.162707
802.760146	0.162940
802.951787	0.162852
803.143409	0.162902
803.335014	0.163041
803.526600	0.162967
803.718168	0.162902
803.909717	0.162792
804.101249	0.162813
804.292762	0.162917
804.484257	0.163048
804.675734	0.162982
804.867192	0.163269
805.058632	0.163219
805.250054	0.163273
805.441458	0.163275
805.632844	0.163713
805.824211	0.163470
806.015561	0.163348
806.206891	0.163017
806.398204	0.163130
806.589499	0.163046
806.780775	0.163150
806.972033	0.163178
807.163273	0.163181
807.354495	0.163146
807.545698	0.163467
807.736883	0.163653
807.928050	0.163716
808.119199	0.163813
808.310329	0.164032
808.501441	0.164218
808.692535	0.164350
808.883611	0.164800
809.074669	0.164627
809.265708	0.164831
809.456729	0.164785
809.647732	0.165109
809.838717	0.165022
810.029683	0.165352
810.220632	0.165583
810.411562	0.165877
810.602474	0.165750
810.793367	0.165859
810.984242	0.165922
811.175100	0.166253
811.365938	0.166295
811.556759	0.166453
811.747562	0.166024
811.938346	0.166062
812.129112	0.165850
812.319860	0.166014
812.510589	0.166069
812.701300	0.166073
812.891994	0.166148
813.082668	0.166419
813.273325	0.166641
813.463964	0.167096
813.654584	0.167119
813.845186	0.167213
814.035769	0.167261
814.226335	0.167318
814.416882	0.167379
814.607411	0.167393
814.797922	0.167380
814.988415	0.167531
815.178889	0.167537
815.369345	0.167509
815.559783	0.167925
815.750203	0.168113
815.940605	0.168363
816.130988	0.168773
816.321353	0.169088
816.511700	0.169181
816.702028	0.169284
816.892339	0.169525
817.082631	0.169888
817.272905	0.170081
817.463161	0.170375
817.653398	0.170496
817.843617	0.170644
818.033819	0.170652
818.224001	0.170726
818.414166	0.170924
818.604312	0.170933
818.794440	0.170970
818.984550	0.171145
819.174642	0.171022
819.364716	0.171090
819.554771	0.170895
819.744808	0.171100
819.934827	0.171322
820.124827	0.171475
820.314810	0.171586
820.504774	0.171686
820.694720	0.171634
820.884647	0.172092
821.074557	0.172249
821.264448	0.172644
821.454321	0.172815
821.644176	0.172925
821.834012	0.172853
822.023831	0.173158
822.213631	0.173173
822.403413	0.173385
822.593176	0.173404
822.782922	0.173664
822.972649	0.173601
823.162358	0.173644
823.352049	0.173839
823.541721	0.174071
823.731376	0.173918
823.921012	0.174191
824.110629	0.174306
824.300229	0.174128
824.489811	0.174234
824.679374	0.174262
824.868919	0.174272
825.058445	0.174297
825.247954	0.174505
825.437444	0.174753
825.626916	0.175118
825.816370	0.175244
826.005806	0.176008
826.195223	0.176158
826.384622	0.176429
826.574003	0.177004
826.763366	0.177263
826.952711	0.177645
827.142037	0.178009
827.331345	0.177911
827.520635	0.178233
827.709906	0.178282
827.899160	0.178511
828.088395	0.178817
828.277612	0.179125
828.466810	0.179627
828.655991	0.179789
828.845153	0.180160
829.034297	0.180534
829.223423	0.180810
829.412531	0.180961
829.601620	0.181107
829.790691	0.181310
829.979744	0.181185
830.168779	0.180939
830.357795	0.180844
830.546793	0.180694
830.735773	0.180856
830.924735	0.180861
831.113679	0.180851
831.302604	0.180991
831.491511	0.181181
831.680400	0.181162
831.869271	0.181328
832.058123	0.181780
832.246957	0.182047
832.435773	0.182108
832.624571	0.182222
832.813351	0.182584
833.002112	0.182885
833.190855	0.183199
833.379580	0.183672
833.568287	0.184038
833.756975	0.184048
833.945645	0.184217
834.134297	0.184585
834.322931	0.185070
834.511547	0.185307
834.700144	0.185385
834.888723	0.185379
835.077284	0.185820
835.265826	0.185991
835.454351	0.186428
835.642857	0.186529
835.831345	0.186633
836.019815	0.186714
836.208266	0.186707
836.396699	0.187095
836.585114	0.187449
836.773511	0.187442
836.961890	0.187787
837.150250	0.187858
837.338592	0.188172
837.526916	0.188434
837.715222	0.188767
837.903510	0.188973
838.091779	0.189153
838.280030	0.189200
838.468263	0.189331
838.656477	0.189404
838.844674	0.189794
839.032852	0.190023
839.221012	0.190152
839.409153	0.190180
839.597277	0.190578
839.785382	0.190663
839.973469	0.191012
840.161538	0.191202
840.349589	0.191441
840.537621	0.191489
840.725635	0.191897
840.913631	0.192255
841.101609	0.192329
841.289568	0.192445
841.477509	0.192845
841.665432	0.193019
841.853337	0.193328
842.041224	0.193616
842.229092	0.193881
842.416942	0.193964
842.604774	0.194168
842.792588	0.194307
842.980383	0.194709
843.168160	0.194828
843.355919	0.195176
843.543660	0.195376
843.731382	0.195835
843.919087	0.196096
844.106773	0.196302
844.294441	0.196594
844.482090	0.197144
844.669722	0.197416
844.857335	0.197654
845.044930	0.197932
845.232507	0.198165
845.420065	0.198222
845.607605	0.198276
845.795127	0.198455
845.982631	0.198645
846.170117	0.198794
846.357584	0.198647
846.545033	0.199077
846.732464	0.199300
846.919877	0.199593
847.107272	0.199882
847.294648	0.200107
847.482006	0.200370
847.669346	0.200565
847.856667	0.200782
848.043971	0.200945
848.231256	0.201119
848.418523	0.201190
848.605771	0.201205
848.793002	0.201182
848.980214	0.201336
849.167408	0.201696
849.354584	0.201844
849.541742	0.202133
849.728881	0.202763
849.916002	0.202938
850.103105	0.203083
850.290190	0.203370
850.477256	0.203418
850.664304	0.203778
850.851334	0.203816
851.038346	0.204094
851.225340	0.204290
851.412315	0.204316
851.599272	0.204234
851.786211	0.204449
851.973132	0.204772
852.160034	0.205388
852.346918	0.205604
852.533784	0.205626
852.720632	0.205788
852.907462	0.205866
853.094273	0.206298
853.281066	0.206530
853.467841	0.207028
853.654598	0.207128
853.841336	0.207082
854.028056	0.207077
854.214758	0.207454
854.401442	0.207599
854.588107	0.207996
854.774755	0.207738
854.961384	0.208252
855.147995	0.208021
855.334587	0.208206
855.521162	0.208756
855.707718	0.209240
855.894256	0.209558
856.080775	0.209813
856.267277	0.209853
856.453760	0.210063
856.640225	0.210222
856.826672	0.210607
857.013101	0.210946
857.199511	0.210954
857.385903	0.211153
857.572277	0.210987
857.758633	0.211303
857.944970	0.211312
858.131290	0.211845
858.317591	0.211955
858.503873	0.212061
858.690138	0.211970
858.876384	0.212170
859.062612	0.212559
859.248822	0.213052
859.435014	0.213205
859.621188	0.213803
859.807343	0.213480
859.993480	0.213513
860.179599	0.213840
860.365699	0.214281
860.551781	0.214390
860.737846	0.214280
860.923891	0.214522
861.109919	0.214506
861.295929	0.214486
861.481920	0.215043
861.667893	0.215294
861.853848	0.215421
862.039784	0.215698
862.225702	0.216006
862.411603	0.216272
862.597484	0.216724
862.783348	0.217264
862.969193	0.217408
863.155021	0.217531
863.340830	0.217858
863.526620	0.218169
863.712393	0.218487
863.898147	0.218567
864.083883	0.218839
864.269601	0.218773
864.455301	0.219003
864.640982	0.219170
864.826645	0.219493
865.012290	0.219443
865.197917	0.219915
865.383526	0.219938
865.569116	0.220119
865.754688	0.220099
865.940242	0.220185
866.125777	0.220077
866.311295	0.220315
866.496794	0.220621
866.682275	0.220756
866.867737	0.220740
867.053182	0.220834
867.238608	0.220851
867.424016	0.221234
867.609406	0.221403
867.794778	0.221607
867.980131	0.221871
868.165466	0.221710
868.350783	0.222266
868.536082	0.222139
868.721362	0.222162
868.906625	0.222445
869.091869	0.222538
869.277094	0.222984
869.462302	0.223299
869.647491	0.223398
869.832662	0.223782
870.017815	0.223996
870.202950	0.224189
870.388066	0.224407
870.573165	0.224549
870.758245	0.224694
870.943306	0.224752
871.128350	0.224813
871.313375	0.225147
871.498382	0.225006
871.683371	0.225138
871.868342	0.225113
872.053294	0.225281
872.238229	0.225350
872.423144	0.225735
872.608042	0.225590
872.792922	0.225818
872.977783	0.225673
873.162626	0.226008
873.347451	0.226248
873.532258	0.226959
873.717046	0.227305
873.901816	0.227716
874.086568	0.227491
874.271302	0.227834
874.456017	0.227614
874.640715	0.228230
874.825394	0.228348
875.010055	0.228440
875.194697	0.228575
875.379322	0.228364
875.563928	0.228497
875.748516	0.228595
875.933085	0.228774
876.117637	0.228960
876.302170	0.228722
876.486685	0.229002
876.671182	0.228930
876.855661	0.228684
877.040121	0.228898
877.224563	0.228830
877.408987	0.229425
877.593393	0.229477
877.777780	0.229656
877.962150	0.229707
878.146501	0.229838
878.330833	0.229702
878.515148	0.229869
878.699444	0.230369
878.883722	0.230641
879.067982	0.230350
879.252224	0.230194
879.436447	0.230448
879.620653	0.230701
879.804840	0.230914
879.989008	0.230944
880.173159	0.230967
880.357291	0.230724
880.541405	0.230451
880.725501	0.230610
880.909579	0.230817
881.093638	0.230873
881.277680	0.230701
881.461703	0.230795
881.645707	0.230939
881.829694	0.230904
882.013662	0.230653
882.197612	0.230869
882.381544	0.230883
882.565458	0.230839
882.749353	0.230729
882.933230	0.231008
883.117089	0.230652
883.300930	0.230883
883.484753	0.231117
883.668557	0.231329
883.852343	0.231701
884.036111	0.231828
884.219861	0.232268
884.403592	0.232163
884.587305	0.232370
884.771000	0.232462
884.954677	0.232660
885.138335	0.232627
885.321976	0.232758
885.505598	0.232487
885.689201	0.232231
885.872787	0.231651
886.056354	0.231941
886.239904	0.231488
886.423434	0.231592
886.606947	0.231486
886.790442	0.231510
886.973918	0.231409
887.157376	0.231672
887.340816	0.231626
887.524237	0.232016
887.707641	0.232079
887.891026	0.232254
888.074393	0.231771
888.257741	0.231957
888.441072	0.231760
888.624384	0.232321
888.807678	0.232280
888.990954	0.232566
889.174211	0.232121
889.357451	0.232082
889.540672	0.232033
889.723875	0.232307
889.907059	0.232171
890.090226	0.232446
890.273374	0.232179
890.456504	0.232181
890.639616	0.232180
890.822709	0.232297
891.005785	0.232310
891.188842	0.232501
891.371881	0.232602
891.554901	0.232465
891.737904	0.232610
891.920888	0.232344
892.103854	0.232323
892.286802	0.232373
892.469731	0.232527
892.652643	0.232525
892.835536	0.232400
893.018410	0.232647
893.201267	0.232979
893.384106	0.232705
893.566926	0.232610
893.749728	0.232329
893.932511	0.231924
894.115277	0.231928
894.298024	0.231833
894.480753	0.231744
894.663464	0.231598
894.846157	0.231115
895.028831	0.231238
895.211487	0.231161
895.394125	0.230854
895.576745	0.230831
895.759346	0.230947
895.941930	0.230577
896.124495	0.230578
896.307041	0.230292
896.489570	0.230200
896.672080	0.229598
896.854573	0.229570
897.037046	0.229535
897.219502	0.229196
897.401940	0.228564
897.584359	0.228535
897.766760	0.228295
897.949143	0.228329
898.131507	0.228197
898.313854	0.227942
898.496182	0.227676
898.678492	0.227764
898.860783	0.228076
899.043057	0.227985
899.225312	0.228271
899.407549	0.228373
899.589768	0.227960
899.771968	0.227745
899.954151	0.227934
900.136315	0.227947
900.318461	0.228160
900.500588	0.227763
900.682698	0.227936
900.864789	0.227849
901.046862	0.227544
901.228917	0.227537
901.410953	0.227476
901.592971	0.227197
901.774972	0.226970
901.956953	0.226448
902.138917	0.226324
902.320862	0.225842
902.502790	0.225188
902.684699	0.224718
902.866589	0.224437
903.048462	0.224241
903.230316	0.224386
903.412152	0.224260
903.593970	0.223906
903.775770	0.224119
903.957551	0.224144
904.139314	0.224207
904.321059	0.224059
904.502786	0.224188
904.684494	0.223947
904.866185	0.223789
905.047857	0.223828
905.229510	0.224306
905.411146	0.223856
905.592763	0.223345
905.774363	0.222880
905.955943	0.222622
906.137506	0.221728
906.319051	0.221430
906.500577	0.220845
906.682085	0.220422
906.863575	0.219506
907.045046	0.219641
907.226500	0.219739
907.407935	0.219450
907.589352	0.219584
907.770750	0.220004
907.952131	0.220177
908.133493	0.220323
908.314837	0.220126
908.496163	0.220036
908.677470	0.219326
908.858760	0.219293
909.040031	0.218966
909.221284	0.218587
909.402518	0.218481
909.583735	0.217997
909.764933	0.217355
909.946113	0.217064
910.127275	0.216720
910.308418	0.216631
910.489544	0.216082
910.670651	0.215873
910.851740	0.215679
911.032810	0.215098
911.213863	0.214480
911.394897	0.214057
911.575913	0.213965
911.756911	0.213466
911.937890	0.213122
912.118851	0.213271
912.299794	0.213424
912.480719	0.212801
912.661626	0.212688
912.842514	0.212977
913.023384	0.213054
913.204236	0.212645
913.385070	0.212364
913.565886	0.212450
913.746683	0.211404
913.927462	0.211072
914.108223	0.211222
914.288965	0.209980
914.469690	0.209838
914.650396	0.209391
914.831084	0.209225
915.011754	0.209286
915.192405	0.208151
915.373038	0.208686
915.553653	0.208119
915.734250	0.207286
915.914829	0.207702
916.095389	0.206597
916.275931	0.206116
916.456455	0.205922
916.636961	0.205601
916.817448	0.205621
916.997917	0.205098
917.178368	0.204694
917.358801	0.204622
917.539216	0.203709
917.719612	0.203579
917.899990	0.203109
918.080350	0.202273
918.260692	0.202206
918.441015	0.201621
918.621320	0.201063
918.801607	0.200735
918.981876	0.200248
919.162127	0.200108
919.342359	0.199652
919.522573	0.199771
919.702769	0.199207
919.882947	0.198198
920.063106	0.197731
920.243247	0.197159
920.423370	0.196721
920.603475	0.196309
920.783562	0.196113
920.963630	0.195988
921.143680	0.195208
921.323712	0.195154
921.503725	0.194494
921.683721	0.194069
921.863698	0.193626
922.043657	0.193133
922.223598	0.192953
922.403520	0.192011
922.583424	0.191364
922.763311	0.191425
922.943178	0.191081
923.123028	0.190688
923.302859	0.190829
923.482673	0.190130
923.662467	0.189335
923.842244	0.188182
924.022003	0.187967
924.201743	0.187350
924.381465	0.186400
924.561169	0.185625
924.740854	0.185060
924.920522	0.183371
925.100171	0.183391
925.279802	0.183148
925.459414	0.182929
925.639009	0.182408
925.818585	0.181571
925.998143	0.180913
926.177683	0.179854
926.357205	0.179741
926.536708	0.180689
926.716193	0.179754
926.895660	0.179575
927.075109	0.179598
927.254539	0.178814
927.433951	0.178775
927.613345	0.178115
927.792721	0.178328
927.972079	0.177518
928.151418	0.175904
928.330739	0.175512
928.510042	0.174826
928.689327	0.174134
928.868593	0.174432
929.047841	0.174302
929.227071	0.173744
929.406283	0.172831
929.585476	0.172643
929.764652	0.171926
929.943809	0.171136
930.122948	0.170306
930.302068	0.168820
930.481171	0.168100
930.660255	0.166512
930.839321	0.165890
931.018369	0.165815
931.197398	0.165322
931.376409	0.165212
931.555402	0.164570
931.734377	0.164457
931.913334	0.164398
932.092272	0.163550
932.271192	0.163367
932.450094	0.162825
932.628978	0.162210
932.807844	0.161621
932.986691	0.161477
933.165520	0.161072
933.344331	0.160002
933.523123	0.159957
933.701898	0.159734
933.880654	0.159313
934.059392	0.158807
934.238111	0.158045
934.416813	0.157454
934.595496	0.157068
934.774161	0.157192
934.952808	0.156607
935.131437	0.155616
935.310047	0.154153
935.488639	0.153518
935.667213	0.153093
935.845769	0.152495
936.024306	0.151716
936.202825	0.150381
936.381326	0.149163
936.559809	0.148974
936.738274	0.148958
936.916720	0.149307
937.095148	0.148938
937.273558	0.148749
937.451950	0.147452
937.630323	0.147321
937.808678	0.146520
937.987015	0.146535
938.165334	0.145613
938.343635	0.144636
938.521917	0.143728
938.700181	0.143105
938.878427	0.142675
939.056655	0.142302
939.234864	0.142331
939.413055	0.142670
939.591228	0.142585
939.769383	0.142080
939.947519	0.141458
940.125638	0.140389
940.303738	0.139967
940.481820	0.139282
940.659883	0.139052
940.837929	0.136042
941.015956	0.133837
941.193965	0.132320
941.371955	0.131918
941.549928	0.131354
941.727882	0.131595
941.905818	0.131102
942.083736	0.130346
942.261636	0.129748
942.439517	0.129598
942.617380	0.130415
942.795225	0.130641
942.973052	0.129812
943.150860	0.128821
943.328651	0.127785
943.506423	0.126601
943.684176	0.126504
943.861912	0.126328
944.039629	0.127365
944.217328	0.126195
944.395009	0.124157
944.572672	0.123184
944.750317	0.122183
944.927943	0.121631
945.105551	0.122005
945.283141	0.120652
945.460712	0.119315
945.638265	0.118621
945.815801	0.118540
945.993317	0.119111
946.170816	0.118757
946.348297	0.117670
946.525759	0.116230
946.703203	0.115460
946.880629	0.115234
947.058036	0.115717
947.235425	0.114408
947.412797	0.113736
947.590149	0.112325
947.767484	0.113173
947.944800	0.113930
948.122099	0.115022
948.299379	0.113499
948.476640	0.112587
948.653884	0.110573
948.831109	0.109642
949.008316	0.108210
949.185505	0.107646
949.362676	0.107399
949.539828	0.107233
949.716962	0.105531
949.894078	0.105600
950.071176	0.104524
950.248256	0.105079
950.425317	0.105599
950.602360	0.106320
950.779385	0.106176
950.956391	0.104042
951.133380	0.102482
951.310350	0.101601
951.487302	0.101499
951.664235	0.102900
951.841151	0.101580
952.018048	0.101111
952.194927	0.100678
952.371788	0.099243
952.548631	0.098173
952.725455	0.098847
952.902261	0.099050
953.079049	0.096853
953.255819	0.095515
953.432570	0.097546
953.609303	0.095849
953.786018	0.094895
953.962715	0.093097
954.139394	0.094397
954.316054	0.092925
954.492696	0.093132
954.669320	0.093227
954.845926	0.091708
955.022513	0.089222
955.199083	0.090492
955.375634	0.089679
955.552166	0.092118
955.728681	0.090277
955.905177	0.089948
956.081655	0.087900
956.258115	0.088487
956.434557	0.089229
956.610980	0.089599
956.787385	0.088021
956.963772	0.088069
957.140141	0.087065
957.316492	0.088469
957.492824	0.088475
957.669138	0.089578
957.845434	0.090445
958.021712	0.089868
958.197971	0.089693
958.374212	0.088562
958.550435	0.088984
958.726640	0.087604
958.902826	0.086135
959.078995	0.086164
959.255145	0.085492
959.431277	0.083862
959.607390	0.082447
959.783486	0.081838
959.959563	0.084074
960.135622	0.084330
960.311662	0.085621
960.487685	0.085859
960.663689	0.085099
960.839675	0.086565
961.015643	0.087346
961.191593	0.087470
961.367524	0.085645
961.543437	0.082363
961.719332	0.078960
961.895209	0.078014
962.071067	0.076990
962.246907	0.076730
962.422730	0.075803
962.598533	0.073873
962.774319	0.073940
962.950086	0.076062
963.125835	0.078264
963.301566	0.080838
963.477279	0.080300
963.652973	0.080392
963.828650	0.080164
964.004308	0.079648
964.179947	0.079750
964.355569	0.081079
964.531172	0.079430
964.706757	0.078932
964.882324	0.077121
965.057873	0.078144
965.233403	0.077077
965.408916	0.079366
965.584410	0.080621
965.759885	0.081222
965.935343	0.081426
966.110782	0.083868
966.286203	0.081947
966.461606	0.083381
966.636991	0.082320
966.812357	0.084314
966.987705	0.083214
967.163035	0.083133
967.338347	0.082129
967.513641	0.082084
967.688916	0.079175
967.864173	0.080244
968.039412	0.080657
968.214632	0.080555
968.389835	0.078865
968.565019	0.077698
968.740185	0.075656
968.915333	0.075779
969.090462	0.076278
969.265573	0.077500
969.440667	0.076269
969.615741	0.075945
969.790798	0.076777
969.965836	0.078213
970.140856	0.079326
970.315858	0.080392
970.490842	0.080032
970.665808	0.079591
970.840755	0.079551
971.015684	0.082184
971.190595	0.081340
971.365487	0.080917
971.540362	0.079252
971.715218	0.078034
971.890056	0.078610
972.064875	0.079236
972.239677	0.077138
972.414460	0.076428
972.589225	0.075099
972.763972	0.075533
972.938700	0.074955
973.113411	0.076142
973.288103	0.076353
973.462777	0.076884
973.637432	0.076782
973.812070	0.079708
973.986689	0.080128
974.161290	0.081016
974.335873	0.081609
974.510437	0.081477
974.684984	0.079537
974.859512	0.078140
975.034022	0.078311
975.208513	0.079436
975.382987	0.076651
975.557442	0.075271
975.731879	0.074565
975.906298	0.075692
976.080698	0.077934
976.255080	0.078583
976.429445	0.082078
976.603790	0.077537
976.778118	0.075201
976.952427	0.075035
977.126719	0.074656
977.300992	0.073024
977.475246	0.071613
977.649483	0.070216
977.823701	0.070250
977.997901	0.068876
978.172083	0.071376
978.346247	0.073427
978.520392	0.073654
978.694519	0.073769
978.868628	0.074790
979.042719	0.075554
979.216791	0.074129
979.390845	0.073399
979.564882	0.072303
979.738899	0.072627
979.912899	0.071438
980.086880	0.072581
980.260843	0.074261
980.434788	0.074900
980.608715	0.072091
980.782623	0.072556
980.956514	0.075172
981.130386	0.075180
981.304240	0.076201
981.478075	0.077307
981.651892	0.077127
981.825692	0.078566
981.999472	0.078805
982.173235	0.079246
982.346980	0.079433
982.520706	0.077028
982.694414	0.076379
982.868104	0.075025
983.041775	0.073567
983.215428	0.073701
983.389064	0.072131
983.562680	0.070598
983.736279	0.071446
983.909860	0.072303
984.083422	0.073382
984.256966	0.075363
984.430491	0.074675
984.603999	0.075628
984.777488	0.074997
984.950959	0.075335
985.124412	0.076927
985.297847	0.077046
985.471263	0.077795
985.644661	0.075866
985.818041	0.076236
985.991403	0.076720
986.164747	0.076861
986.338072	0.077450
986.511379	0.078461
986.684668	0.077771
986.857938	0.078292
987.031191	0.077854
987.204425	0.079185
987.377641	0.079286
987.550839	0.079110
987.724018	0.079163
987.897179	0.078185
988.070322	0.076112
988.243447	0.076227
988.416554	0.075840
988.589642	0.073768
988.762712	0.074957
988.935764	0.074116
989.108798	0.076602
989.281813	0.076381
989.454811	0.077617
989.627790	0.079367
989.800751	0.080678
989.973693	0.079751
990.146617	0.081423
990.319524	0.081082
990.492412	0.080615
990.665281	0.077993
990.838133	0.077073
991.010966	0.076948
991.183781	0.074796
991.356578	0.073494
991.529356	0.074369
991.702117	0.072982
991.874859	0.072018
992.047583	0.071704
992.220288	0.071282
992.392976	0.073647
992.565645	0.073462
992.738296	0.074162
992.910929	0.073777
993.083543	0.073163
993.256139	0.075080
993.428718	0.077198
993.601277	0.077355
993.773819	0.078682
993.946342	0.075617
994.118848	0.075770
994.291335	0.076702
994.463803	0.077884
994.636254	0.080175
994.808686	0.079950
994.981100	0.078979
995.153496	0.078965
995.325874	0.078644
995.498233	0.079689
995.670574	0.077823
995.842897	0.077436
996.015202	0.076967
996.187488	0.075898
996.359757	0.074113
996.532007	0.073606
996.704239	0.073705
996.876452	0.073393
997.048648	0.073510
997.220825	0.074433
997.392984	0.072810
997.565124	0.072105
997.737247	0.070755
997.909351	0.072070
998.081437	0.071764
998.253505	0.071792
998.425554	0.071884
998.597586	0.072028
998.769599	0.072490
998.941594	0.074131
999.113571	0.075208
999.285529	0.075118
999.457469	0.074696
999.629391	0.074471
999.801295	0.075113
999.973181	0.076628
1000.145048	0.076599
1000.316897	0.076939
1000.488728	0.075787
1000.660541	0.074119
1000.832335	0.074328
1001.004111	0.073804
1001.175869	0.074171
1001.347609	0.073294
1001.519331	0.072882
1001.691034	0.073855
1001.862719	0.072948
1002.034386	0.073339
1002.206035	0.075445
1002.377665	0.075925
1002.549277	0.076779
1002.720871	0.076868
1002.892447	0.076581
1003.064004	0.076154
1003.235544	0.075606
1003.407065	0.076093
1003.578568	0.076927
1003.750052	0.076126
1003.921519	0.074988
1004.092967	0.074688
1004.264397	0.074206
1004.435809	0.073392
1004.607202	0.074326
1004.778577	0.074607
1004.949934	0.073813
1005.121273	0.072119
1005.292594	0.070751
1005.463896	0.073218
1005.635180	0.074020
1005.806446	0.074094
1005.977694	0.076610
1006.148923	0.076267
1006.320135	0.073689
1006.491328	0.075615
1006.662503	0.076257
1006.833659	0.076801
1007.004798	0.075613
1007.175918	0.073965
1007.347020	0.073278
1007.518103	0.071871
1007.689169	0.070913
1007.860216	0.073962
1008.031245	0.071557
1008.202256	0.073154
1008.373248	0.072558
1008.544223	0.073675
1008.715179	0.075321
1008.886117	0.076335
1009.057036	0.076232
1009.227938	0.076121
1009.398821	0.076903
1009.569686	0.077509
1009.740533	0.076239
1009.911361	0.077780
1010.082172	0.077492
1010.252964	0.075255
1010.423738	0.075415
1010.594493	0.075527
1010.765231	0.075344
1010.935950	0.073429
1011.106651	0.074795
1011.277334	0.073825
1011.447998	0.072076
1011.618645	0.072337
1011.789273	0.072654
1011.959882	0.070967
1012.130474	0.070260
1012.301048	0.070509
1012.471603	0.070835
1012.642140	0.070562
1012.812658	0.071349
1012.983159	0.070836
1013.153641	0.071324
1013.324105	0.072362
1013.494551	0.074512
1013.664979	0.075277
1013.835388	0.074667
1014.005779	0.074340
1014.176152	0.074350
1014.346507	0.072586
1014.516843	0.074194
1014.687162	0.072107
1014.857462	0.072257
1015.027744	0.071401
1015.198007	0.069255
1015.368252	0.068934
1015.538480	0.069807
1015.708689	0.069173
1015.878879	0.070859
1016.049052	0.070376
1016.219206	0.069316
1016.389342	0.069631
1016.559460	0.067810
1016.729559	0.069827
1016.899641	0.068818
1017.069704	0.067695
1017.239749	0.067740
1017.409775	0.067422
1017.579784	0.067797
1017.749774	0.069418
1017.919746	0.068584
1018.089700	0.070315
1018.259635	0.071104
1018.429553	0.072466
1018.599452	0.072577
1018.769333	0.071593
1018.939195	0.072042
1019.109040	0.071636
1019.278866	0.070268
1019.448674	0.071111
1019.618464	0.072852
1019.788235	0.072020
1019.957989	0.072122
1020.127724	0.072884
1020.297441	0.073044
1020.467139	0.073579
1020.636820	0.074266
1020.806482	0.075946
1020.976126	0.075816
1021.145752	0.075682
1021.315359	0.077286
1021.484948	0.077437
1021.654519	0.077587
1021.824072	0.078086
1021.993607	0.077471
1022.163123	0.077834
1022.332621	0.078057
1022.502101	0.077456
1022.671563	0.076193
1022.841007	0.074868
1023.010432	0.074029
1023.179839	0.073772
1023.349228	0.073075
1023.518598	0.073012
1023.687951	0.072615
1023.857285	0.071022
1024.026601	0.070889
1024.195899	0.070338
1024.365178	0.070742
1024.534439	0.070211
1024.703682	0.071876
1024.872907	0.073327
1025.042114	0.073082
1025.211302	0.072603
1025.380472	0.071582
1025.549624	0.072722
1025.718758	0.072992
1025.887873	0.071864
1026.056970	0.073922
1026.226049	0.072815
1026.395110	0.072834
1026.564153	0.072467
1026.733177	0.072560
1026.902183	0.074126
1027.071171	0.073722
1027.240141	0.073391
1027.409092	0.073803
1027.578026	0.074927
1027.746940	0.072526
1027.915837	0.073237
1028.084716	0.072947
1028.253576	0.072683
1028.422418	0.072450
1028.591242	0.070533
1028.760048	0.071496
1028.928835	0.071515
1029.097604	0.069384
1029.266355	0.071302
1029.435088	0.069600
1029.603803	0.069158
1029.772499	0.069401
1029.941177	0.069217
1030.109837	0.069409
1030.278478	0.068787
1030.447102	0.067887
1030.615707	0.069169
1030.784294	0.066406
1030.952863	0.067377
1031.121413	0.068117
1031.289945	0.068592
1031.458460	0.070276
1031.626955	0.070864
1031.795433	0.071410
1031.963892	0.071702
1032.132334	0.070341
1032.300756	0.071401
1032.469161	0.069644
1032.637548	0.069926
1032.805916	0.069535
1032.974266	0.068520
1033.142598	0.067289
1033.310911	0.066043
1033.479207	0.067530
1033.647484	0.068713
1033.815743	0.069863
1033.983983	0.071460
1034.152206	0.071252
1034.320410	0.071982
1034.488596	0.070547
1034.656764	0.072023
1034.824914	0.072515
1034.993045	0.070142
1035.161158	0.068511
1035.329253	0.067189
1035.497330	0.067061
1035.665388	0.067959
1035.833428	0.067692
1036.001450	0.069262
1036.169454	0.071470
1036.337440	0.072083
1036.505407	0.074602
1036.673356	0.075492
1036.841287	0.077642
1037.009200	0.076581
1037.177094	0.077914
1037.344970	0.075918
1037.512828	0.073597
1037.680668	0.072600
1037.848489	0.071302
1038.016293	0.070219
1038.184078	0.070517
1038.351845	0.069434
1038.519593	0.069925
1038.687324	0.066650
1038.855036	0.068111
1039.022730	0.069924
1039.190406	0.069358
1039.358063	0.070255
1039.525702	0.070676
1039.693323	0.069155
1039.860926	0.068844
1040.028511	0.068802
1040.196077	0.071008
1040.363625	0.072047
1040.531155	0.070528
1040.698667	0.070901
1040.866161	0.070869
1041.033636	0.070344
1041.201093	0.071977
1041.368532	0.072549
1041.535952	0.072852
1041.703355	0.071891
1041.870739	0.071662
1042.038105	0.072851
1042.205452	0.072342
1042.372782	0.072880
1042.540093	0.072975
1042.707386	0.072392
1042.874661	0.071729
1043.041918	0.071592
1043.209156	0.070629
1043.376376	0.069783
1043.543578	0.070322
1043.710762	0.071491
1043.877927	0.070877
1044.045074	0.068441
1044.212203	0.069858
1044.379314	0.069938
1044.546407	0.070558
1044.713481	0.071608
1044.880537	0.071602
1045.047575	0.073982
1045.214595	0.073071
1045.381596	0.073607
1045.548579	0.074897
1045.715544	0.073696
1045.882491	0.074182
1046.049420	0.072612
1046.216330	0.073886
1046.383222	0.072922
1046.550096	0.071233
1046.716951	0.072035
1046.883789	0.072124
1047.050608	0.072856
1047.217409	0.071531
1047.384192	0.071230
1047.550956	0.072303
1047.717703	0.070350
1047.884431	0.070459
1048.051140	0.069711
1048.217832	0.068990
1048.384505	0.068580
1048.551161	0.068680
1048.717798	0.069748
1048.884416	0.070331
1049.051017	0.070780
1049.217599	0.071738
1049.384163	0.074444
1049.550709	0.074432
1049.717237	0.072988
1049.883746	0.074023
1050.050237	0.075104
1050.216710	0.074459
1050.383165	0.073147
1050.549601	0.072433
1050.716019	0.074198
1050.882420	0.072326
1051.048801	0.072103
1051.215165	0.071895
1051.381510	0.071662
1051.547837	0.071310
1051.714146	0.071511
1051.880437	0.071356
1052.046709	0.071815
1052.212964	0.069565
1052.379200	0.070039
1052.545417	0.069114
1052.711617	0.070008
1052.877798	0.069122
1053.043961	0.067760
1053.210106	0.067695
1053.376233	0.069290
1053.542341	0.068029
1053.708432	0.068304
1053.874504	0.068508
1054.040557	0.069502
1054.206593	0.070076
1054.372610	0.070157
1054.538609	0.069950
1054.704590	0.072534
1054.870553	0.072338
1055.036497	0.072506
1055.202424	0.073955
1055.368331	0.073367
1055.534221	0.071644
1055.700093	0.072437
1055.865946	0.070559
1056.031781	0.071268
1056.197598	0.069315
1056.363397	0.069159
1056.529177	0.068975
1056.694939	0.066799
1056.860683	0.066244
1057.026409	0.069034
1057.192116	0.067887
1057.357806	0.070659
1057.523477	0.072742
1057.689130	0.072263
1057.854764	0.071959
1058.020381	0.072095
1058.185979	0.073780
1058.351559	0.072895
1058.517120	0.070842
1058.682664	0.069943
1058.848189	0.070925
1059.013696	0.070152
1059.179185	0.069676
1059.344656	0.070037
1059.510108	0.070602
1059.675542	0.067858
1059.840958	0.068446
1060.006356	0.067992
1060.171735	0.068800
1060.337096	0.066151
1060.502439	0.064310
1060.667764	0.065497
1060.833071	0.064778
1060.998359	0.065011
1061.163629	0.066184
1061.328881	0.067306
1061.494115	0.069000
1061.659330	0.071369
1061.824527	0.071084
1061.989706	0.069855
1062.154867	0.069390
1062.320010	0.070283
1062.485134	0.070104
1062.650240	0.070259
1062.815328	0.067779
1062.980398	0.069254
1063.145449	0.067050
1063.310482	0.065967
1063.475497	0.067998
1063.640494	0.067952
1063.805473	0.067431
1063.970433	0.067172
1064.135375	0.066558
1064.300299	0.067450
1064.465204	0.065780
1064.630092	0.064584
1064.794961	0.066692
1064.959812	0.066360
1065.124645	0.066934
1065.289459	0.066861
1065.454256	0.068121
1065.619034	0.068054
1065.783793	0.069857
1065.948535	0.068765
1066.113258	0.068634
1066.277964	0.066619
1066.442651	0.067505
1066.607319	0.066115
1066.771970	0.066145
1066.936602	0.066089
1067.101216	0.067469
1067.265812	0.067150
1067.430389	0.068580
1067.594949	0.070676
1067.759490	0.072996
1067.924013	0.073236
1068.088518	0.072617
1068.253004	0.072846
1068.417472	0.071300
1068.581922	0.070593
1068.746354	0.070750
1068.910768	0.071783
1069.075163	0.070420
1069.239540	0.070422
1069.403899	0.071091
1069.568240	0.073452
1069.732562	0.073760
1069.896866	0.075087
1070.061152	0.075170
1070.225420	0.075519
1070.389670	0.073313
1070.553901	0.074525
1070.718114	0.074660
1070.882309	0.073865
1071.046486	0.074125
1071.210644	0.074398
1071.374784	0.073026
1071.538906	0.073000
1071.703010	0.073372
1071.867096	0.074376
1072.031163	0.076156
1072.195212	0.075595
1072.359243	0.074873
1072.523256	0.074792
1072.687250	0.073302
1072.851226	0.073330
1073.015184	0.073909
1073.179124	0.073400
1073.343045	0.071726
1073.506949	0.068264
1073.670834	0.068004
1073.834701	0.070359
1073.998549	0.069101
1074.162380	0.068942
1074.326192	0.070943
1074.489986	0.070758
1074.653761	0.071678
1074.817519	0.073422
1074.981258	0.074844
1075.144979	0.075769
1075.308682	0.073232
1075.472367	0.074159
1075.636033	0.076789
1075.799681	0.075085
1075.963311	0.075466
1076.126923	0.074310
1076.290516	0.073051
1076.454092	0.072211
1076.617649	0.071644
1076.781187	0.071722
1076.944708	0.072102
1077.108210	0.068861
1077.271695	0.069902
1077.435160	0.070682
1077.598608	0.071593
1077.762038	0.071688
1077.925449	0.069994
1078.088842	0.070017
1078.252217	0.069206
1078.415573	0.069014
1078.578912	0.070680
1078.742232	0.073109
1078.905534	0.073806
1079.068817	0.071843
1079.232083	0.072957
1079.395330	0.074989
1079.558559	0.074697
1079.721770	0.074869
1079.884962	0.074148
1080.048136	0.073849
1080.211293	0.069542
1080.374430	0.067655
1080.537550	0.069683
1080.700651	0.068103
1080.863735	0.069508
1081.026800	0.069552
1081.189846	0.069998
1081.352875	0.070680
1081.515885	0.071898
1081.678877	0.073156
1081.841851	0.075292
1082.004807	0.073348
1082.167744	0.074120
1082.330663	0.075151
1082.493564	0.076228
1082.656447	0.078688
1082.819312	0.076477
1082.982158	0.073798
1083.144986	0.073230
1083.307796	0.070055
1083.470587	0.068774
1083.633361	0.070944
1083.796116	0.070703
1083.958853	0.069258
1084.121571	0.067043
1084.284272	0.069698
1084.446954	0.072183
1084.609618	0.073344
1084.772264	0.075337
1084.934892	0.076024
1085.097501	0.074985
1085.260092	0.072222
1085.422665	0.074995
1085.585220	0.074044
1085.747756	0.071985
1085.910274	0.070616
1086.072774	0.070367
1086.235256	0.073515
1086.397720	0.074709
1086.560165	0.074821
1086.722592	0.076531
1086.885001	0.075103
1087.047392	0.077603
1087.209764	0.080619
1087.372119	0.082150
1087.534455	0.084082
1087.696772	0.081486
1087.859072	0.080024
1088.021353	0.080078
1088.183616	0.080308
1088.345861	0.080306
1088.508088	0.079449
1088.670296	0.078343
1088.832486	0.077252
1088.994658	0.076664
1089.156812	0.075640
1089.318948	0.075949
1089.481065	0.074394
1089.643164	0.071458
1089.805245	0.070930
1089.967308	0.070086
1090.129352	0.070396
1090.291378	0.069181
1090.453386	0.068523
1090.615376	0.070564
1090.777347	0.072842
1090.939301	0.075133
1091.101236	0.078050
1091.263153	0.078261
1091.425051	0.078860
1091.586932	0.075777
1091.748794	0.076905
1091.910638	0.075416
1092.072463	0.073404
1092.234271	0.074114
1092.396060	0.072539
1092.557831	0.072836
1092.719584	0.071268
1092.881319	0.073462
1093.043035	0.076849
1093.204733	0.076772
1093.366413	0.079417
1093.528075	0.080194
1093.689718	0.079691
1093.851343	0.081326
1094.012950	0.078670
1094.174539	0.078469
1094.336110	0.074234
1094.497662	0.073011
1094.659196	0.074374
1094.820712	0.072306
1094.982210	0.072388
1095.143689	0.073158
1095.305151	0.072156
1095.466594	0.073200
1095.628018	0.077160
1095.789425	0.081992
1095.950813	0.083845
1096.112183	0.084171
1096.273535	0.086785
1096.434869	0.087402
1096.596184	0.088346
1096.757482	0.088857
1096.918761	0.090381
1097.080021	0.088136
1097.241264	0.085373
1097.402488	0.086735
1097.563694	0.083487
1097.724882	0.081116
1097.886052	0.078797
1098.047203	0.077667
1098.208336	0.076090
1098.369451	0.075485
1098.530548	0.074202
1098.691627	0.074163
1098.852687	0.070177
1099.013729	0.073148
1099.174753	0.074417
1099.335758	0.075219
1099.496746	0.075830
1099.657715	0.079045
1099.818666	0.079949
1099.979599	0.080542
1100.140513	0.080256
1100.301409	0.080475
1100.462287	0.084033
1100.623147	0.083670
1100.783989	0.083770
1100.944812	0.080623
1101.105617	0.082182
1101.266404	0.082735
1101.427173	0.083542
1101.587923	0.083019
1101.748656	0.086983
1101.909370	0.084070
1102.070066	0.084511
1102.230743	0.082624
1102.391403	0.085449
1102.552044	0.082498
1102.712667	0.083081
1102.873271	0.082623
1103.033858	0.083421
1103.194426	0.079414
1103.354976	0.077262
1103.515508	0.074269
1103.676021	0.078077
1103.836517	0.079596
1103.996994	0.081310
1104.157453	0.078353
1104.317893	0.080302
1104.478316	0.084059
1104.638720	0.084920
1104.799106	0.088787
1104.959474	0.092267
1105.119823	0.089717
1105.280155	0.085808
1105.440468	0.086437
1105.600763	0.086109
1105.761039	0.085153
1105.921298	0.082538
1106.081538	0.082158
1106.241760	0.081152
1106.401964	0.080581
1106.562149	0.085175
1106.722316	0.086004
1106.882465	0.082814
1107.042596	0.088437
1107.202709	0.088225
1107.362803	0.086394
1107.522879	0.085497
1107.682937	0.082350
1107.842977	0.080643
1108.002999	0.077515
1108.163002	0.076933
1108.322987	0.075317
1108.482954	0.069215
1108.642902	0.071036
1108.802833	0.071231
1108.962745	0.072703
1109.122639	0.077862
1109.282515	0.077453
1109.442372	0.077282
1109.602211	0.078667
1109.762032	0.078299
1109.921835	0.081918
1110.081620	0.080786
1110.241386	0.083626
1110.401134	0.084028
1110.560864	0.082167
1110.720576	0.083842
1110.880269	0.085497
1111.039945	0.085233
1111.199602	0.090623
1111.359240	0.089555
1111.518861	0.086808
1111.678463	0.084317
1111.838047	0.084978
1111.997613	0.082842
1112.157161	0.082786
1112.316690	0.080736
1112.476202	0.079160
1112.635695	0.076096
1112.795169	0.075788
1112.954626	0.084144
1113.114064	0.083924
1113.273484	0.083584
1113.432886	0.083321
1113.592270	0.085601
1113.751635	0.089392
1113.910983	0.090591
1114.070312	0.091470
1114.229622	0.090963
1114.388915	0.084632
1114.548189	0.086686
1114.707445	0.087546
1114.866683	0.088669
1115.025903	0.089486
1115.185104	0.085117
1115.344287	0.087362
1115.503452	0.086213
1115.662599	0.088415
1115.821727	0.090596
1115.980838	0.090035
1116.139930	0.087315
1116.299004	0.083173
1116.458059	0.081045
1116.617097	0.080695
1116.776116	0.077210
1116.935117	0.080945
1117.094099	0.078562
1117.253064	0.075551
1117.412010	0.075028
1117.570938	0.078089
1117.729848	0.081068
1117.888740	0.081029
1118.047613	0.083906
1118.206468	0.089514
1118.365305	0.084633
1118.524124	0.087887
1118.682924	0.090127
1118.841707	0.090716
1119.000471	0.088516
1119.159216	0.088508
1119.317944	0.087308
1119.476653	0.089071
1119.635344	0.085989
1119.794017	0.094207
1119.952672	0.093417
1120.111308	0.095756
1120.269927	0.098499
1120.428527	0.098158
1120.587108	0.098412
1120.745672	0.098352
1120.904217	0.096326
1121.062744	0.094264
1121.221253	0.091565
1121.379744	0.090318
1121.538216	0.086716
1121.696671	0.083562
1121.855107	0.085072
1122.013524	0.085172
1122.171924	0.087965
1122.330305	0.088824
1122.488668	0.090277
1122.647013	0.089570
1122.805340	0.085382
1122.963648	0.086635
1123.121938	0.086730
1123.280210	0.092677
1123.438464	0.088757
1123.596700	0.092344
1123.754917	0.089479
1123.913116	0.096634
1124.071297	0.093354
1124.229459	0.093551
1124.387604	0.091453
1124.545730	0.094509
1124.703838	0.090671
1124.861928	0.099089
1125.019999	0.094003
1125.178052	0.093143
1125.336088	0.086215
1125.494104	0.093789
1125.652103	0.100936
1125.810083	0.100432
1125.968045	0.097205
1126.125989	0.093991
1126.283915	0.091862
1126.441823	0.088703
1126.599712	0.091215
1126.757583	0.086719
1126.915436	0.081215
1127.073270	0.080145
1127.231087	0.088025
1127.388885	0.090958
1127.546665	0.096842
1127.704426	0.093719
1127.862170	0.091233
1128.019895	0.082765
1128.177602	0.083913
1128.335291	0.085939
1128.492961	0.088816
1128.650614	0.077238
1128.808248	0.071779
1128.965864	0.069883
1129.123461	0.072162
1129.281041	0.081322
1129.438602	0.090174
1129.596145	0.097080
1129.753670	0.094306
1129.911176	0.090142
1130.068665	0.094433
1130.226135	0.099537
1130.383587	0.099043
1130.541020	0.100913
1130.698436	0.096160
1130.855833	0.097173
1131.013212	0.089222
1131.170573	0.092551
1131.327915	0.092286
1131.485239	0.094744
1131.642545	0.094978
1131.799833	0.095854
1131.957103	0.096216
1132.114354	0.097169
1132.271588	0.094371
1132.428803	0.098370
1132.585999	0.098347
1132.743178	0.102062
1132.900338	0.102270
1133.057480	0.104769
1133.214604	0.096103
1133.371710	0.090332
1133.528797	0.090429
1133.685866	0.090764
1133.842917	0.093308
1133.999950	0.087344
1134.156964	0.084587
1134.313960	0.087118
1134.470938	0.081123
1134.627898	0.084684
1134.784840	0.090107
1134.941763	0.088674
1135.098668	0.092478
1135.255555	0.085885
1135.412424	0.091789
1135.569274	0.087850
1135.726107	0.083969
1135.882921	0.082490
1136.039716	0.086375
1136.196494	0.082105
1136.353253	0.080230
1136.509995	0.079609
1136.666717	0.083498
1136.823422	0.079731
1136.980109	0.082862
1137.136777	0.087029
1137.293427	0.091658
1137.450059	0.090202
1137.606672	0.096776
1137.763267	0.093885
1137.919844	0.088837
1138.076403	0.085437
1138.232944	0.086709
1138.389466	0.091084
1138.545971	0.087157
1138.702457	0.087848
1138.858924	0.087857
1139.015374	0.085240
1139.171805	0.092553
1139.328218	0.098145
1139.484613	0.096288
1139.640990	0.098997
1139.797348	0.094795
1139.953688	0.099699
1140.110010	0.099977
1140.266314	0.100141
1140.422600	0.099266
1140.578867	0.095251
1140.735116	0.095556
1140.891347	0.103710
1141.047559	0.105822
1141.203754	0.108487
1141.359930	0.102880
1141.516088	0.102947
1141.672228	0.101475
1141.828349	0.108729
1141.984452	0.115708
1142.140537	0.110549
1142.296604	0.106672
1142.452653	0.091592
1142.608683	0.091569
1142.764695	0.095977
1142.920689	0.093266
1143.076665	0.091404
1143.232622	0.089143
1143.388562	0.089851
1143.544483	0.090752
1143.700385	0.093388
1143.856270	0.102835
1144.012136	0.094387
1144.167985	0.092942
1144.323814	0.095981
1144.479626	0.088873
1144.635420	0.085587
1144.791195	0.078666
1144.946952	0.082321
1145.102691	0.080772
1145.258411	0.080560
1145.414113	0.082041
1145.569798	0.084007
1145.725463	0.081192
1145.881111	0.093394
1146.036741	0.091769
1146.192352	0.091591
1146.347945	0.089420
1146.503519	0.092593
1146.659076	0.084745
1146.814614	0.090754
1146.970134	0.085394
1147.125636	0.084028
1147.281120	0.078905
1147.436585	0.080540
1147.592032	0.087908
1147.747461	0.084071
1147.902872	0.082583
1148.058265	0.093510
1148.213639	0.090284
1148.368995	0.095291
1148.524333	0.100710
1148.679653	0.103868
1148.834954	0.103326
1148.990237	0.102441
1149.145502	0.107678
1149.300749	0.113464
1149.455977	0.102841
1149.611188	0.100036
1149.766380	0.101503
1149.921553	0.100706
1150.076709	0.104304
1150.231846	0.095400
1150.386966	0.087869
1150.542066	0.082907
1150.697149	0.076550
1150.852214	0.081255
1151.007260	0.085501
1151.162288	0.086014
1151.317298	0.092416
1151.472289	0.088132
1151.627263	0.095643
1151.782218	0.091921
1151.937155	0.097333
1152.092073	0.101582
1152.246974	0.106889
1152.401856	0.103512
1152.556720	0.102116
1152.711566	0.091034
1152.866393	0.100573
1153.021203	0.093427
1153.175994	0.092595
1153.330767	0.092811
1153.485521	0.093503
1153.640258	0.088586
1153.794976	0.095111
1153.949676	0.083654
1154.104358	0.083978
1154.259021	0.073930
1154.413667	0.082118
1154.568294	0.087203
1154.722903	0.093763
1154.877493	0.094042
1155.032066	0.094441
1155.186620	0.093734
1155.341156	0.098167
1155.495674	0.101043
1155.650173	0.106609
1155.804654	0.105886
1155.959118	0.108489
1156.113562	0.092977
1156.267989	0.087404
1156.422397	0.087085
1156.576788	0.080977
1156.731160	0.082132
1156.885513	0.078457
1157.039849	0.065303
1157.194166	0.070748
1157.348465	0.066162
1157.502746	0.066111
1157.657009	0.065089
1157.811253	0.059581
1157.965479	0.056147
1158.119687	0.059185
1158.273877	0.066001
1158.428048	0.075217
1158.582201	0.068206
1158.736337	0.076308
1158.890453	0.079419
1159.044552	0.076513
1159.198632	0.089670
1159.352694	0.103400
1159.506738	0.105463
1159.660764	0.098766
1159.814771	0.107047
1159.968761	0.113282
1160.122732	0.113462
1160.276685	0.122187
1160.430619	0.125519
1160.584535	0.116912
1160.738434	0.104003
1160.892313	0.098510
1161.046175	0.091642
1161.200019	0.082539
1161.353844	0.081003
1161.507651	0.076290
1161.661440	0.068896
1161.815210	0.064604
1161.968962	0.067690
1162.122697	0.071207
1162.276412	0.074219
1162.430110	0.078485
1162.583789	0.065150
1162.737451	0.063990
1162.891094	0.059539
1163.044718	0.064832
1163.198325	0.070557
1163.351913	0.069170
1163.505483	0.077074
1163.659035	0.076356
1163.812569	0.083960
1163.966084	0.093632
1164.119581	0.089080
1164.273060	0.093458
1164.426521	0.088030
1164.579964	0.094276
1164.733388	0.095512
1164.886794	0.092602
1165.040182	0.092581
1165.193551	0.093518
1165.346903	0.097263
1165.500236	0.102269
1165.653551	0.098606
1165.806848	0.095146
1165.960126	0.087935
1166.113386	0.090022
1166.266628	0.081369
1166.419852	0.086792
1166.573058	0.086978
1166.726245	0.080878
1166.879414	0.076314
1167.032565	0.084336
1167.185698	0.077170
1167.338812	0.078381
1167.491909	0.078746
1167.644987	0.066050
1167.798046	0.052646
1167.951088	0.049448
1168.104111	0.053956
1168.257117	0.053921
1168.410103	0.062759
1168.563072	0.074398
1168.716023	0.064899
1168.868955	0.074004
1169.021869	0.104707
1169.174765	0.116728
1169.327642	0.124826
1169.480501	0.135252
1169.633343	0.149854
1169.786165	0.127560
1169.938970	0.127932
1170.091757	0.144478
1170.244525	0.127911
1170.397275	0.117287
1170.550007	0.103815
1170.702720	0.102726
1170.855415	0.083984
1171.008092	0.070929
1171.160751	0.081808
1171.313392	0.083624
1171.466014	-0.014391
1171.618619	0.096974
1171.771205	0.096974
1171.923772	0.096974
