sample name	sample
index	12
start time	 02-11-2021  11:34:35 AM
880	0.178114
Peak Time (s)	82.035
Peak Height 	0.1781
calc peak height	80,83
Baseline Time (s)	10.536
Baseline Value 	0.001395
subtract baseline	10,4
Abs	0.142923
Peak Time (s)	82.035
Peak Height 	0.1429
calc peak height	80,83
Baseline Time (s)	8.537
Baseline Value 	0.008819
subtract baseline	10,3
PK_550	0.072393
Peak Time (s)	82.536
Peak Height 	0.07239
calc peak height	80,83
Baseline Time (s)	9.037
Baseline Value 	7.3733E-4
subtract baseline	10,2
PK_880	0.130046
Peak Time (s)	81.535
Peak Height 	0.13
calc peak height	80,83
Baseline Time (s)	10.536
Baseline Value 	7.7736E-4
subtract baseline	10,1


Time (s)	A880-A510	A880-A775	A880-A975	A880	I510	I775	I975	I880	
0.035000	0.001451	-0.000164	-0.001609	-0.002593	4357.538356	18083.587169	3179.747261	9811.246859
0.535500	-0.002336	-0.001241	-0.012521	0.002129	4327.560865	17881.717945	3164.909852	9735.399881
1.067500	0.000385	0.001769	0.000339	-0.001236	4348.940396	18103.795987	3180.319395	9789.365670
1.536000	-0.000458	-0.001703	-0.000322	-0.003266	4353.146883	18053.272010	3181.645630	9822.133311
2.036000	0.003129	-0.001227	0.007943	-0.003874	4368.099314	18091.245958	3190.346812	9831.971360
2.536500	0.001305	-0.001728	-0.002598	-0.000507	4349.617637	17956.211791	3176.786734	9777.641805
3.036500	-0.002345	-0.000383	-0.009372	0.000834	4332.052192	17956.355731	3169.072951	9756.117102
3.539500	0.002115	-0.002064	0.002194	-0.000240	4351.541356	17935.285615	3181.151337	9773.349181
4.037500	0.004290	0.000498	0.000563	0.002512	4349.495302	17928.668923	3176.922878	9729.271497
4.534000	-0.000408	-0.000638	0.000923	0.001186	4337.604862	17935.249708	3178.543709	9750.469372
5.035000	-0.000993	-0.000411	-0.011019	0.001154	4335.667803	17944.253581	3167.224760	9750.992144
5.537000	0.003841	-0.001138	0.000003	-0.002400	4365.372066	18042.737547	3181.120679	9808.127169
6.035500	0.000751	0.000905	0.000034	-0.000263	4346.793006	18039.459661	3179.084066	9773.711381
6.536000	0.001554	0.000134	0.002581	0.000767	4345.993182	17976.661633	3180.549526	9757.183729
7.036000	-0.000282	0.000070	0.004487	0.002294	4334.163316	17921.413867	3180.917677	9732.765119
7.536000	0.001660	-0.000628	-0.001306	-0.001721	4355.179893	18036.873168	3179.198039	9797.184016
8.036500	0.003304	0.000678	0.000703	-0.000910	4358.142671	18054.161140	3180.355905	9784.119159
8.537000	0.003950	0.000116	0.000000	-0.000610	4359.374819	18024.036100	3179.386770	9779.301417
9.037500	-0.000843	0.000000	0.000525	-0.000794	4343.044337	18026.413358	3180.071982	9782.257318
9.537500	0.004064	0.000580	0.007699	-0.002757	4367.447814	18115.455678	3189.000368	9813.894406
10.035500	-0.002022	-0.000284	-0.000995	0.000067	4335.872997	17986.482913	3177.775407	9768.424230
10.535500	0.000000	-0.001951	-0.005423	0.000000	4343.216278	17930.848810	3173.602238	9769.493025
11.035500	0.002874	0.000989	-0.002561	0.002263	4345.370141	17954.384642	3174.173098	9733.254981
11.536000	-0.001923	-0.000665	0.005104	0.000320	4335.331134	17964.392416	3183.435518	9764.352906
12.036500	-0.001973	-0.001141	0.000212	0.000123	4335.847107	17954.723792	3178.884059	9767.521057
12.537000	-0.000189	-0.000119	-0.004870	0.001033	4338.913642	17958.603953	3173.144610	9752.920823
13.039500	-0.003825	0.000271	0.002443	0.001150	4325.778603	17968.078722	3180.046058	9751.047043
13.537000	-0.002760	-0.000708	0.003471	0.000320	4332.397853	17962.899986	3181.846687	9764.355251
14.037500	0.002346	0.000697	0.006458	0.001289	4346.947111	17978.092466	3183.811329	9748.834941
14.535000	0.001856	0.001256	0.004486	0.000964	4346.362164	18008.870006	3182.207178	9754.027370
15.035500	-0.000687	-0.000328	-0.001790	0.000355	4339.547256	17974.905749	3176.735419	9763.795542
15.536000	-0.005244	-0.000788	-0.001032	0.000252	4323.967437	17962.504219	3177.561577	9765.451572
16.036000	-0.000268	-0.001519	-0.005612	-0.000163	4342.844282	17951.494887	3173.576916	9772.103270
16.536500	0.004377	-0.001268	-0.003337	0.000093	4358.389614	17951.342542	3175.503998	9767.995461
17.036500	-0.001162	-0.001570	-0.004321	-0.000088	4339.435396	17947.125227	3174.736970	9770.904979
17.539500	0.003036	-0.000003	0.006848	0.001207	4349.676928	17956.595052	3184.272193	9750.147720
18.037000	0.001088	0.000958	0.007089	0.001637	4341.283420	17975.059192	3184.087214	9743.259408
18.537500	0.001051	0.000131	0.008087	0.000957	4343.548896	17969.952728	3185.728564	9754.152024
19.035000	0.002445	-0.000087	-0.004784	0.000670	4349.484482	17972.331853	3173.572716	9758.745846
19.534500	0.001875	-0.000536	0.008528	0.000902	4346.649227	17948.680719	3186.215421	9755.031222
20.035500	0.001248	0.000415	0.003088	-0.001864	4354.226804	18078.365788	3183.599909	9799.489275
20.536000	0.006660	0.001294	0.005055	-0.000612	4369.067225	18065.305019	3184.297136	9779.333358
21.046500	0.003870	0.001182	0.008961	0.000414	4355.443833	18025.463711	3187.118817	9762.842198
21.536500	0.003954	-0.000268	-0.002565	-0.001115	4361.187022	18028.252097	3177.401696	9787.412384
22.036000	0.005285	0.000279	0.004988	-0.001557	4367.525237	18062.844503	3185.155604	9794.542006
22.537000	-0.000068	0.001574	0.002547	0.000266	4342.040110	18044.361136	3181.003023	9765.228492
23.036500	0.002904	0.000700	0.000342	0.000201	4352.774097	18016.128359	3178.934324	9766.274336
23.537000	0.001309	0.000941	-0.005775	0.002758	4338.118611	17935.500876	3170.651936	9725.353102
24.035000	0.000232	0.001264	0.009810	0.002847	4334.028826	17943.639349	3185.565222	9723.936635
24.541000	0.002950	0.000551	0.000197	-0.000969	4357.091209	18051.765078	3179.923599	9785.069555
25.036000	-0.001394	0.000390	0.002335	0.000211	4337.568645	18004.942292	3180.849906	9766.100862
25.536000	0.005532	0.001177	-0.006889	-0.000377	4364.185423	18052.972905	3172.566313	9775.549125
26.036500	0.002462	-0.000876	-0.000824	-0.000242	4352.774492	17976.608001	3178.236718	9773.373606
26.536500	0.000222	0.000821	-0.001631	-0.001041	4347.676775	18063.741616	3178.229730	9786.235028
27.040000	0.001477	-0.001161	-0.004907	0.000078	4348.158013	17955.605268	3174.020206	9768.248137
27.534000	-0.001277	0.000159	-0.000922	0.001446	4333.648035	17953.904554	3176.521366	9746.311689
28.037000	0.000519	0.000714	-0.003523	0.002043	4337.852645	17952.443343	3173.465199	9736.762594
28.534500	-0.000853	-0.001624	-0.008628	0.001051	4336.520149	17905.755325	3169.569878	9752.637015
29.035000	0.000598	-0.001211	-0.007395	0.000380	4343.986556	17943.365916	3171.369147	9763.394238
29.535500	-0.000495	-0.000048	0.000499	0.001306	4336.880732	17951.597225	3178.020186	9748.557779
30.035500	0.003502	0.000730	0.006572	0.002593	4346.423727	17933.923081	3182.651809	9727.984496
30.536000	-0.001415	-0.000925	-0.002684	0.000437	4336.702466	17951.322126	3175.799868	9762.479036
31.036500	0.003638	-0.000187	0.003971	0.001857	4349.504542	17927.627888	3180.840663	9739.734588
31.536500	-0.001235	-0.001086	0.005413	0.000640	4336.622325	17938.678456	3183.424621	9759.228040
32.037000	-0.001010	-0.000412	-0.002197	0.000706	4337.179900	17959.790375	3176.008361	9758.169502
32.537000	0.003588	-0.000263	0.000650	0.001606	4350.218691	17933.723604	3177.877588	9743.761453
33.037000	0.000741	0.000717	-0.000511	0.002238	4337.948547	17945.784464	3176.156073	9733.658814
33.535000	-0.000077	-0.000720	-0.001782	0.001094	4339.094033	17935.633372	3176.034957	9751.954875
34.035000	-0.001431	-0.000678	-0.004076	0.000716	4335.665827	17950.170476	3174.202620	9757.999848
34.536000	0.002388	0.000435	0.012252	0.001454	4346.514342	17963.257630	3189.338756	9746.191457
35.035500	0.002020	0.000212	0.007581	0.001837	4343.863727	17942.188924	3184.372877	9740.066649
35.535500	0.001639	-0.000131	0.003388	0.001112	4345.074728	17955.439483	3180.997842	9751.660896
36.036500	0.002025	0.001101	0.003614	0.003016	4339.729821	17932.110489	3179.374755	9721.241231
36.539500	0.002724	-0.001094	0.004710	0.000814	4349.962113	17932.349590	3182.570750	9756.437280
37.037000	0.002136	0.000888	0.001777	-0.001324	4355.461027	18075.996495	3181.797851	9790.786407
37.537000	0.001909	-0.001351	-0.001635	-0.002198	4357.761485	18028.271378	3179.341619	9804.878189
38.066000	0.000727	-0.000854	-0.006245	0.001919	4339.019031	17902.355893	3171.000549	9738.742291
38.535500	-0.000201	0.000804	-0.001266	-0.000548	4344.439138	18045.912326	3178.106135	9778.300842
39.035500	0.002278	0.000838	-0.003705	0.000052	4351.081462	18026.107679	3175.191603	9768.653894
39.535500	-0.000446	0.000120	-0.003369	-0.001267	4346.112602	18047.122295	3176.775992	9789.864827
40.034500	0.000661	-0.001511	0.008705	0.001999	4338.508493	17876.879605	3185.314056	9737.479264
40.536000	0.002029	-0.000440	-0.007329	0.001023	4346.767066	17947.809387	3170.823092	9753.089095
41.037000	-0.001956	0.000606	0.003394	0.003036	4325.721684	17914.238150	3179.143264	9720.915967
41.536500	0.001273	-0.001293	-0.000567	0.000205	4346.986884	17946.586215	3178.054373	9766.205933
42.061500	0.001893	-0.000065	0.007816	0.003423	4337.833327	17877.622377	3183.054215	9714.752658
42.534500	0.002772	0.000143	0.003810	-0.001043	4356.720300	18040.074149	3183.501860	9786.251693
43.034500	0.005175	0.000186	-0.001741	0.000491	4359.818062	17988.092788	3176.652174	9761.621887
43.535000	0.003888	0.001844	0.002179	-0.001649	4362.858065	18120.951793	3182.504700	9796.021790
44.035500	0.002262	-0.001047	0.011573	-0.011106	4391.069649	18353.358742	3201.243214	9950.102316
44.535500	-0.001138	-0.004841	0.013009	0.006330	4317.116560	17614.326413	3185.286256	9668.591589
45.036000	-0.025669	-0.021999	0.041839	0.141919	3853.124208	13240.131164	3092.623071	7825.745992
45.536500	-0.017106	-0.025831	0.068604	0.178537	3788.019580	12317.197092	3085.163914	7419.090496
46.039500	-0.002916	-0.013071	0.010279	-0.021954	4411.813392	18311.491559	3211.055235	10131.034466
46.537000	0.004415	0.001144	-0.000146	-0.155949	5026.957316	24595.104229	3359.481291	12781.933922
47.033500	0.020207	0.008558	0.021542	-0.098871	4826.126484	22246.623253	3312.575043	11552.159947
47.537500	0.027085	0.014775	0.020511	-0.068573	4720.413791	21201.060590	3274.124301	10962.162696
48.037500	0.030688	0.018173	0.031587	-0.046055	4639.097311	20411.249087	3260.760012	10549.577074
48.535000	0.035556	0.021274	0.041388	-0.022277	4561.264127	19595.268824	3244.902378	10136.492745
49.036000	0.042765	0.028634	0.045967	-0.021459	4587.191064	19849.274353	3249.119493	10122.690040
49.535500	0.053903	0.033644	0.051590	-0.005364	4567.047387	19421.140388	3237.469214	9856.146619
50.036000	0.056845	0.036049	0.067998	0.036030	4418.373303	17999.354661	3210.779798	9214.352361
50.539000	0.066081	0.038668	0.076411	0.050332	4399.746415	17597.601897	3204.709981	9006.449289
51.036500	0.075570	0.044203	0.082806	0.073544	4350.373241	17009.863708	3187.822808	8683.253397
51.537000	0.078684	0.044800	0.090693	0.097852	4277.122246	16258.185731	3171.952178	8362.827422
52.037000	0.073058	0.047835	0.095512	0.112060	4211.731692	15917.939397	3163.144460	8183.673008
52.534500	0.078709	0.050279	0.092290	0.112199	4229.607324	15987.408572	3160.037357	8181.948393
53.035000	0.080713	0.049953	0.096933	0.116146	4223.280572	15858.919026	3160.678312	8133.224997
53.552000	0.085703	0.052121	0.095544	0.114891	4243.715809	15961.755898	3160.554941	8148.669504
54.035500	0.088371	0.051817	0.099887	0.119752	4236.504941	15806.873944	3160.077775	8089.093889
54.536000	0.094840	0.054747	0.097327	0.116584	4268.460204	15989.943887	3160.638565	8127.850671
55.036500	0.096521	0.052867	0.098668	0.117581	4270.755572	15903.258206	3160.955626	8115.624280
55.536500	0.099595	0.054570	0.109827	0.118240	4278.887759	15934.635293	3170.765237	8107.562431
56.036500	0.098863	0.055621	0.107663	0.125124	4253.393738	15760.236720	3162.298317	8024.039686
56.537500	0.099148	0.057433	0.103259	0.121856	4265.231855	15911.978081	3161.246694	8063.518736
57.037000	0.102008	0.058483	0.112618	0.124626	4265.532061	15860.418067	3167.380286	8030.038847
57.534500	0.101547	0.058637	0.108396	0.125634	4260.627877	15834.878790	3162.504779	8017.906339
58.035500	0.101326	0.061155	0.117961	0.135049	4228.846285	15630.480386	3162.643401	7905.925815
58.535500	0.105945	0.060358	0.109504	0.129530	4262.302181	15770.077867	3159.929995	7971.274387
59.036000	0.104022	0.061905	0.108800	0.132838	4244.943954	15717.864711	3156.253306	7932.011826
59.536000	0.106380	0.061861	0.110986	0.135075	4245.339864	15650.507287	3156.206347	7905.623777
60.039000	0.099528	0.060830	0.111192	0.142399	4199.320881	15406.810725	3149.766882	7820.183574
60.536500	0.103795	0.062207	0.112168	0.139695	4221.765066	15525.266001	3153.083459	7851.564167
61.037000	0.102141	0.061593	0.120014	0.143818	4203.139019	15387.897717	3156.466602	7803.795438
61.537000	0.105103	0.063825	0.116149	0.146570	4203.813395	15372.930788	3150.473955	7772.174832
62.035000	0.107352	0.062761	0.119672	0.148451	4204.994108	15288.375059	3151.952187	7750.669139
62.535000	0.104503	0.063681	0.117040	0.149359	4192.997835	15288.702875	3148.770773	7740.320950
63.038000	0.109494	0.063726	0.126670	0.151517	4202.032516	15228.386622	3155.516178	7715.818685
63.535500	0.109069	0.065250	0.116323	0.152494	4197.553146	15243.964468	3145.338416	7704.756805
64.036000	0.112838	0.067386	0.122739	0.155660	4199.479631	15214.630414	3148.232602	7669.109486
64.536000	0.113960	0.066333	0.121552	0.156124	4201.582800	15171.559962	3146.760153	7663.907312
65.036500	0.111600	0.066181	0.132629	0.157758	4188.865213	15121.062224	3155.258849	7645.627075
65.537000	0.114690	0.065693	0.120699	0.157327	4200.071594	15119.454583	3144.933755	7650.445779
66.037000	0.114786	0.066798	0.129291	0.165598	4174.191199	14918.835027	3145.217679	7558.872588
66.534500	0.116665	0.066230	0.133075	0.160399	4196.570066	15048.121802	3153.267233	7616.231533
67.038000	0.115479	0.066672	0.127202	0.162441	4186.318257	15003.308522	3146.166157	7593.622721
67.535000	0.113754	0.067024	0.121276	0.161978	4182.331538	15026.093305	3141.340311	7598.735497
68.034500	0.115130	0.069053	0.132410	0.170745	4159.214213	14838.824741	3143.423436	7502.768788
68.535500	0.113441	0.066372	0.135333	0.163284	4177.233129	14971.372959	3152.699833	7584.316137
69.036500	0.120314	0.066740	0.131241	0.164970	4193.633672	14934.703171	3147.510880	7565.768904
69.538500	0.121150	0.068743	0.126268	0.165354	4195.072595	14979.800083	3142.762272	7561.557826
70.036500	0.120645	0.067279	0.121977	0.171405	4174.354988	14771.894579	3133.756734	7495.620698
70.537000	0.121585	0.067865	0.140918	0.166307	4193.422402	14928.803305	3155.022332	7551.108507
71.037000	0.126637	0.069271	0.122867	0.168283	4203.239021	14912.974767	3137.225222	7529.526560
71.534500	0.120165	0.069676	0.141263	0.167754	4184.338164	14938.942276	3154.022384	7535.299243
72.034000	0.129048	0.071033	0.134245	0.169584	4206.799691	14925.756536	3146.077799	7515.367788
72.535500	0.122025	0.069202	0.130164	0.167553	4190.860623	14931.304727	3144.259663	7537.483338
73.035500	0.124810	0.071106	0.131602	0.169130	4194.703217	14940.432270	3144.137274	7520.307327
73.535500	0.126341	0.069505	0.128590	0.168540	4201.469902	14912.333802	3142.001630	7526.728819
74.036500	0.120381	0.070483	0.136765	0.175382	4161.121725	14750.741095	3143.175643	7452.791119
74.536500	0.124000	0.069600	0.140794	0.169005	4192.524848	14902.080628	3152.465192	7521.669018
75.037000	0.121865	0.069587	0.145889	0.169365	4184.618112	14891.723705	3156.765329	7517.745513
75.537000	0.125084	0.072737	0.133571	0.171725	4187.336367	14913.658159	3143.583696	7492.165426
76.034500	0.125878	0.070483	0.133059	0.170592	4193.448292	14882.575470	3144.132316	7504.425330
76.534500	0.126773	0.071127	0.136508	0.170854	4195.462032	14893.125406	3146.960452	7501.584964
77.035000	0.119821	0.068754	0.126182	0.169270	4178.475406	14871.339672	3139.251782	7518.786843
77.535500	0.126989	0.071533	0.141918	0.171820	4193.075208	14877.656032	3150.940000	7491.135437
78.036000	0.121595	0.071404	0.124417	0.176923	4160.106233	14733.765649	3131.118603	7436.297790
78.535500	0.123371	0.070005	0.136867	0.170492	4185.815476	14872.110918	3147.603593	7505.512623
79.038500	0.131485	0.070556	0.138080	0.171511	4208.435259	14859.183396	3147.776850	7494.475198
79.536500	0.130036	0.071495	0.139457	0.172655	4200.128957	14853.514996	3147.985635	7482.122108
80.037000	0.123467	0.069773	0.134890	0.177457	4164.262176	14674.739529	3139.706329	7430.593540
80.534500	0.120635	0.071263	0.137445	0.173182	4168.763533	14832.582063	3145.724142	7476.436929
81.037500	0.127001	0.071341	0.137579	0.173546	4187.637215	14824.694171	3145.519488	7472.513363
81.535000	0.130046	0.070435	0.137974	0.173902	4196.179937	14789.984266	3145.554879	7468.684878
82.035000	0.126848	0.070356	0.142923	0.178114	4172.770163	14672.701496	3146.208451	7423.586739
82.536000	0.125235	0.072393	0.135849	0.176305	4173.383075	14777.760771	3141.556104	7442.899766
83.036000	0.126925	0.070802	0.141700	0.176966	4176.613152	14716.150081	3146.142488	7435.842190
83.539000	0.127148	0.072186	0.155770	0.177376	4176.025488	14742.767307	3158.476929	7431.456914
84.036500	0.125014	0.069625	0.130483	0.174914	4177.054073	14740.053152	3138.080764	7457.807424
84.561000	0.130495	0.071030	0.140911	0.176870	4188.177942	14724.983866	3145.526700	7436.861561
85.037000	0.126104	0.068829	0.130599	0.175406	4178.936190	14704.894580	3137.754012	7452.535494
85.536500	0.128010	0.070669	0.140134	0.177960	4176.897350	14685.435401	3143.873559	7425.229593
86.035000	0.124437	0.071330	0.125991	0.182976	4150.179284	14567.472224	3127.311777	7372.081695
86.563500	0.131752	0.071494	0.135233	0.179267	4184.569050	14672.308164	3138.426296	7411.318685
87.035000	0.131022	0.071982	0.140554	0.180044	4179.818476	14664.466708	3142.405844	7403.074098
