sample name	sample
index	760
start time	 03-31-2021  12:19:05 PM
880	0.220824
Peak Time (s)	90.035
Peak Height 	0.2208
calc peak height	90,93
Baseline Time (s)	9.537
Baseline Value 	-0.002958
subtract baseline	10,4
Abs	0.163943
Peak Time (s)	92.037
Peak Height 	0.1639
calc peak height	90,93
Baseline Time (s)	11.537
Baseline Value 	0.003286
subtract baseline	10,3
PK_550	0.076818
Peak Time (s)	90.035
Peak Height 	0.07682
calc peak height	90,93
Baseline Time (s)	9.537
Baseline Value 	1.7142E-4
subtract baseline	10,2
PK_880	0.159546
Peak Time (s)	91.537
Peak Height 	0.1595
calc peak height	90,93
Baseline Time (s)	10.537
Baseline Value 	0.001544
subtract baseline	10,1


Time (s)	A880-A510	A880-A775	A880-A975	A880	I510	I775	I975	I880	
0.036500	-0.000772	0.000335	0.000803	0.001283	6711.710725	40665.585182	3995.511007	22192.351964
0.536500	-0.001368	0.000192	-0.000029	0.003304	6689.334626	40478.331487	3988.724358	22103.110802
1.037000	-0.000497	0.000584	-0.004729	0.003783	6692.678985	40470.911707	3976.518402	22082.025186
1.537500	-0.002698	0.000020	-0.005800	0.005806	6656.822679	40248.352882	3969.297776	21993.216612
2.037500	-0.001098	0.000596	0.000626	0.001335	6708.468049	40683.649436	3994.961940	22190.026520
2.535000	-0.000421	0.000270	-0.003314	0.000818	6718.710717	40700.261817	3986.831395	22212.923896
3.035500	0.002110	0.000355	0.001925	-0.000863	6755.070101	40853.826958	4003.336662	22287.534502
3.535500	-0.004009	-0.000259	-0.002377	0.004924	6653.193924	40300.110120	3979.359466	22031.875815
4.035500	0.000109	0.000153	0.005530	0.000217	6728.445319	40742.235074	4009.426085	22239.570188
4.536000	0.001810	0.000403	0.001003	0.000273	6742.640911	40759.115249	3998.400459	22237.095305
5.036500	0.001794	0.000310	0.002260	0.000161	6743.467415	40760.816494	4001.682471	22242.065556
5.536500	-0.000182	-0.000155	-0.003991	0.000859	6720.413184	40659.777328	3985.133928	22211.112440
6.034000	-0.001248	-0.000167	-0.000961	-0.000209	6720.428452	40751.508608	3994.860138	22258.482691
6.539500	-0.001500	-0.001046	0.000698	-0.000421	6720.095438	40693.575984	3999.333377	22267.912364
7.035000	0.000675	0.000605	-0.002419	0.001221	6724.665226	40694.325733	3987.995424	22195.061926
7.535500	-0.000728	-0.000084	0.000094	-0.000007	6723.168051	40741.079945	3996.895632	22249.499415
8.038500	0.000123	0.000695	0.000603	0.000986	6721.938176	40722.502901	3995.739038	22205.462334
8.535500	-0.000889	-0.000518	-0.004056	-0.000533	6726.311219	40749.147117	3988.273788	22272.885898
9.038500	0.000575	0.000507	0.001832	0.000210	6732.518848	40773.663009	4000.538358	22239.881759
9.536500	-0.000244	0.000000	-0.003653	0.000000	6727.271670	40747.816718	3987.964095	22249.198966
10.036500	0.000366	-0.000113	0.001061	-0.000548	6737.260676	40785.661869	4000.506874	22273.558018
10.537000	0.000000	-0.000552	0.003384	-0.000480	6733.509438	40741.581438	4005.926871	22270.512657
11.037000	-0.001241	0.001066	-0.002728	0.000052	6718.252652	40836.078069	3990.035342	22246.902521
11.537000	0.000837	0.001191	0.000000	0.000809	6729.619412	40781.057209	3994.725423	22213.343790
12.035000	-0.000458	-0.000098	0.000722	-0.000579	6730.410639	40789.635066	3999.767043	22274.904127
12.535500	-0.001839	-0.000143	-0.002277	-0.000290	6716.052938	40760.597406	3991.919906	22262.068483
13.036000	0.001813	0.000303	-0.000020	-0.001240	6755.770565	40882.164894	3999.574025	22304.317656
13.539500	-0.000229	0.000821	-0.000297	0.000601	6722.230378	40766.942423	3994.511972	22222.559112
14.044500	0.000596	0.000802	-0.003390	0.000885	6726.887322	40740.571713	3986.493609	22209.956920
14.536500	-0.000479	0.000941	-0.005231	0.003057	6699.032418	40564.368256	3977.043198	22113.987989
15.037000	-0.000536	0.000848	0.000029	0.001482	6712.026940	40692.757606	3993.189111	22183.525978
15.540000	-0.000269	-0.000445	-0.001084	0.000712	6720.931479	40647.458288	3992.373850	22217.634039
16.037000	0.000357	-0.000147	-0.000794	-0.000263	6734.717969	40757.923809	3995.387568	22260.882222
16.538000	-0.000385	0.000133	-0.001672	0.000035	6725.749544	40756.310730	3992.584151	22247.624697
17.035000	0.000166	0.000066	0.003127	0.000148	6729.524647	40740.695988	4003.794824	22242.622652
17.535000	0.000011	0.000400	0.002044	0.003866	6696.305269	40447.799420	3992.311260	22078.342266
18.035500	0.000534	0.000381	0.001268	0.000571	6729.047904	40731.244199	3998.320742	22223.852728
18.538500	-0.003859	0.000064	0.002779	0.001517	6683.345630	40621.784392	3999.676138	22181.994030
19.036000	0.000076	0.000455	-0.000342	0.001383	6718.128982	40667.198536	3992.542820	22187.895429
19.537000	0.000238	-0.000396	0.004373	0.001592	6717.726155	40575.455134	4003.321119	22178.663411
20.034000	-0.001010	0.000345	0.000793	0.001740	6705.753697	40626.779453	3994.397018	22172.132396
20.537000	-0.001772	-0.000717	0.001055	0.001452	6701.705415	40559.812468	3995.708983	22184.878251
21.035000	-0.000866	0.000619	0.000010	0.001424	6709.689772	40677.916875	3993.282203	22186.082828
21.535000	-0.000903	0.000672	-0.002477	0.001919	6705.136684	40639.586454	3986.207568	22164.218304
22.034500	-0.000866	-0.000188	0.002136	0.001059	6712.817870	40639.608775	3999.229922	22202.238505
22.536000	-0.002139	-0.000814	-0.000673	0.000508	6706.639640	40633.118903	3993.839465	22226.681753
23.038500	-0.000579	0.000086	-0.002380	0.001553	6711.053692	40620.588539	3987.302329	22180.401652
23.536500	0.000109	0.000546	-0.001915	0.002063	6712.575917	40616.150965	3987.194812	22157.832037
24.036500	0.000429	0.000669	-0.000313	0.001873	6716.956569	40643.356623	3991.446716	22166.245981
24.536000	0.002249	0.000294	-0.000380	0.001829	6732.987487	40614.607759	3991.390445	22168.173788
25.037000	-0.001106	0.000470	-0.001586	0.001919	6703.402645	40622.138923	3988.316013	22164.215807
25.537500	-0.001118	0.000309	0.002278	0.003909	6686.311866	40436.305514	3992.767770	22076.482198
26.035000	-0.000678	-0.000082	-0.002657	0.001698	6708.954870	40593.476522	3986.302760	22173.971285
26.535000	-0.001334	0.000622	0.000976	0.001639	6703.841194	40659.562123	3995.071265	22176.583035
27.035500	-0.000282	0.000431	0.001698	0.001802	6711.464326	40628.890564	3996.407570	22169.383993
27.535500	-0.001461	-0.000327	0.005495	0.000984	6708.365773	40633.989337	4007.487746	22205.554955
28.036000	0.001852	0.000844	0.006253	-0.001726	6760.325480	40971.854478	4015.893884	22325.966234
28.536000	0.001043	0.000992	0.001102	0.000973	6729.970459	40749.433203	3996.962576	22206.037807
29.055500	-0.000686	0.000412	-0.000388	0.000450	6719.599378	40744.516310	3994.653900	22229.229790
29.537000	-0.004908	-0.000165	-0.007910	0.005875	6637.619738	40226.546860	3964.241662	21990.189871
30.037500	-0.002867	-0.000869	-0.000552	-0.000488	6708.934316	40714.745289	3996.502762	22270.871427
30.534500	-0.001060	-0.000014	-0.004348	0.000137	6719.077624	40734.696147	3985.996148	22243.135855
31.058000	-0.000314	0.000807	0.001132	0.000957	6718.431115	40734.744138	3997.072641	22206.753545
31.535500	-0.003293	0.000472	0.003774	0.004197	6665.395588	40425.478867	3995.644741	22063.787964
32.035500	-0.001899	0.000022	0.001243	0.002217	6694.079764	40557.612550	3994.331279	22151.056044
32.580000	0.001763	0.000908	0.002792	0.000834	6737.386075	40754.252445	4001.344978	22212.232193
33.036000	-0.001083	0.000011	-0.003899	-0.000099	6720.902427	40757.307271	3987.615327	22253.579278
33.536500	-0.005427	-0.000768	-0.002011	0.005946	6632.661007	40168.884537	3977.820072	21987.084555
34.037000	0.000910	0.000536	0.001906	0.000853	6729.865762	40720.232340	3999.173203	22211.369569
34.537000	0.002193	0.000231	-0.003452	0.000766	6741.682436	40701.315065	3986.627790	22215.220219
35.037500	-0.001308	0.000036	-0.002376	0.001822	6702.496642	40592.942583	3986.673166	22168.481241
35.534500	-0.002738	-0.000125	-0.000957	0.003159	6678.911863	40463.530801	3986.869334	22109.502155
36.035000	-0.001505	0.000753	-0.000971	0.002541	6694.671826	40592.746182	3988.297836	22136.730237
36.535000	-0.001331	-0.000946	-0.008480	0.000944	6709.822038	40583.903938	3974.383808	22207.349027
37.035000	-0.002036	0.000287	-0.004618	0.002415	6691.226031	40563.400464	3979.988474	22142.311307
37.536000	-0.004540	-0.000234	0.000174	0.002424	6669.855442	40517.591486	3991.295321	22141.922483
38.036000	-0.000206	0.000210	-0.000344	0.002611	6705.178681	40539.778352	3989.619268	22133.654731
38.536500	-0.000347	0.000516	-0.004593	0.002491	6705.008222	40576.618302	3979.869389	22138.970973
39.036500	-0.000094	0.000900	-0.002950	0.002759	6704.871756	40586.662276	3983.105802	22127.134393
39.537000	-0.000133	0.001124	0.001636	0.003286	6700.029382	40560.431625	3992.720208	22103.899998
40.040500	-0.000131	-0.000034	0.001378	0.002283	6708.640682	40547.080504	3994.495894	22148.152873
40.534500	0.000921	0.000664	-0.003054	0.002783	6713.366847	40564.093468	3982.804440	22126.056784
41.035000	-0.003431	-0.001110	-0.004746	0.001368	6688.255545	40533.064375	3982.152365	22188.574620
41.535500	-0.001404	0.000442	-0.000609	0.002917	6692.332237	40533.398161	3988.265749	22120.167513
42.038500	-0.000433	0.000275	-0.001396	0.001825	6709.964334	40613.387059	3988.988521	22168.357519
42.536000	-0.000544	0.000268	-0.000412	0.002566	6702.679997	40548.663133	3989.566973	22135.659487
43.036500	-0.001863	-0.000396	0.000375	0.001840	6697.604316	40554.051397	3993.161845	22167.719631
43.536500	-0.001982	-0.000269	-0.000967	0.001893	6696.139454	40560.397732	3989.846318	22165.364346
44.037000	-0.001334	0.000084	0.003352	0.002099	6699.909171	40573.102322	3999.652692	22156.242997
44.537000	0.000739	-0.000508	-0.001341	-0.001618	6749.729492	40844.395860	3997.315699	22321.142924
45.037500	0.000172	0.000923	0.000842	-0.000656	6736.514954	40885.294225	4000.240146	22278.354794
45.534500	-0.001136	0.000004	-0.000400	0.001907	6703.246761	40582.809435	3991.157903	22164.742039
46.035500	0.001553	0.001642	-0.000724	0.001444	6730.317207	40765.075722	3991.489097	22185.221471
46.535500	-0.000837	0.000595	-0.001140	0.000517	6717.719287	40754.575647	3992.702701	22226.247538
47.036000	0.000379	-0.000000	-0.003999	0.000462	6728.656886	40707.661620	3986.053556	22228.705665
47.536500	-0.003107	-0.000473	-0.005220	0.005632	6654.828356	40221.030109	3971.050396	22000.818140
48.045000	0.000618	-0.000255	-0.001095	0.000311	6732.021058	40698.677009	3993.300312	22235.393641
48.537000	0.000041	0.000033	-0.001415	0.000066	6729.153737	40744.926670	3993.122322	22246.257141
49.037000	-0.000449	0.000707	0.001494	0.002931	6700.366644	40555.037116	3993.228634	22119.532238
49.537500	-0.000804	0.000651	0.000577	0.002727	6699.074514	40567.870045	3991.533043	22128.544544
50.037000	0.000811	0.000339	-0.000442	0.000458	6732.413904	40737.470910	3994.507841	22228.891083
50.535000	0.002524	0.001178	0.005372	0.000938	6743.065230	40768.702226	4007.302767	22207.627358
51.035500	0.001332	-0.000213	-0.005269	-0.002587	6763.296806	40954.716086	3990.268933	22364.389152
51.538500	0.002254	0.000926	0.003312	0.001412	6736.635165	40705.628256	4001.204187	22186.643232
52.036000	-0.004745	-0.004170	0.002452	-0.009479	6770.374468	41211.941091	4025.550740	22674.544307
52.536000	-0.042027	-0.003584	0.025602	0.320259	4612.435720	20912.325325	3485.575322	12193.391938
53.037000	-0.041166	-0.006493	0.001586	-0.023508	6580.288295	42255.712365	4058.366399	23321.369190
53.536500	-0.026029	-0.008112	0.001378	-0.091263	7335.790563	48711.538742	4243.342951	26757.078663
54.037000	0.002374	-0.014933	0.022176	-0.182459	8714.317848	58512.254987	4621.124431	32314.671380
54.534500	0.018973	0.001157	0.036195	-0.106380	7981.350379	51351.377531	4399.820972	27599.595085
55.037500	0.030257	0.012067	0.047200	-0.059888	7592.497956	47548.515384	4286.782588	25099.420119
55.535000	0.045011	0.021733	0.056893	-0.047529	7617.955760	47273.130105	4278.655037	24478.593955
56.038500	0.060691	0.030228	0.070986	-0.020058	7493.942868	45380.668811	4238.629133	23160.372376
56.535500	0.079281	0.039807	0.082880	0.007949	7397.284075	43620.319519	4192.030408	21899.589217
57.036500	0.093308	0.048467	0.099229	0.032902	7287.729232	42124.972510	4167.844408	20842.754488
57.536500	0.104136	0.055906	0.106082	0.077636	6964.787981	38905.979542	4066.884099	19093.665155
58.036500	0.099750	0.056029	0.108225	0.124028	6525.943494	35278.136554	3959.581859	17460.361903
58.539500	0.110324	0.060374	0.112681	0.079548	7004.136724	39117.876865	4078.904939	19022.839896
59.037500	0.115883	0.064558	0.123998	0.093265	6929.400709	38333.866936	4072.736178	18523.842916
59.535000	0.120616	0.069426	0.126794	0.118402	6748.496207	36723.057329	4016.897946	17649.277242
60.035000	0.121836	0.069803	0.134403	0.149502	6498.455793	34420.455991	3961.205325	16635.021700
60.535500	0.126560	0.072515	0.134989	0.152270	6514.295896	34416.366191	3956.182708	16548.213642
61.035500	0.128478	0.072718	0.136936	0.157905	6484.238313	34025.885114	3947.750887	16373.184275
61.536000	0.129259	0.074798	0.145332	0.167680	6412.579012	33481.199927	3944.618308	16074.938640
62.036500	0.128662	0.074414	0.141208	0.166163	6419.841215	33560.758507	3938.718978	16120.787230
62.536500	0.130633	0.075210	0.148133	0.170351	6402.364210	33323.140064	3944.915005	15994.624204
63.037000	0.132015	0.074882	0.142370	0.165353	6452.899718	33650.857280	3943.177568	16145.338047
63.545000	0.140464	0.080227	0.145588	0.189284	6331.538775	32367.067143	3897.348040	15439.095021
64.037000	0.142782	0.081576	0.144353	0.181280	6411.967978	33006.262641	3912.085299	15670.998313
64.540000	0.144225	0.081978	0.142510	0.180400	6430.337941	33094.956729	3909.975959	15696.762460
65.046000	0.143637	0.081851	0.150708	0.180237	6426.963789	33097.436123	3928.457436	15701.521697
65.541000	0.143959	0.081887	0.149665	0.182357	6412.759056	32953.419543	3921.424578	15639.550157
66.036000	0.144172	0.081446	0.141516	0.183049	6408.982521	32875.359857	3902.030685	15619.365637
66.535500	0.148822	0.083303	0.145758	0.187107	6413.648013	32724.399849	3902.433022	15501.758111
67.036500	0.146013	0.082998	0.148177	0.189643	6371.746237	32530.630666	3902.178844	15428.814906
67.542000	0.149866	0.084060	0.145764	0.193942	6368.272427	32311.401948	3887.717177	15306.118219
68.037000	0.151871	0.084086	0.147325	0.196564	6363.467406	32136.733714	3885.450502	15231.870568
68.537500	0.152542	0.085065	0.149204	0.199290	6347.534119	32019.826038	3883.643418	15155.152846
69.040000	0.152793	0.085250	0.152918	0.201549	6332.038788	31881.622018	3886.747216	15091.965028
69.540500	0.153465	0.085144	0.148197	0.203404	6322.938394	31751.508808	3872.807935	15040.293186
70.035500	0.155178	0.086017	0.153190	0.206356	6313.443324	31614.308818	3877.112514	14958.561084
70.535500	0.157460	0.084625	0.146499	0.207875	6319.284836	31423.126146	3859.921656	14916.700880
71.036000	0.155327	0.085537	0.159684	0.210318	6284.365611	31323.194300	3882.478855	14849.709216
71.536000	0.154548	0.084882	0.155169	0.212448	6262.361606	31142.182751	3868.460925	14791.603884
72.036500	0.156747	0.084369	0.155527	0.212669	6277.308898	31094.697651	3868.747396	14785.583184
72.537000	0.156939	0.083897	0.149984	0.214216	6267.063364	30964.416789	3854.018262	14743.590506
73.037000	0.154274	0.085092	0.155326	0.216964	6226.435189	30864.582210	3859.378596	14669.319752
73.537500	0.158238	0.085145	0.153042	0.219938	6233.828768	30677.875088	3848.544025	14589.494972
74.037500	0.156448	0.083254	0.153145	0.218961	6227.759681	30619.735627	3850.760143	14615.677721
74.535000	0.156735	0.084454	0.155898	0.220652	6217.298183	30588.502754	3852.942815	14570.410347
75.038000	0.157273	0.083516	0.150098	0.222263	6209.333392	30427.083413	3837.820277	14527.478583
75.535000	0.157334	0.083119	0.162166	0.222516	6207.908106	30386.108381	3862.052565	14520.746325
76.035500	0.157403	0.083426	0.159040	0.224333	6194.975642	30291.066713	3851.833404	14472.531504
76.536500	0.156088	0.081813	0.161743	0.224805	6181.801421	30160.390780	3856.431822	14460.034146
77.036500	0.156981	0.082931	0.153193	0.227150	6171.146192	30083.756929	3834.202562	14398.180255
77.537000	0.156317	0.082453	0.154328	0.228214	6158.506868	29987.811537	3834.345850	14370.229906
78.037500	0.158890	0.083208	0.165259	0.229036	6171.315811	29983.689199	3854.955621	14348.683512
78.534500	0.157482	0.082269	0.157989	0.228778	6162.889990	29941.356614	3840.607169	14355.421271
79.035500	0.158029	0.082191	0.164423	0.229847	6159.080796	29870.329401	3851.564577	14327.443128
79.535500	0.155864	0.082346	0.164619	0.231376	6132.215939	29785.515822	3848.829154	14287.543222
80.035000	0.156863	0.081930	0.160087	0.230468	6146.057618	29815.887378	3841.436408	14311.227297
80.536000	0.158668	0.082067	0.161924	0.231281	6153.280788	29774.228808	3843.520514	14290.030439
81.036000	0.155512	0.080914	0.163052	0.230183	6138.320205	29770.824615	3848.064604	14318.680282
81.536000	0.156113	0.080435	0.160660	0.231063	6136.288529	29687.151205	3841.392238	14295.699945
82.036500	0.157163	0.082078	0.163398	0.231164	6143.182046	29782.074915	3846.765636	14293.079291
82.537000	0.157364	0.079563	0.158170	0.229282	6158.349996	29743.066835	3839.952771	14342.227246
83.034500	0.157432	0.079450	0.163315	0.229396	6158.009078	29729.088719	3850.214381	14339.238045
83.535000	0.155767	0.079498	0.159241	0.229948	6141.866793	29698.086708	3840.773368	14324.796184
84.035000	0.159458	0.080437	0.164936	0.229296	6173.574173	29796.042209	3853.753342	14341.867751
84.538000	0.158430	0.078860	0.170313	0.227953	6175.882289	29781.636832	3867.705240	14377.082000
85.035500	0.157221	0.078599	0.167981	0.227255	6172.134411	29808.556368	3864.293092	14395.423422
85.536000	0.156187	0.077482	0.159434	0.225715	6175.850618	29834.735310	3849.806707	14436.007363
86.038500	0.158415	0.079589	0.163159	0.227044	6182.453465	29882.806810	3854.733150	14400.969389
86.536000	0.156687	0.078480	0.163880	0.226074	6176.887751	29874.194895	3858.228096	14426.537890
87.037000	0.157778	0.078614	0.161503	0.225454	6189.470552	29920.861563	3854.595956	14442.885661
87.537000	0.158405	0.076223	0.160359	0.224818	6198.791456	29812.325529	3853.549514	14459.696310
88.040000	0.156265	0.077670	0.162803	0.223628	6191.780446	29975.624554	3861.064874	14491.219514
88.534500	0.157176	0.076254	0.165186	0.222276	6208.516917	29971.610853	3868.856497	14527.140145
89.038000	0.158549	0.076627	0.164405	0.222612	6216.220140	29973.927520	3866.519039	14518.197776
89.535500	0.155007	0.076269	0.161933	0.221764	6196.247711	30004.313505	3863.130492	14540.754277
90.035500	0.156070	0.076818	0.161505	0.220824	6211.084032	30097.096185	3864.198882	14565.830632
90.536000	0.157669	0.075676	0.159764	0.220010	6229.042423	30076.646471	3862.269321	14587.583409
91.036000	0.154798	0.076278	0.163510	0.219693	6210.038549	30133.965798	3870.757345	14596.056698
91.536500	0.159546	0.075762	0.161443	0.219453	6247.263915	30116.728913	3866.929794	14602.492778
92.037000	0.156711	0.075228	0.163943	0.218362	6234.197158	30151.524145	3874.467997	14631.743030
92.537500	0.157183	0.075634	0.160974	0.218938	6233.424904	30140.892288	3867.027465	14616.292627
93.037500	0.155661	0.075664	0.165357	0.218436	6225.802859	30174.158854	3877.296580	14629.751334
93.535000	0.156394	0.074912	0.161787	0.217792	6236.091774	30167.423033	3871.130608	14647.052144
94.038000	0.157681	0.074296	0.162996	0.216896	6252.455409	30184.892775	3875.562448	14671.163063
94.535500	0.158249	0.074397	0.162470	0.217291	6253.754160	30166.477671	3873.619151	14660.517319
95.041000	0.159112	0.074568	0.160426	0.217476	6258.862153	30165.624265	3868.938246	14655.540478
95.536500	0.155322	0.073554	0.159845	0.216533	6237.488354	30161.243783	3869.698733	14680.946335
96.036000	0.158474	0.074366	0.162647	0.218162	6248.902941	30110.183944	3872.160904	14637.114981
96.537000	0.157411	0.073059	0.168717	0.217117	6248.772552	30093.867408	3887.243093	14665.223613
97.037000	0.158730	0.073556	0.162246	0.217461	6256.105063	30103.409542	3872.792012	14655.961365
97.537500	0.159173	0.072495	0.162039	0.216934	6263.407731	30070.088465	3873.465277	14670.151512
