sample name	sample
index	535
start time	 03-11-2021  05:01:33 PM
880	0.495264
Peak Time (s)	91.566
Peak Height 	0.4953
calc peak height	90,93
Baseline Time (s)	8.535
Baseline Value 	-0.003617
subtract baseline	10,4
Abs	0.328142
Peak Time (s)	92.542
Peak Height 	0.3281
calc peak height	90,93
Baseline Time (s)	9.036
Baseline Value 	-0.001045
subtract baseline	10,3
PK_550	0.162590
Peak Time (s)	92.036
Peak Height 	0.1626
calc peak height	90,93
Baseline Time (s)	8.535
Baseline Value 	4.0746E-4
subtract baseline	10,2
PK_880	0.307740
Peak Time (s)	92.542
Peak Height 	0.3077
calc peak height	90,93
Baseline Time (s)	11.54
Baseline Value 	8.9784E-4
subtract baseline	10,1


Time (s)	A880-A510	A880-A775	A880-A975	A880	I510	I775	I975	I880	
0.036000	-0.004743	-0.000234	-0.004550	0.007375	6919.951590	44531.162208	3954.189750	23686.925887
0.536000	-0.003993	-0.000352	0.000501	0.004265	6955.733190	44818.612942	3974.540763	23836.247840
1.036000	-0.002489	-0.001108	0.000144	0.003516	6976.768740	44817.975273	3975.528231	23872.395278
1.537500	-0.001158	-0.000995	-0.000705	0.000544	7017.246713	45116.524366	3980.889838	24016.371386
2.037500	-0.004447	-0.000419	-0.003657	0.006864	6927.405151	44562.310594	3957.660803	23711.348949
2.540000	-0.001487	0.000314	-0.000389	0.001251	7007.472387	45174.998327	3979.900942	23982.037213
3.037500	-0.000814	-0.000161	0.002374	-0.000278	7028.285451	45277.667235	3990.811545	24056.366740
3.535000	-0.002068	-0.000276	0.001211	0.000719	7007.005181	45169.464895	3985.307855	24007.888260
4.035000	-0.000690	-0.000712	-0.000045	0.001117	7016.262250	45088.380194	3981.112757	23988.555955
4.535500	-0.000906	0.000802	-0.000645	0.001258	7012.881822	45221.847919	3979.235492	23981.681177
5.036000	0.001968	0.000007	0.002555	0.000716	7045.273855	45197.188983	3988.738560	24008.014961
5.536000	0.001431	0.000625	0.001139	0.000724	7040.081373	45256.605981	3985.112290	24007.606676
6.039000	-0.000440	-0.000621	0.005299	-0.000378	7032.779989	45242.585074	3998.567777	24061.245399
6.536500	0.000295	-0.000015	0.005806	0.000566	7030.800044	45209.644072	3997.444544	24015.292998
7.040000	0.000001	-0.000561	0.003507	-0.000467	7037.812981	45257.025296	3994.195583	24065.568168
7.537000	0.001033	-0.000322	-0.001335	0.000545	7038.002512	45181.871222	3979.293640	24016.331021
8.035000	0.000421	0.000505	0.003585	0.000661	7031.095408	45251.092288	3991.508169	24010.701704
8.535000	0.001304	0.000000	-0.001472	0.000000	7045.763592	45266.243477	3980.326191	24042.832657
9.035500	0.000828	-0.000247	0.000000	-0.000273	7043.827077	45268.696028	3984.749923	24056.101041
9.535500	-0.001608	-0.000209	-0.002997	-0.000198	7020.006867	45265.155878	3976.971830	24052.461794
10.036000	0.002108	0.000793	0.000877	0.000872	7045.117873	45258.564052	3984.071098	24000.438309
10.536000	-0.000773	-0.000020	0.002972	-0.000083	7026.828050	45272.429264	3991.843562	24046.876844
11.036500	-0.000477	0.000649	-0.001887	0.000364	7025.397378	45293.993274	3978.357194	24025.122867
11.539500	0.000000	0.000085	0.000759	0.000202	7031.458017	45254.902173	3985.474881	24033.022852
12.037000	0.000354	-0.000199	0.000940	-0.000191	7038.548673	45265.451705	3986.934178	24052.142579
12.537500	0.000596	-0.000107	-0.001624	-0.000309	7041.970505	45285.869045	3980.724242	24057.868519
13.035000	0.001509	-0.000444	-0.002186	-0.000634	7053.758571	45284.767677	3980.124376	24073.711351
13.535000	0.000227	0.000831	-0.001580	0.000010	7035.425812	45346.337406	3980.026413	24042.334072
14.036000	-0.000807	-0.000485	-0.000388	0.001291	7013.506395	45093.453002	3979.802892	23980.083865
14.535500	-0.001648	-0.000825	-0.004492	0.001439	7004.174274	45046.153096	3969.100781	23972.921394
15.035500	0.000290	0.000340	0.000263	0.000628	7030.169444	45238.244802	3983.132018	24012.303919
15.536500	-0.000485	0.000308	0.003149	-0.000579	7034.265553	45352.803126	3993.564853	24071.042059
16.042000	0.001760	0.000662	-0.000213	-0.000324	7053.191264	45362.452927	3984.340149	24058.598181
16.537000	0.000753	-0.000228	0.002092	-0.000666	7046.869501	45309.034324	3991.085175	24075.296992
17.037000	0.000282	0.000511	-0.002081	-0.002771	7062.442057	45587.246827	3985.810343	24178.122057
17.535000	0.001275	-0.000066	-0.000415	0.000747	7038.385428	45187.064661	3981.111707	24006.501274
18.035000	-0.000045	-0.000335	-0.001167	0.000964	7023.809045	45139.831662	3978.660879	23995.975822
18.535500	0.000978	0.000430	0.002225	0.001612	7027.362303	45151.214129	3985.616430	23964.539551
19.035500	-0.000430	0.000885	-0.000838	0.001750	7012.738044	45182.080146	3977.505714	23957.849467
19.536000	-0.000539	0.000458	0.003953	0.001376	7015.233714	45176.861732	3990.621453	23975.970337
20.035500	-0.000185	-0.000238	-0.001502	0.000918	7022.917469	45153.710003	3977.930361	23998.204224
20.539000	-0.001968	0.000047	0.001672	0.000899	7006.243550	45183.226725	3986.021315	23999.111307
21.037000	0.000614	0.000538	0.000876	0.001653	7023.520747	45157.737253	3982.086471	23962.520237
21.537000	-0.000585	-0.000254	0.001789	0.001295	7015.565541	45115.463079	3985.311987	23979.878024
22.037000	-0.000475	-0.000130	-0.001478	0.000899	7020.345562	45166.064144	3978.037052	23999.117112
22.535000	0.000580	0.000270	-0.001487	0.001463	7025.002160	45150.180784	3976.594125	23971.767714
23.035500	0.001072	-0.000301	0.001230	0.001238	7031.800022	45116.592189	3984.038340	23982.679675
23.535500	-0.000065	0.000437	0.002626	0.002021	7013.616971	45112.146978	3985.594705	23944.692110
24.036000	-0.000942	-0.000337	0.000601	0.001384	7011.352285	45098.825355	3982.070548	23975.565603
24.536000	0.000429	-0.000592	-0.000897	0.001200	7026.060045	45091.990767	3978.746380	23984.520154
25.039000	-0.001754	-0.000419	-0.003674	0.000850	7008.738924	45142.808960	3972.630585	24001.520766
25.536500	0.000075	-0.000167	-0.003606	0.001319	7021.580032	45121.642274	3971.621256	23978.727048
26.037000	-0.000178	0.000343	0.000903	0.001392	7018.498229	45164.059473	3982.815336	23975.174197
26.534500	0.001131	0.000424	-0.000151	0.001665	7028.307141	45145.475068	3979.457584	23961.965042
27.035000	-0.000659	0.000169	0.004018	-0.000206	7029.079198	45302.842916	3994.835935	24052.870950
27.535000	0.004512	0.000239	0.008716	-0.000946	7085.498956	45381.852743	4008.868153	24088.930914
28.035000	0.000557	0.000192	0.003464	0.000040	7038.280287	45280.992179	3992.785500	24040.874376
28.535500	0.000884	0.001048	0.000484	0.000546	7036.575399	45315.167688	3983.900922	24016.272394
29.035500	0.001820	0.001004	0.000879	0.000308	7047.745859	45334.133247	3985.508689	24027.832256
29.538500	0.000136	0.000223	0.006666	-0.000688	7041.193359	45355.148962	4002.890981	24076.339736
30.036500	0.000372	0.001211	0.005013	0.000879	7028.562187	45298.553054	3994.603635	24000.082127
30.537000	-0.001393	-0.000042	-0.002800	0.001845	7002.750965	45082.708113	3972.324869	23953.218586
31.037000	-0.000376	0.000205	-0.000703	0.002299	7008.055852	45062.585557	3976.459341	23931.213133
31.537000	0.001767	0.000034	0.002859	-0.000597	7055.861395	45327.697922	3992.866646	24071.889279
32.034500	0.001331	-0.000540	-0.006380	-0.000464	7050.440794	45258.807841	3969.135347	24065.419357
32.535000	0.001499	0.000177	0.001501	-0.000663	7053.936787	45348.166167	3989.565320	24075.121472
33.035500	0.001977	0.000571	0.003420	-0.000141	7053.524128	45335.730817	3993.138021	24049.709390
33.536000	-0.001137	0.000062	0.003786	0.000972	7013.403378	45177.626587	3991.224848	23995.558182
34.038500	-0.001584	0.000557	0.005144	0.001752	7001.829695	45149.922659	3992.702857	23957.715731
34.536000	-0.000854	0.000005	-0.000889	0.001424	7011.811289	45128.157305	3978.200996	23973.652750
35.036500	-0.001315	-0.000764	-0.001988	0.001043	7011.057020	45090.561105	3976.389023	23992.141052
35.537000	-0.001029	0.000597	-0.000994	0.001530	7009.158994	45175.407937	3977.668230	23968.516932
36.037000	-0.001887	-0.000628	0.001079	0.000623	7009.616171	45144.434967	3985.215900	24012.517642
36.535000	-0.002103	-0.000139	0.001319	0.001333	7000.885500	45123.024638	3984.022262	23978.047107
37.034500	0.000674	0.000001	0.005117	0.001607	7024.525468	45110.053665	3993.007816	23964.774179
37.535000	0.000206	-0.000052	0.003564	0.001377	7022.273134	45127.205479	3989.625207	23975.924977
38.035500	0.000242	0.000721	0.000442	0.001850	7018.134385	45156.327789	3980.488930	23952.981729
38.538500	0.000146	0.000150	-0.000837	0.001067	7024.639700	45176.996370	3979.233839	23990.978948
39.035500	-0.000494	0.000364	0.004245	0.001540	7014.113427	45151.776633	3990.947310	23968.012359
39.536500	-0.000735	0.000573	-0.000210	0.001743	7009.919489	45152.319527	3979.109865	23958.166130
40.036500	0.002055	-0.000303	0.001617	0.001251	7041.014550	45115.108951	3984.986887	23982.042956
40.536500	-0.001466	0.000259	-0.001183	0.001282	7007.373571	45166.602863	3977.816681	23980.521448
41.037500	-0.001987	0.000194	-0.001401	0.001671	6998.804267	45122.592781	3976.284432	23961.668236
41.534500	0.002686	0.000779	0.000887	0.001652	7043.202109	45181.281655	3982.117955	23962.587739
42.035500	-0.000081	0.000006	0.001951	0.001138	7021.810029	45156.040677	3986.124098	23987.499372
42.535000	-0.001483	-0.000127	0.002625	0.001393	7006.165583	45118.372774	3987.189923	23975.137498
43.038500	-0.001433	0.000193	0.006485	0.001605	7004.644297	45128.853531	3996.521163	23964.866434
43.536000	0.003102	0.000028	0.003854	-0.002877	7090.506601	45550.328050	4001.283680	24183.324438
44.036000	0.000528	0.000027	0.000132	-0.000855	7046.521765	45352.279844	3986.566561	24084.502691
44.536500	0.001345	-0.000572	0.000189	-0.000702	7052.848665	45278.986794	3986.323726	24077.045521
45.036500	-0.000648	0.000190	0.007865	0.000075	7026.514355	45277.540781	4004.019774	24039.203911
45.537000	-0.002066	-0.000106	0.002662	0.002321	6991.941384	45030.326994	3984.923403	23930.148218
46.034500	0.000541	0.000645	0.004132	0.000641	7032.431067	45266.688903	3992.958378	24011.679352
46.535000	-0.000088	-0.000499	0.003945	-0.000620	7038.421002	45278.002558	3995.712064	24073.037276
47.034500	-0.001387	0.000319	0.004860	0.002492	6996.717748	45054.941636	3990.085761	23921.880649
47.534500	-0.001128	0.000354	0.004463	0.003780	6987.047921	44933.597612	3985.791252	23859.628548
48.035500	0.001148	0.000082	0.003447	-0.000049	7044.747013	45278.976320	3992.969877	24045.197023
48.536000	0.000068	0.000042	0.005593	0.000149	7032.596536	45255.787384	3997.967017	24035.559974
49.036000	0.002010	0.000158	0.003852	0.000872	7044.180397	45196.692471	3991.650923	24000.415059
49.536500	0.000503	-0.000036	-0.000839	0.001955	7019.617380	45072.642825	3976.986547	23947.906858
50.037000	0.001160	0.000059	-0.001123	0.000722	7037.535207	45201.662831	3979.384477	24007.736050
50.537000	0.000229	-0.001266	0.000076	0.003536	7002.106630	44800.800918	3975.305829	23871.436068
51.034500	-0.037011	-0.012186	-0.006245	0.329751	4682.971720	22200.437954	3389.990374	12797.356890
51.535000	-0.030414	-0.003798	-0.008440	0.111627	5883.538308	35387.632910	3717.683520	19251.743425
52.038000	-0.023630	-0.012617	-0.002018	-0.084893	7657.817017	52930.357685	4215.926925	28606.289561
52.535500	-0.013071	-0.046800	0.021457	-0.203255	9298.221499	63622.951846	4731.431145	36658.476296
53.036000	0.017301	-0.016343	0.046119	-0.145526	8908.311785	59929.353565	4595.788827	32457.122076
53.536000	0.032856	0.008146	0.060057	-0.041818	7806.671738	50426.932206	4275.613606	26179.416066
54.036500	0.067909	0.027427	0.089463	0.004106	7685.663027	47601.220878	4223.576105	23843.912441
54.537000	0.097863	0.046991	0.115896	0.063546	7372.287055	43683.111742	4125.334849	21165.513430
55.037000	0.138382	0.068988	0.145985	0.107962	7332.434593	41633.245887	4084.962207	19390.250338
55.534500	0.166601	0.085368	0.167438	0.140759	7286.079978	40197.894896	4053.930497	18191.155509
56.035000	0.190146	0.100266	0.194240	0.195555	6982.352142	36927.495486	3980.724844	16379.124986
56.538000	0.204618	0.110990	0.212199	0.249365	6629.821503	33717.430402	3893.605990	14808.880299
57.035500	0.221380	0.121708	0.223120	0.288988	6439.162044	31735.676792	3828.863350	13770.871500
57.535500	0.229653	0.126127	0.242204	0.318075	6274.080994	30145.624427	3807.286028	13066.933672
58.036000	0.236396	0.133413	0.258685	0.354351	6053.021849	28388.840718	3766.022763	12252.565828
58.536500	0.250912	0.142327	0.265510	0.386357	5929.015824	27070.986512	3716.180189	11588.414594
59.036500	0.261205	0.146896	0.278900	0.403819	5879.616265	26365.138167	3708.389461	11246.188075
59.536000	0.264021	0.150997	0.280998	0.421441	5780.130074	25647.045435	3679.344719	10914.497113
60.037000	0.272118	0.154657	0.288691	0.425239	5808.674029	25639.876548	3686.535874	10844.761553
60.534500	0.274645	0.156719	0.290933	0.441831	5716.343071	24892.898593	3660.360513	10547.121323
61.037500	0.277787	0.158951	0.296612	0.455670	5648.104910	24313.966065	3645.858721	10307.430427
61.535500	0.281582	0.161245	0.307146	0.452639	5691.455441	24577.631796	3670.117605	10359.271350
62.035000	0.281651	0.161823	0.302776	0.453036	5689.362153	24586.697431	3661.506434	10352.472857
62.535500	0.284520	0.162379	0.308488	0.457853	5676.922340	24375.300722	3663.114802	10270.310840
63.036000	0.285923	0.162771	0.303121	0.455950	5698.059078	24488.899731	3656.904866	10302.662857
63.536000	0.282288	0.164900	0.305108	0.464976	5617.992731	24149.359658	3644.433008	10150.490226
64.039000	0.285844	0.165549	0.313230	0.461751	5660.586127	24339.464325	3664.637429	10204.504354
64.537000	0.286171	0.164812	0.306377	0.463988	5648.518014	24193.354761	3648.409320	10166.988458
65.039500	0.285989	0.164796	0.305549	0.468282	5620.454557	23983.493384	3639.415504	10095.540740
65.540000	0.284014	0.163376	0.307704	0.476112	5559.982119	23540.020783	3629.571861	9967.053353
66.049500	0.285662	0.165825	0.305390	0.475630	5573.002679	23679.527901	3626.421776	9974.900638
66.540000	0.288060	0.165933	0.304248	0.480037	5560.721813	23475.214934	3616.961604	9903.511577
67.036000	0.286676	0.164671	0.308302	0.482888	5535.010791	23281.653064	3619.002056	9857.713640
67.536000	0.283354	0.164904	0.308558	0.490742	5468.365509	22927.828903	3606.208490	9733.112280
68.036000	0.290638	0.165508	0.308481	0.489495	5519.086003	23013.197113	3608.162683	9752.740070
68.570000	0.291333	0.166841	0.314166	0.492653	5504.341285	22929.034332	3612.404741	9703.128754
69.039000	0.290617	0.164299	0.316051	0.492787	5499.267037	22806.185647	3615.358124	9701.021303
69.540000	0.286392	0.166163	0.308108	0.500987	5426.284182	22518.510734	3588.572156	9573.913746
70.040500	0.293405	0.166063	0.313436	0.495895	5497.362193	22744.800617	3605.748297	9652.557862
70.537500	0.295242	0.165539	0.320425	0.497135	5500.919058	22664.549345	3615.402760	9633.325663
71.040500	0.292934	0.167033	0.314277	0.498458	5479.363732	22672.348852	3602.881309	9612.863286
71.535500	0.291484	0.165975	0.305506	0.501736	5451.553789	22476.289112	3583.135721	9562.414374
72.036000	0.294649	0.167173	0.318368	0.498217	5490.950113	22689.619905	3610.115671	9616.576290
72.536000	0.298256	0.167335	0.313592	0.498734	5509.363457	22673.494862	3601.286178	9608.588557
73.036500	0.297444	0.166072	0.317484	0.498440	5506.275527	22629.538852	3608.260646	9613.139004
73.536500	0.295343	0.165638	0.309119	0.502962	5467.003022	22406.084854	3587.002794	9543.643641
74.037000	0.298167	0.166849	0.316874	0.497391	5516.876802	22712.475348	3608.995451	9629.355530
74.546500	0.298976	0.166921	0.318995	0.497154	5523.167981	22726.578764	3612.957269	9633.035173
75.037500	0.296063	0.165364	0.319080	0.496289	5510.877727	22695.088993	3614.561196	9646.450444
75.537500	0.297470	0.166458	0.314398	0.502925	5479.769079	22444.590435	3595.696230	9544.217639
76.035000	0.298236	0.167459	0.319989	0.497243	5518.184446	22747.016575	3614.484629	9631.650142
76.535500	0.297497	0.166784	0.318503	0.496777	5516.542307	22737.474680	3612.763424	9638.872623
77.037000	0.298842	0.166562	0.321788	0.495989	5529.368297	22763.310607	3619.656386	9651.101541
77.536000	0.297025	0.165897	0.318707	0.501752	5484.077347	22472.063831	3604.770968	9562.172796
78.036500	0.299964	0.165972	0.323856	0.495719	5537.772971	22748.723094	3623.642699	9655.299650
78.536500	0.297290	0.164718	0.315202	0.493586	5534.506282	22788.828643	3612.577395	9688.531888
79.040000	0.301801	0.165308	0.317584	0.494975	5553.432980	22752.382630	3614.252932	9666.877383
79.537000	0.295092	0.164930	0.316212	0.499964	5483.216504	22509.009855	3603.595147	9589.636559
80.087000	0.300036	0.164316	0.319873	0.492836	5555.707053	22804.785301	3621.764229	9700.263573
80.538500	0.299479	0.164755	0.320997	0.492572	5553.927361	22836.970713	3624.136166	9704.401253
81.038000	0.298662	0.164516	0.322843	0.492312	5550.533445	22837.918547	3627.746289	9708.465236
81.538000	0.299662	0.165489	0.322337	0.498570	5518.777595	22597.183828	3616.209759	9611.121585
82.036500	0.300469	0.162952	0.316449	0.490051	5575.373099	22869.879122	3620.676164	9743.982486
82.657000	0.295372	0.164348	0.319681	0.496347	5506.399938	22646.259010	3615.477588	9645.545767
83.036500	0.301338	0.165602	0.316184	0.491565	5571.420473	22922.072429	3617.652755	9720.179836
83.539500	0.297827	0.163768	0.315606	0.495676	5525.138637	22650.375836	3609.744525	9655.962779
84.036500	0.303283	0.163596	0.322066	0.489643	5595.206937	22918.205012	3631.005992	9750.406774
84.537500	0.301106	0.163907	0.318159	0.489252	5584.192607	22950.529750	3624.959466	9756.572855
85.043500	0.302897	0.163566	0.326210	0.489966	5590.830781	22901.994715	3637.632312	9745.323631
85.569500	0.301704	0.163455	0.321509	0.489097	5588.830578	22936.811994	3630.985404	9759.015973
86.035500	0.302547	0.163449	0.327228	0.489334	5592.571687	22925.619702	3640.510937	9755.276917
86.535500	0.304980	0.163855	0.322538	0.489569	5606.176749	22933.555843	3631.949203	9751.580311
87.039000	0.302179	0.163043	0.318631	0.489945	5586.535506	22878.930896	3624.582381	9745.652744
87.538500	0.300604	0.162746	0.323632	0.495146	5545.120304	22628.074052	3624.240447	9664.216692
88.039500	0.301941	0.161751	0.327134	0.488267	5595.418750	22896.614617	3642.213069	9772.132751
88.537000	0.305418	0.162649	0.320030	0.489935	5606.620240	22861.292732	3626.997749	9745.812714
89.034500	0.304597	0.163508	0.321248	0.491191	5593.757886	22843.066429	3626.930649	9726.043843
89.534500	0.302547	0.161977	0.319484	0.495647	5553.879978	22570.577881	3616.328912	9656.421449
90.051000	0.302197	0.160178	0.315386	0.489332	5590.421086	22775.795249	3620.089828	9755.311271
90.538000	0.307671	0.162129	0.319020	0.491357	5611.784806	22772.406400	3622.832619	9723.445780
91.038000	0.304275	0.160181	0.319884	0.490503	5596.021138	22722.498687	3625.771956	9736.864358
91.566000	0.307011	0.161719	0.325964	0.495264	5583.537006	22576.224656	3628.037047	9662.373472
92.036000	0.306184	0.162590	0.322450	0.494278	5584.511686	22660.349846	3623.702276	9677.733002
92.542000	0.307740	0.161521	0.328142	0.493712	5597.602653	22637.512291	3634.478543	9686.560913
93.039000	0.302346	0.161203	0.332778	0.494202	5561.462495	22600.929937	3641.704040	9678.924014
93.685000	0.304050	0.160073	0.326119	0.495506	5563.905941	22491.052298	3627.887304	9658.616582
94.219500	0.304811	0.159637	0.320892	0.495306	5569.776060	22480.405554	3619.293726	9661.715039
94.579500	0.308296	0.159359	0.323747	0.496825	5581.838096	22399.737805	3621.569869	9638.136157
95.083500	0.303195	0.158763	0.322762	0.496443	5552.979706	22390.137004	3620.540846	9644.054581
95.535000	0.304707	0.159098	0.326246	0.502804	5523.646403	22122.109962	3615.658952	9546.056797
96.035500	0.310186	0.159981	0.323359	0.499383	5577.734082	22313.201740	3616.564758	9598.591019
96.536000	0.304699	0.159429	0.328715	0.500170	5539.490161	22253.525994	3624.339254	9586.462360
97.039000	0.306717	0.158901	0.322822	0.500538	5549.501351	22213.749415	3613.704157	9580.810420
