sample name	sample
index	902
start time	 04-08-2021  03:43:39 PM
880	0.536343
Peak Time (s)	102.038
Peak Height 	0.5363
calc peak height	100,103
Baseline Time (s)	11.036
Baseline Value 	-0.00279
subtract baseline	10,4
Abs	0.347114
Peak Time (s)	100.535
Peak Height 	0.3471
calc peak height	100,103
Baseline Time (s)	10.535
Baseline Value 	2.8319E-4
subtract baseline	10,3
PK_550	0.196522
Peak Time (s)	101.038
Peak Height 	0.1965
calc peak height	100,103
Baseline Time (s)	10.035
Baseline Value 	6.4072E-5
subtract baseline	10,2
PK_880	0.323277
Peak Time (s)	102.539
Peak Height 	0.3233
calc peak height	100,103
Baseline Time (s)	9.537
Baseline Value 	0.001451
subtract baseline	10,1


Time (s)	A880-A510	A880-A775	A880-A975	A880	I510	I775	I975	I880	
0.034500	-0.001362	-0.000111	0.005284	0.001119	6892.314972	42502.204016	3958.091526	22807.237721
0.535000	-0.001800	0.000093	-0.000079	0.004243	6860.087173	42237.402053	3937.924665	22664.826191
1.035500	-0.000494	0.000212	0.003352	0.003560	6878.051493	42309.927647	3947.651564	22695.883056
1.538000	-0.002182	0.000036	0.001838	0.000646	6889.155746	42558.651388	3950.980759	22828.872819
2.036000	-0.001912	-0.000073	0.001382	0.000578	6892.235869	42554.991853	3950.060390	22832.031553
2.536500	-0.000711	0.000804	0.005111	0.002101	6889.303428	42496.150634	3955.324550	22762.372523
3.036500	0.001205	0.000554	0.001554	-0.000645	6931.848799	42723.906048	3953.383509	22888.088610
3.537000	-0.000125	0.000002	0.008036	-0.000111	6914.790481	42624.648456	3967.688959	22863.589897
4.037000	-0.000785	-0.000483	0.004910	-0.000140	6909.022934	42583.025227	3960.216359	22864.904058
4.537500	-0.001441	-0.000222	0.003108	-0.000408	6905.487611	42631.335956	3956.534402	22877.206916
5.037500	-0.001024	0.000083	0.000884	0.000373	6902.173984	42587.937066	3949.362854	22841.423450
5.535000	0.001181	0.001152	0.002929	0.000735	6918.988026	42652.412187	3953.371562	22824.812295
6.035500	0.000785	-0.000199	-0.000304	-0.000164	6923.599761	42611.212978	3947.813993	22866.044533
6.536000	-0.000646	0.000890	0.004148	-0.000094	6909.876070	42704.256676	3958.274473	22862.808521
7.036500	0.000567	0.000274	0.001715	-0.000140	6921.385126	42652.116525	3952.564477	22864.923580
7.536500	0.000867	0.000847	0.002578	0.000329	6919.833207	42661.600724	3953.503265	22843.404079
8.037000	0.001996	-0.000429	0.004201	-0.000405	6936.910843	42612.176156	3959.150827	22877.085058
8.537000	-0.001712	-0.000461	-0.000023	-0.000614	6904.893030	42628.339816	3949.551964	22886.677290
9.037500	0.001845	0.000395	-0.000432	0.000151	6930.421932	42636.635743	3946.760941	22851.585106
9.537500	0.000000	-0.000251	0.004869	-0.000510	6919.575245	42637.973503	3961.007057	22881.887883
10.035000	0.001659	0.000000	0.000103	0.000068	6929.477786	42608.152128	3948.229258	22855.388531
10.535000	0.001104	0.000662	0.000000	0.000430	6921.076571	42635.465801	3947.123755	22838.778309
11.035500	-0.002143	0.000226	0.000750	0.000000	6895.384472	42635.020101	3949.930030	22858.502149
11.536000	-0.000452	-0.000126	-0.001142	-0.000453	6914.928281	42644.262416	3946.509912	22879.298902
12.038500	-0.002222	0.000702	0.004768	0.000128	6893.507939	42666.791252	3959.230544	22852.635944
12.536500	-0.000981	0.000304	0.001329	-0.000070	6906.601080	42648.449042	3951.475809	22861.694122
13.036500	0.003517	0.000645	0.004598	-0.001005	6956.448674	42765.240354	3961.546278	22904.651487
13.537000	-0.000113	0.000329	0.003830	-0.000141	6915.170037	42657.250729	3957.626530	22864.967588
14.059500	-0.001456	0.000991	-0.001942	0.003859	6866.649801	42353.482104	3934.450840	22682.292386
14.535000	-0.002210	0.000280	-0.000055	0.002442	6872.637611	42417.540804	3942.227970	22746.810099
15.035000	-0.002384	0.000399	-0.003273	0.001439	6880.146510	42519.559719	3937.008651	22792.633814
15.556500	-0.000006	0.000112	0.002247	0.000070	6914.225397	42618.153219	3953.330989	22855.289265
16.036000	0.000252	0.000375	0.005535	0.000816	6909.764160	42574.149034	3959.420928	22821.103445
16.536000	-0.001845	0.000420	0.007364	0.000421	6894.267890	42614.301330	3964.779678	22839.221520
17.036500	-0.000219	0.000061	0.005053	-0.000420	6916.749922	42658.282371	3961.233504	22877.760309
17.536500	0.001893	0.000781	0.003590	-0.002284	6953.266671	42895.062057	3962.200986	22963.552302
18.037000	0.000558	0.000656	0.002628	0.000907	6911.728294	42591.454602	3952.243888	22816.927441
18.537500	-0.000267	0.000716	0.004969	0.001342	6900.240335	42557.237255	3956.800527	22797.044233
19.037500	-0.001667	0.000932	0.005377	0.001692	6884.345142	42545.101285	3956.940424	22781.057164
19.535000	-0.001701	0.000533	-0.001476	0.001268	6887.886196	42547.366023	3941.646661	22800.446928
20.037500	-0.005037	-0.000206	0.003689	0.000712	6862.739418	42530.624276	3955.243628	22825.871076
20.535500	-0.001290	0.000594	0.005315	0.001133	6892.836725	42565.178632	3958.131272	22806.591678
21.036000	0.000215	0.000996	0.005405	0.001388	6904.216183	42578.607318	3957.736302	22794.938202
21.536000	-0.002835	-0.000238	-0.005060	0.000903	6880.912638	42510.384001	3934.071948	22817.140324
22.036500	-0.000926	0.000683	0.003777	0.001710	6890.903175	42520.699120	3953.069890	22780.220683
22.537000	-0.001451	0.000590	0.006861	0.001698	6886.250035	42513.357911	3960.487579	22780.775008
23.037000	0.000536	0.000341	0.008047	0.001426	6906.793724	42515.492222	3964.001616	22793.227426
23.540000	-0.000633	0.000636	0.002685	0.001367	6896.683124	42547.642953	3951.281139	22795.882251
24.034500	-0.001884	-0.000895	0.004633	0.000346	6894.594184	42501.238293	3958.383264	22842.636603
24.535000	-0.001397	-0.000022	-0.005432	0.000919	6893.812097	42528.538361	3933.161495	22816.389477
25.036000	-0.000785	0.000006	-0.000058	0.000789	6900.557438	42542.983252	3946.134256	22822.346104
25.535500	-0.000308	0.000749	0.005133	0.001888	6894.900417	42510.516259	3955.884961	22772.075240
26.036000	-0.002173	0.000461	-0.000313	0.001556	6880.996632	42514.569199	3943.714155	22787.272455
26.536500	0.001958	0.001508	0.003359	0.002061	6913.983197	42563.946452	3951.235987	22764.216766
27.036500	-0.001370	-0.000186	0.005300	0.000674	6896.291216	42535.978062	3959.198836	22827.620744
27.537000	-0.000490	0.000444	0.002283	0.002011	6892.132556	42471.647394	3948.791769	22766.485686
28.040000	-0.000588	0.000139	0.009247	-0.001809	6926.096321	42792.579589	3974.757209	22941.663291
28.537500	0.000521	0.000721	-0.000093	0.000329	6916.668595	42650.118995	3947.143138	22843.415688
29.054000	0.000686	-0.000512	0.006393	-0.000607	6926.749699	42623.073006	3964.914995	22886.368180
29.535000	0.001577	0.000423	0.002080	-0.000327	6932.344959	42682.814725	3953.881778	22873.489520
30.036000	-0.003722	-0.000047	-0.001166	0.004828	6837.563045	42171.895198	3933.998841	22638.280157
30.536000	-0.000050	0.000072	-0.001612	-0.000235	6916.613060	42642.399652	3944.880371	22869.301967
31.035500	-0.001343	-0.000046	-0.000433	-0.000091	6903.497142	42618.473803	3947.332851	22862.687747
31.536500	0.001403	0.000971	0.002473	0.002070	6908.824460	42514.148090	3949.103270	22763.790945
32.036500	-0.002975	-0.000082	0.001171	0.004427	6847.863917	42205.008137	3940.437256	22656.508206
32.539500	-0.001008	0.000253	0.003471	0.000109	6904.721928	42627.447756	3956.166338	22853.483347
33.037500	0.000345	0.000337	0.000716	-0.000318	6920.985560	42674.164267	3950.607650	22873.113482
33.541500	0.001316	0.000530	0.003169	0.000192	6925.205487	42645.207393	3955.245436	22849.710242
34.035000	-0.002467	0.000107	0.000136	0.003869	6857.445599	42272.504832	3939.311165	22681.823611
34.535500	-0.001297	0.000788	-0.001159	0.000419	6899.271682	42648.030735	3944.401639	22839.286104
35.035500	-0.001041	0.000574	0.001569	0.001927	6887.895830	42491.131402	3947.296925	22770.330653
35.535000	0.001848	0.001564	0.001348	0.003017	6904.246965	42481.958302	3944.185847	22720.599464
36.036000	-0.003097	0.000559	0.004357	0.003562	6854.542705	42341.253263	3950.036119	22695.804091
36.537000	-0.002052	-0.000041	0.000358	0.002111	6877.062089	42418.450259	3943.988766	22761.907895
37.036000	-0.000708	0.000731	0.005405	0.003342	6878.088994	42376.738094	3953.058925	22705.807373
37.533500	-0.001375	-0.000054	0.002425	0.002538	6879.322031	42378.477920	3947.875532	22742.423532
38.034500	-0.001857	0.000969	0.002874	0.003809	6863.488055	42355.972320	3945.924937	22684.562000
38.540500	0.000884	0.001125	0.001570	0.002925	6896.311721	42450.352166	3944.930256	22724.780068
39.034500	-0.001661	0.001202	0.003134	0.002323	6878.683032	42512.125621	3950.074815	22752.238660
39.538000	-0.000775	0.000233	0.003268	0.001320	6895.825343	42515.277511	3952.786793	22798.070860
40.039000	-0.002754	-0.000195	0.001807	0.001630	6875.064950	42448.162521	3948.566372	22783.887992
40.546500	-0.002300	0.001080	0.002266	0.001711	6878.442017	42556.789100	3949.465861	22780.193639
41.044000	-0.001563	0.000211	0.002357	0.001368	6888.227559	42508.938757	3950.498188	22795.864837
41.555500	-0.000575	0.000102	0.000848	0.001244	6898.333761	42510.302792	3947.206846	22801.548389
42.112000	-0.003850	0.000110	-0.003535	0.002422	6858.031139	42403.937508	3934.086597	22747.742088
42.544500	-0.001187	0.000551	0.002777	0.000997	6895.007782	42573.668030	3952.384989	22812.822336
43.044500	-0.002851	0.000420	0.004740	0.000866	6881.102119	42573.678541	3957.392268	22818.826790
43.545000	0.001089	0.000139	0.006964	0.001320	6912.811623	42506.706685	3961.646806	22798.054852
44.039500	-0.001035	0.000620	-0.002026	0.001585	6891.045965	42526.384732	3939.600047	22785.927369
44.541500	-0.001009	0.000097	0.005117	0.001468	6892.347087	42489.386340	3956.854320	22791.284908
45.035500	-0.000065	0.000544	0.007689	-0.002883	6940.748694	42928.303079	3973.577480	22991.176218
45.542000	-0.001096	0.000280	0.007422	-0.000937	6913.467027	42725.618719	3968.202877	22901.532095
46.036500	-0.001555	-0.000248	0.001877	0.000612	6895.168952	42535.922050	3951.155512	22830.457345
46.540000	0.000579	0.001192	0.004401	0.000598	6914.743889	42668.541295	3957.221198	22831.074901
47.037000	-0.000028	0.000958	0.000670	-0.000471	6918.969053	42744.961589	3950.860692	22880.108339
47.537500	0.001478	0.001242	0.002880	0.000059	6927.902645	42722.430885	3954.871346	22855.783160
48.035000	-0.004219	-0.000115	0.001964	0.004039	6840.180606	42237.046899	3943.226850	22674.104745
48.559500	0.000179	0.000124	0.001889	-0.000558	6921.650647	42676.604713	3953.977573	22884.099077
49.035500	-0.000666	0.000631	0.005202	0.002159	6889.188504	42475.064807	3955.400807	22759.706026
49.535500	0.002145	0.000809	0.001761	0.001359	6922.107824	42564.173248	3949.100791	22796.272397
50.057500	-0.003487	0.000370	-0.000271	0.004444	6843.111664	42244.259035	3937.001886	22655.714435
50.536500	-0.000080	0.000228	0.000387	-0.000207	6916.077325	42654.060972	3949.557748	22867.981848
51.040000	-0.001289	-0.000001	0.006191	-0.000996	6912.237102	42705.281360	3965.366168	22904.229759
51.537000	0.002453	0.000838	0.006991	-0.002894	6964.071311	42956.367801	3971.906006	22991.676996
52.037000	-0.006092	-0.002352	-0.001481	0.006248	6803.760549	41837.242061	3929.942744	22574.004924
52.537500	-0.059334	-0.018599	0.014451	0.064244	5932.266703	35731.509831	3836.347605	20119.539728
53.035000	-0.081878	-0.017716	-0.003722	0.104202	5532.105920	32913.382274	3721.054337	18609.370234
53.535500	-0.078410	-0.030857	-0.016444	-0.138738	7506.233912	53790.166334	4283.814177	30355.589006
54.035500	-0.052708	-0.128241	-0.008670	-0.326434	10399.332925	65535.000000	5061.304036	45177.289728
54.535500	-0.014835	-0.124090	0.013203	-0.322284	11001.059390	65535.000000	5150.657409	44775.568209
55.036000	-0.005073	-0.072627	0.021255	-0.268621	10226.701819	65219.050672	4927.876991	39912.810707
55.536500	0.007897	-0.027055	0.031217	-0.200164	9353.568797	62024.244829	4674.364727	34520.869605
56.036500	0.014586	-0.008407	0.028062	-0.154971	8810.030913	58523.515981	4489.125286	31399.750735
56.537000	0.038083	0.007692	0.049423	-0.100398	8405.151870	53814.663257	4373.312765	28039.031757
57.037500	0.058557	0.019633	0.058821	-0.068381	8261.990140	51518.281946	4299.359777	26255.188983
57.535000	0.075077	0.032274	0.073954	-0.015073	7830.306864	47179.545949	4182.958149	23561.984194
58.035000	0.088370	0.041490	0.088225	0.031083	7474.415116	43575.491957	4093.278850	21482.687447
58.535500	0.106713	0.051954	0.111777	0.072289	7242.236203	40801.333997	4046.385082	19804.197979
59.036000	0.119862	0.061909	0.129475	0.110413	7002.198183	38426.181191	3994.454495	18386.892559
59.535500	0.134282	0.071280	0.143804	0.145063	6817.631676	36421.839547	3945.159940	17202.315478
60.036500	0.144768	0.078050	0.158904	0.181975	6589.129789	34179.620618	3894.749208	16040.156680
60.536500	0.162457	0.088609	0.174032	0.214392	6467.680454	32648.210178	3856.555193	15097.881375
61.037000	0.177376	0.095620	0.194099	0.241041	6373.859930	31336.566460	3842.409158	14374.262179
61.537000	0.184958	0.102561	0.205649	0.252197	6345.775326	31062.761539	3843.250860	14084.279667
62.034500	0.195986	0.110167	0.208664	0.284429	6183.819015	29514.699093	3782.925342	13287.092341
62.535000	0.209408	0.117335	0.230760	0.302406	6150.041619	28862.448411	3791.187366	12867.516169
63.035000	0.219144	0.124363	0.242184	0.311506	6154.734582	28739.211009	3795.881647	12661.638934
63.536000	0.222604	0.128327	0.260423	0.315977	6147.278995	28709.230898	3824.220452	12562.080178
64.035500	0.225762	0.132460	0.255382	0.347187	5947.090226	27154.047265	3751.493928	11894.818244
64.536000	0.232619	0.138008	0.270818	0.377488	5789.431018	25814.832609	3723.382017	11291.303240
65.038500	0.234648	0.139815	0.275028	0.391852	5709.834002	25164.049858	3704.727576	11019.595275
65.537000	0.240475	0.141511	0.280051	0.400208	5693.797402	24826.499276	3698.697885	10865.625808
66.048000	0.241766	0.143633	0.272934	0.419426	5582.717567	23983.220189	3652.650483	10522.535221
66.538000	0.245860	0.145990	0.279561	0.427830	5556.688750	23692.824182	3649.642704	10377.204488
67.035000	0.251157	0.150898	0.285737	0.434666	5547.453618	23601.042804	3648.528560	10261.037617
67.542500	0.258918	0.154597	0.290017	0.439243	5566.594502	23559.430871	3648.028930	10184.297272
68.037500	0.260340	0.155734	0.289926	0.443049	5552.249400	23433.322922	3641.489539	10121.073206
68.535500	0.270330	0.161214	0.294162	0.443038	5612.945312	23693.574315	3648.618794	10121.258022
69.036000	0.271784	0.162844	0.297461	0.440909	5635.033113	23873.656762	3657.831466	10156.552466
69.542000	0.276419	0.164800	0.302648	0.438168	5681.071860	24100.817573	3671.496445	10202.238833
70.036500	0.276935	0.166466	0.299870	0.438480	5682.360383	24166.754436	3666.140088	10197.028296
70.537000	0.284595	0.169712	0.305338	0.434771	5754.913927	24508.813638	3682.159928	10259.277868
71.037500	0.289111	0.171899	0.299684	0.432880	5796.649049	24711.884408	3675.549840	10291.220668
71.537000	0.288016	0.172515	0.301455	0.431169	5800.690117	24828.646789	3681.662329	10320.233015
72.037500	0.291222	0.173791	0.307579	0.433805	5804.437057	24760.325289	3687.837321	10275.573688
72.537500	0.292712	0.172877	0.310407	0.429545	5842.523661	24928.795909	3700.536453	10347.894555
73.035500	0.295656	0.175408	0.309604	0.431583	5848.573874	24953.714874	3695.422259	10313.209998
73.535500	0.298127	0.176013	0.315274	0.432720	5857.495064	24926.823226	3703.597733	10293.924435
74.039000	0.295148	0.176986	0.308249	0.439609	5792.106980	24629.919549	3678.768591	10178.192138
74.536000	0.297239	0.177721	0.315347	0.435340	5834.081979	24880.755940	3698.993307	10249.689608
75.036500	0.302366	0.178688	0.323838	0.436791	5858.623059	24856.380069	3711.789128	10225.313410
75.537000	0.303270	0.179893	0.317324	0.437012	5863.206681	24906.000012	3699.543046	10221.601192
76.037000	0.298310	0.178078	0.312425	0.442569	5793.432411	24536.955978	3680.906645	10129.021530
76.537500	0.304434	0.180480	0.322341	0.438602	5860.344449	24855.452596	3705.749901	10194.993974
77.035000	0.307872	0.182952	0.322410	0.441652	5862.943531	24826.320618	3700.346826	10144.209450
77.534500	0.306347	0.182744	0.323381	0.443011	5843.649432	24747.624692	3699.648016	10121.703876
78.035500	0.303850	0.180051	0.318956	0.446502	5803.987094	24439.894203	3685.494614	10064.208607
78.538500	0.305555	0.182886	0.326201	0.445877	5819.352134	24611.529457	3699.565597	10074.467665
79.036000	0.307670	0.183104	0.328495	0.447913	5819.870033	24521.173931	3700.029163	10041.086471
79.536500	0.308596	0.184402	0.325922	0.451267	5803.859076	24419.441597	3689.404515	9986.462035
80.035000	0.306398	0.184514	0.330669	0.455986	5758.718082	24193.230725	3689.454624	9910.303089
80.536500	0.310910	0.186048	0.336910	0.456799	5782.766905	24228.469900	3699.179560	9897.263139
81.034500	0.310517	0.185238	0.329319	0.459143	5764.954219	24074.746262	3681.469156	9859.818021
81.537500	0.312905	0.186418	0.330288	0.463119	5754.667873	23939.394331	3676.188540	9796.753834
82.035000	0.311777	0.186314	0.329869	0.467989	5716.157444	23700.686128	3666.988331	9720.287283
82.535500	0.314317	0.187833	0.332370	0.469207	5724.600854	23715.078999	3669.209406	9701.295066
83.035500	0.314803	0.188798	0.331754	0.473128	5702.718493	23574.416623	3661.382012	9640.520587
83.536000	0.316401	0.189426	0.330716	0.476669	5690.409563	23436.746525	3653.564396	9586.103589
84.036500	0.315211	0.189735	0.328770	0.481264	5654.109717	23235.827808	3642.540715	9516.147089
84.536500	0.315429	0.190026	0.336759	0.482977	5644.810503	23169.676161	3653.116373	9490.270348
85.037000	0.319811	0.190395	0.329333	0.486283	5651.501642	23033.578015	3635.125282	9440.587468
85.537500	0.318512	0.189484	0.333581	0.488194	5631.582279	22903.681861	3639.004078	9412.040261
86.034500	0.319920	0.192451	0.335365	0.494514	5601.393221	22750.495256	3631.493675	9318.541217
86.535000	0.320020	0.192100	0.328086	0.496102	5592.313676	22662.399836	3617.034780	9295.256315
87.035000	0.318709	0.191623	0.338629	0.498668	5568.798317	22524.992934	3630.028284	9257.810594
87.535500	0.318379	0.192194	0.333286	0.502232	5545.396102	22390.764016	3615.535891	9206.173137
88.038500	0.318979	0.193753	0.344998	0.509759	5504.279179	22125.847062	3622.307960	9098.497785
88.536000	0.321278	0.193122	0.331887	0.509259	5520.816336	22120.067259	3602.097153	9105.598889
89.036500	0.322222	0.195119	0.347680	0.512871	5505.054447	22049.016114	3621.609081	9054.520178
89.537000	0.324222	0.195022	0.334390	0.515297	5502.541730	21938.540705	3596.533731	9020.453628
90.037000	0.318603	0.192668	0.331429	0.519520	5445.284104	21653.629186	3585.371514	8961.618535
90.537000	0.324077	0.194151	0.333310	0.519893	5474.796118	21701.401892	3587.698747	8956.443405
91.034000	0.326125	0.195833	0.340030	0.522393	5472.166649	21666.178281	3594.257520	8921.907836
91.535500	0.324385	0.194670	0.344256	0.523745	5454.251392	21558.295627	3598.759988	8903.314067
92.035500	0.318549	0.194346	0.332806	0.528921	5391.479683	21324.522958	3573.120164	8832.666734
92.538500	0.327354	0.195465	0.350649	0.527267	5451.063361	21442.035033	3603.288983	8855.149235
93.036000	0.323465	0.194084	0.339892	0.527504	5427.383323	21373.375372	3586.110071	8851.919058
93.539000	0.321738	0.194194	0.345233	0.528248	5413.316638	21346.525472	3593.240531	8841.802702
94.036500	0.323403	0.195212	0.340075	0.533879	5390.892315	21152.464782	3576.624354	8765.764049
94.537000	0.321701	0.195107	0.342611	0.529844	5404.056110	21317.683645	3586.694978	8820.151962
95.037500	0.324910	0.196722	0.346056	0.530736	5417.199500	21348.237703	3590.648825	8808.084183
95.537500	0.324909	0.195205	0.343263	0.529905	5421.929618	21319.244520	3587.607910	8819.327389
96.035000	0.321930	0.194271	0.340813	0.533868	5382.680729	21113.604450	3577.764715	8765.915175
96.535000	0.322159	0.194493	0.342225	0.529269	5409.907800	21316.034182	3586.987388	8827.942722
97.036000	0.326310	0.197692	0.340578	0.531195	5422.561453	21369.878563	3581.490550	8801.886581
97.538000	0.322963	0.195760	0.347649	0.529694	5412.059785	21351.605221	3594.753242	8822.177860
98.039000	0.323047	0.194575	0.345665	0.529787	5412.003509	21297.607799	3591.515332	8820.917903
98.536500	0.325241	0.196164	0.347292	0.531106	5416.977359	21309.004200	3591.995200	8803.084604
99.036500	0.322027	0.195198	0.342032	0.530570	5401.789250	21290.856157	3584.681569	8810.320467
99.537000	0.323267	0.196069	0.344558	0.531146	5405.549332	21303.344699	3587.690932	8802.547061
100.034500	0.319526	0.194482	0.346975	0.529598	5393.167970	21301.665720	3593.851654	8823.479090
100.535000	0.321539	0.195051	0.347114	0.530625	5398.730768	21282.380345	3592.467340	8809.587223
101.037500	0.321049	0.196522	0.344422	0.531980	5388.336861	21287.250272	3586.193230	8791.300395
101.538000	0.319456	0.195368	0.340295	0.530871	5385.618852	21285.386977	3581.553500	8806.264426
102.038500	0.317117	0.196028	0.344135	0.536343	5342.143417	21083.643035	3579.057073	8732.803772
102.539000	0.323277	0.195067	0.342936	0.531778	5402.029375	21234.508359	3584.214318	8794.019805
103.035500	0.321566	0.194279	0.344980	0.530469	5399.762664	21256.441585	3589.393511	8811.698341
103.536000	0.320405	0.194733	0.342517	0.530347	5393.898968	21280.688732	3585.774299	8813.347421
104.036500	0.322447	0.196515	0.347956	0.532768	5391.763880	21253.768409	3590.443414	8780.682506
104.537000	0.320877	0.196299	0.348845	0.532694	5383.355253	21247.779865	3591.939979	8781.682807
105.037500	0.321452	0.194705	0.347899	0.530604	5398.356895	21268.690641	3593.723704	8809.872718
105.535000	0.320826	0.195431	0.344845	0.531113	5391.959192	21277.834445	3588.186362	8802.994962
106.037500	0.318412	0.194108	0.342572	0.534003	5362.275039	21101.173056	3580.242585	8764.099297
106.541000	0.320668	0.195284	0.348317	0.530554	5394.217158	21295.168102	3594.454670	8810.544929
107.036000	0.323208	0.196860	0.354456	0.531374	5403.929822	21327.103097	3602.814296	8799.471317
107.616500	0.314845	0.195397	0.339667	0.534926	5337.435087	21116.437259	3574.415311	8751.734895
108.091500	0.322506	0.194828	0.354409	0.530130	5406.995221	21293.839736	3604.709360	8816.280554
108.536500	0.325640	0.197672	0.346139	0.531969	5414.341221	21336.264534	3588.863671	8791.441172
109.036500	0.324495	0.196729	0.350811	0.530692	5415.087931	21350.345024	3598.143908	8808.671899
109.533500	0.323233	0.197612	0.347416	0.531438	5403.707781	21356.197923	3591.672133	8798.606470
110.034500	0.322834	0.195748	0.350787	0.529074	5414.845582	21377.333536	3600.651231	8830.578476
110.535500	0.323089	0.196871	0.356602	0.530067	5410.654016	21382.833716	3608.294385	8817.125757
