sample name	sample
index	296
start time	 02-25-2021  01:02:17 PM
880	0.383358
Peak Time (s)	92.537
Peak Height 	0.3834
calc peak height	90,93
Baseline Time (s)	9.536
Baseline Value 	-0.003139
subtract baseline	10,4
Abs	0.291971
Peak Time (s)	91.536
Peak Height 	0.292
calc peak height	90,93
Baseline Time (s)	11.537
Baseline Value 	0.001058
subtract baseline	10,3
PK_550	0.134499
Peak Time (s)	90.035
Peak Height 	0.1345
calc peak height	90,93
Baseline Time (s)	10.036
Baseline Value 	-2.7356E-4
subtract baseline	10,2
PK_880	0.278578
Peak Time (s)	90.035
Peak Height 	0.2786
calc peak height	90,93
Baseline Time (s)	10.036
Baseline Value 	0.001784
subtract baseline	10,1


Time (s)	A880-A510	A880-A775	A880-A975	A880	I510	I775	I975	I880	
0.038500	-0.002701	-0.000209	-0.005276	0.000719	6861.571057	45768.549387	4000.253229	24248.286142
0.536000	-0.001585	0.001355	-0.002527	0.004602	6836.765000	45540.661916	3997.451086	24058.640386
1.036500	-0.003230	-0.000379	-0.002331	0.002943	6836.890695	45533.322648	4002.037247	24139.446846
1.537500	-0.004457	0.000741	-0.003446	0.007458	6785.904878	45201.893619	3988.175291	23920.215836
2.037000	-0.002705	0.000075	-0.001366	-0.000103	6868.936424	45877.717871	4012.024469	24288.646345
2.534500	-0.005957	-0.000682	-0.008092	0.005128	6793.234029	45290.200729	3982.526076	24033.076185
3.037000	0.000289	0.000585	0.004334	-0.001253	6906.468517	46042.071957	4029.294821	24345.266868
3.535000	-0.002622	0.000220	-0.004861	0.001929	6851.410258	45691.614874	3998.287382	24188.991088
4.035000	-0.001363	0.000081	-0.000552	0.000156	6878.712924	45852.721286	4013.411417	24275.910418
4.535500	-0.001952	-0.000072	-0.004458	0.004523	6834.189288	45408.680414	3992.889333	24062.462524
5.036000	-0.003268	-0.000104	-0.000611	0.000082	6862.201459	45841.703989	4013.449288	24279.548818
5.536000	-0.000152	-0.000016	0.002102	0.000145	6889.772561	45844.215757	4020.108658	24276.475480
6.036000	-0.001397	0.001618	0.002151	0.001160	6869.337868	45905.358701	4017.674821	24226.639038
6.536500	-0.001052	0.000560	-0.002998	0.000659	6876.981701	45850.363476	4006.051739	24251.234886
7.037000	0.000258	0.001070	0.000055	0.000501	6890.261557	45916.330880	4014.069878	24258.981339
7.534500	-0.001107	0.000423	-0.000900	-0.000212	6884.349490	45922.799970	4013.463265	24293.987219
8.035000	0.001275	0.001154	0.000354	0.000786	6896.892220	45896.458704	4014.103394	24244.997759
8.537500	-0.002234	0.000288	0.000512	-0.000143	6873.540452	45902.613546	4016.830107	24290.592047
9.035500	0.001340	0.000145	-0.002130	0.000260	6902.259806	45848.728112	4009.208348	24270.805761
9.535500	0.001615	-0.000042	0.000727	0.000000	6907.131875	45855.939150	4017.013054	24283.581548
10.036000	0.000000	0.000000	-0.006851	0.000182	6890.807915	45842.109113	3997.685950	24274.631267
10.536500	-0.001559	-0.000076	-0.002992	-0.000340	6881.421890	45886.194910	4008.557255	24300.316754
11.039500	0.002719	0.000754	0.001629	0.000040	6916.824677	45930.665816	4019.181077	24281.625887
11.537000	-0.000621	-0.000270	0.000000	-0.000567	6891.968569	45889.424657	4016.609822	24311.450229
12.039500	-0.000389	-0.000142	0.000758	-0.000290	6891.559368	45874.673520	4017.819296	24297.834500
12.535000	-0.001313	0.000959	0.002016	0.004949	6836.094181	45467.843003	4007.853866	24041.751046
13.035000	0.001217	0.000345	0.003099	-0.001910	6920.908681	46083.335144	4027.826211	24377.653208
13.535500	0.002568	0.001204	0.001688	0.000227	6913.744011	45956.700140	4018.859662	24272.433065
14.044000	0.000516	0.001007	0.002185	-0.000097	6898.020067	45969.237462	4020.926329	24288.354442
14.536000	-0.002902	0.000077	-0.001119	0.004068	6829.768664	45467.779886	4002.254915	24084.613505
15.036000	0.000351	0.001057	-0.008248	0.001624	6880.931215	45804.128207	3990.701997	24203.926660
15.551000	-0.000693	0.000499	0.001769	0.000887	6878.165281	45821.859535	4017.403893	24240.055089
16.037000	-0.001442	0.000302	-0.002143	-0.000484	6883.779859	45937.765819	4011.033404	24307.366784
16.540000	-0.001947	0.001513	-0.003782	0.005184	6828.338784	45499.076681	3992.927943	24030.352262
17.037500	0.000148	0.001117	0.002400	0.000260	6891.444691	45944.846814	4020.567422	24270.807327
17.537500	0.000455	-0.000130	0.002436	0.000855	6888.833603	45762.921691	4019.159594	24241.607131
18.035000	0.002404	0.001398	0.001798	-0.002164	6934.086409	46213.239007	4025.170195	24390.169935
18.535000	-0.001836	0.000407	-0.007341	0.003029	6848.599905	45601.908425	3989.483279	24135.257643
19.035500	-0.002184	0.000595	-0.001158	0.001568	6858.588219	45764.111336	4008.372052	24206.678316
19.536000	-0.000019	0.001639	0.002147	0.002786	6867.113499	45747.047230	4013.587239	24147.129685
20.036500	-0.002027	0.000471	0.003314	0.002054	6855.628011	45703.980515	4018.352819	24182.861407
20.536500	-0.002037	0.000118	-0.005371	0.002876	6848.166544	45588.578782	3994.695523	24142.717218
21.037000	0.001249	0.001059	0.002135	0.001631	6888.997095	45803.639202	4016.453159	24203.593278
21.537500	-0.000475	0.000915	-0.003984	0.001954	6870.499115	45757.565634	4000.392678	24187.771350
22.037000	-0.000808	0.000622	0.000596	0.001438	6872.147430	45779.519955	4013.075732	24213.012097
22.535000	-0.002980	0.000380	0.001211	0.003490	6834.234052	45554.068738	4009.485593	24112.742622
23.035000	-0.000775	0.000187	-0.004064	0.001214	6874.461969	45758.786170	4002.027263	24223.982860
23.536000	-0.003127	0.000241	-0.001859	0.001570	6850.100440	45728.976092	4006.617332	24206.545902
24.036000	-0.003049	0.000635	0.000961	0.001196	6854.160975	45804.762544	4014.597240	24224.890333
24.536000	-0.002817	0.000777	0.001082	0.003701	6833.797133	45572.293503	4008.636077	24102.452883
25.035500	-0.002977	0.000117	-0.001920	0.000910	6857.370795	45781.802015	4008.109473	24238.883872
25.537000	0.001645	0.000496	-0.000072	0.001427	6894.437164	45768.250703	4011.434158	24213.580199
26.037000	0.000295	0.000915	0.002451	0.002086	6876.256731	45744.553023	4016.102515	24181.311502
26.540000	0.000135	0.000036	0.000749	0.001516	6879.966367	45714.251835	4013.265358	24209.230659
27.035000	-0.000613	0.001276	0.001817	0.002009	6868.759542	45787.787849	4014.707459	24185.089900
27.535500	0.000270	0.001705	0.006721	0.002415	6873.063957	45790.070970	4026.044293	24165.244537
28.035500	0.000897	0.001509	0.001643	0.000759	6893.714318	45934.251084	4017.408472	24246.329518
28.536000	0.001438	0.001457	0.004825	0.000830	6897.975105	45922.025740	4025.254646	24242.819048
29.036000	-0.000181	0.000756	-0.002185	-0.000316	6893.679337	45966.114740	4010.508298	24299.104417
29.539000	-0.000418	0.000118	0.003911	0.000852	6880.962046	45787.669177	4022.889250	24241.770256
30.036500	-0.000937	0.000603	0.004965	-0.000210	6885.868207	45940.419841	4028.244092	24293.880826
30.536500	0.000133	0.001160	-0.000758	0.000787	6886.540359	45896.955198	4011.319583	24244.962023
31.037000	-0.000292	0.000666	0.002847	0.000528	6885.032117	45873.804421	4021.021745	24257.673165
31.563500	0.000333	0.001104	0.001118	0.000725	6888.903615	45897.529750	4016.173074	24247.958625
32.035000	-0.001797	0.000121	0.000462	0.002295	6855.535963	45645.960603	4010.598309	24171.096696
32.535000	-0.000721	0.001216	-0.000233	0.001453	6872.800462	45836.655479	4010.965255	24212.298162
33.054500	0.000547	0.001086	0.001041	0.000008	6897.347865	45966.675395	4017.781512	24283.176693
33.535500	0.000465	0.000974	-0.001926	0.001010	6887.518745	45856.514801	4007.847324	24233.996972
34.039000	-0.000954	0.000818	0.005179	0.000296	6881.148069	45911.719995	4027.505914	24269.047670
34.536500	-0.005200	0.000882	0.002938	0.006363	6789.003776	45322.194905	4006.629433	23973.151874
35.037000	-0.000153	0.000774	-0.001683	0.001170	6880.475570	45821.009810	4008.054544	24226.148786
35.537000	-0.000599	0.000055	0.001642	0.001821	6870.579947	45686.121524	4014.739546	24194.299600
36.037000	-0.001503	0.001439	0.003887	0.002975	6852.065513	45708.675775	4017.477895	24137.891411
36.535000	-0.001144	0.000589	-0.005401	0.003028	6854.815093	45619.823410	3994.246381	24135.274728
37.035500	-0.000078	0.001108	0.002176	0.003076	6863.966971	45666.206867	4012.932599	24132.959480
37.535500	-0.001526	0.001277	-0.000426	0.002369	6857.300684	45752.359030	4008.199019	24167.484615
38.036000	-0.001377	0.001272	-0.002666	0.002565	6856.875722	45732.525819	4002.142062	24157.879897
38.539000	-0.003170	0.000259	0.003457	0.003513	6832.325502	45539.923757	4015.046760	24111.613336
39.036000	-0.001185	0.001237	0.002632	0.002558	6858.667273	45729.777569	4015.371480	24158.230006
39.536500	-0.001638	0.000769	0.005982	0.002485	6855.247170	45690.969551	4023.993393	24161.792426
40.036500	-0.001801	0.001782	0.001652	0.003040	6848.812806	45736.078108	4011.709819	24134.705511
40.537000	-0.003152	0.000882	0.001435	0.004453	6824.113669	45508.898895	4007.643496	24065.885337
41.037500	0.000375	0.001246	0.001231	0.002746	6871.015680	45712.190437	4011.393361	24149.040857
41.534500	-0.001717	0.001653	-0.000516	0.002905	6850.770715	45736.621496	4006.638075	24141.293923
42.035500	-0.001392	0.000722	0.001437	0.002282	6859.290758	45706.369381	4013.071893	24171.752632
42.535500	-0.002295	0.000928	-0.004045	0.004331	6832.838411	45525.408425	3994.378083	24071.815401
43.035500	-0.002377	0.000830	-0.002261	0.002732	6846.414569	45672.690440	4002.735386	24149.760055
43.536500	-0.001594	0.000094	-0.001944	0.001969	6860.282089	45675.345671	4005.416413	24187.030103
44.036500	-0.003163	0.000225	0.001508	0.002333	6842.942934	45652.431304	4013.119007	24169.224354
44.535500	-0.001795	0.000932	-0.004762	0.004253	6838.008117	45533.412022	3992.808566	24075.615817
45.037000	0.000933	0.000146	0.000989	-0.002758	6926.068800	46147.809167	4024.627514	24419.544481
45.537000	0.000463	0.001674	0.002954	0.000369	6893.309317	45989.174092	4021.690208	24265.437575
46.035000	0.000180	0.000884	0.002656	0.000416	6890.321736	45906.394518	4020.821670	24263.155931
46.535000	-0.004665	0.000013	-0.003981	0.004629	6809.086187	45406.628189	3993.801147	24057.301050
47.035500	-0.000215	0.001484	0.000025	0.000733	6883.874329	45934.296494	4013.412777	24247.571275
47.538000	-0.000171	0.000337	0.002041	0.000536	6886.055069	45840.458424	4018.968453	24257.252546
48.066500	0.001868	0.001583	0.003208	0.000759	6902.524389	45941.554920	4021.347671	24246.313663
48.642500	-0.000648	0.000774	0.000397	0.002508	6863.947999	45689.189094	4009.903475	24160.682839
49.037000	-0.000834	0.001219	0.002921	0.003336	6854.835746	45651.507896	4014.147340	24120.271203
49.572000	-0.001436	0.000773	0.004421	0.002937	6853.015983	45646.921035	4018.915865	24139.745821
50.037500	-0.000648	0.000990	-0.002235	0.000496	6882.098440	45908.925090	4008.357850	24259.218885
50.537500	-0.003889	0.000311	-0.001785	0.005896	6804.734834	45312.056428	3996.088030	23995.791488
51.037000	0.000918	0.001282	0.008590	0.002041	6882.286193	45785.200715	4031.740020	24183.496347
51.535500	0.001684	0.000927	0.006074	-0.001591	6922.263115	46109.482463	4034.584905	24361.893092
52.035500	-0.000112	0.000834	0.000981	0.000025	6891.214053	45940.106582	4017.589165	24282.354952
52.538500	-0.002556	0.000988	-0.001369	0.008147	6796.605316	45158.922430	3991.576542	23886.964412
53.036000	0.010013	0.002158	0.002649	0.032421	6694.446869	42973.106801	3943.007013	22748.310794
53.536000	-0.022536	-0.015005	-0.006152	0.135959	5688.481151	33266.497005	3711.155852	18546.864946
54.036500	-0.020024	-0.033631	-0.012601	-0.148300	8245.484900	58820.459521	4414.767619	32970.446155
54.536500	-0.035701	-0.144547	-0.009760	-0.308520	10334.754941	65535.000000	5093.255580	46368.832787
55.037000	-0.028663	-0.142715	0.006216	-0.306688	10423.745443	65535.000000	5165.006825	46186.017625
55.534500	-0.032501	-0.117649	0.003332	-0.281622	9942.844185	65535.000000	5025.435291	43760.698303
56.035000	-0.024726	-0.088943	0.009803	-0.249586	9563.167257	65057.002651	4905.401230	40857.959137
56.535000	-0.021829	-0.076343	0.003602	-0.234186	9375.639355	64657.974699	4809.345280	39536.974834
57.038000	-0.007112	-0.081656	0.010255	-0.244317	9753.714362	65346.145585	4883.565977	40400.721321
57.536000	0.002844	-0.053166	0.016026	-0.204299	9299.021026	63712.384422	4735.110313	37103.287142
58.036000	0.015933	-0.034885	0.022522	-0.176657	9089.936562	62416.910937	4649.120028	34996.620873
58.536500	0.019596	-0.015817	0.034104	-0.116532	8342.002137	57054.444575	4466.868984	30852.235062
59.036500	0.031911	-0.007140	0.043922	-0.080276	8053.080878	53726.727322	4375.856306	28616.781475
59.537000	0.047744	0.003336	0.059369	-0.026198	7623.317417	48878.382073	4252.436556	25610.684007
60.037500	0.067133	0.016918	0.074671	0.034351	7201.187661	44172.582709	4121.174831	22660.505018
60.537500	0.088032	0.026092	0.102349	0.091851	6857.988895	39833.639856	4041.841662	20215.116474
61.035500	0.101007	0.037088	0.115606	0.137103	6578.426238	37037.580585	3962.576350	18505.799957
61.535500	0.124860	0.048606	0.138806	0.186924	6368.108885	34161.618420	3900.930363	16818.852872
62.035500	0.151309	0.062628	0.161793	0.232098	6224.077664	32002.581407	3852.363847	15447.859464
62.535500	0.171161	0.076103	0.182446	0.269338	6095.766484	30456.519092	3817.640196	14420.085419
63.036000	0.189819	0.092415	0.203490	0.299675	6012.434040	29583.107660	3798.759755	13645.608156
63.536500	0.206755	0.101732	0.217560	0.317513	6006.088760	29066.043544	3791.218316	13214.836179
64.036500	0.217195	0.113777	0.227464	0.318139	6075.816734	29761.236411	3809.904621	13200.033112
64.537500	0.225534	0.118002	0.229870	0.323867	6094.640169	29668.662693	3803.166652	13065.603716
65.034500	0.229524	0.123113	0.241035	0.327682	6095.904630	29748.493259	3818.143733	12977.062955
65.537500	0.234816	0.126289	0.239871	0.331499	6106.591579	29708.974128	3807.967021	12889.238680
66.035500	0.240238	0.129255	0.247269	0.336507	6109.599516	29583.572732	3812.836969	12775.186417
66.535500	0.240156	0.130416	0.251532	0.345986	6040.900424	29078.647316	3802.244028	12562.854756
67.036000	0.247802	0.132563	0.254924	0.344573	6105.946157	29293.576704	3811.996386	12594.208457
67.536000	0.251098	0.135434	0.257133	0.349434	6094.613982	29173.214023	3806.600661	12486.772034
68.036500	0.254963	0.138039	0.256775	0.352109	6103.235016	29169.042685	3800.470460	12428.156592
68.536500	0.252859	0.138584	0.263350	0.359349	6036.219862	28768.255864	3799.132037	12271.311174
69.037000	0.258104	0.139878	0.265548	0.355813	6099.155558	29056.744998	3810.741743	12347.594986
69.537000	0.258528	0.140410	0.266132	0.356234	6099.175667	29063.458681	3811.072403	12338.478419
70.034500	0.264211	0.142492	0.271065	0.359871	6114.020881	28970.142941	3813.717901	12260.103522
70.535000	0.259841	0.142270	0.266589	0.366585	6034.409536	28558.161264	3791.129597	12117.127410
71.038000	0.262758	0.143589	0.266715	0.367529	6048.443068	28580.360691	3789.503119	12097.221465
71.535500	0.264225	0.142652	0.272286	0.361676	6101.015687	28871.853581	3812.525245	12221.440774
72.035500	0.267369	0.144957	0.269138	0.363096	6113.534801	28924.647076	3803.246971	12191.146573
72.536000	0.263382	0.142795	0.268392	0.368913	6043.035165	28452.242394	3790.086373	12068.088740
73.036500	0.266307	0.143811	0.273393	0.370040	6055.843713	28445.689314	3797.830814	12044.430205
73.537000	0.269299	0.145672	0.280274	0.368989	6084.846870	28617.092480	3813.905273	12066.488176
74.036500	0.268137	0.144821	0.272405	0.369600	6072.087730	28530.871707	3796.730647	12053.644863
74.534500	0.269275	0.145707	0.276959	0.370542	6073.493499	28527.558866	3804.004085	12033.900569
75.035000	0.266012	0.145142	0.274811	0.375622	6014.158346	28197.529432	3789.509660	11928.171408
75.537500	0.271079	0.145301	0.277033	0.370011	6090.311050	28534.920546	3805.228294	12045.034464
76.035500	0.269988	0.145049	0.274466	0.369379	6087.000535	28557.329355	3801.318616	12058.291056
76.535500	0.270803	0.145603	0.278765	0.370572	6084.272596	28519.701918	3807.603157	12033.273450
77.036000	0.268704	0.144944	0.274099	0.376116	6029.683173	28157.402056	3787.113899	11917.959062
77.536000	0.273218	0.145481	0.280859	0.371282	6096.579154	28470.801640	3810.417625	12018.420479
78.036500	0.273769	0.144523	0.278021	0.370240	6108.129813	28475.771176	3806.768358	12040.242981
78.537000	0.275034	0.144234	0.278300	0.371475	6108.351261	28386.407101	3804.831516	12014.404566
79.037000	0.269417	0.142904	0.276329	0.376090	6034.920963	28040.829466	3791.601426	11918.497537
79.537500	0.274161	0.143591	0.276717	0.370915	6106.079955	28381.536936	3802.763196	12026.112216
80.037500	0.273445	0.143514	0.281069	0.371723	6095.038253	28329.776860	3809.947896	12009.218484
80.535000	0.273775	0.143796	0.287328	0.372082	6094.823178	28325.264797	3822.040036	12001.713999
81.035500	0.273951	0.142864	0.280640	0.371997	6096.715768	28275.935519	3808.518946	12003.501869
81.536000	0.273854	0.142932	0.283224	0.372783	6090.333481	28234.095362	3812.179334	11987.111961
82.036000	0.274681	0.141996	0.286098	0.372506	6098.314231	28195.798267	3818.635927	11992.885484
82.536500	0.275909	0.141808	0.279484	0.372428	6107.776295	28189.393851	3805.297338	11994.498407
83.036500	0.275495	0.140103	0.277787	0.371317	6112.846245	28154.913854	3804.112428	12017.698424
83.537000	0.278276	0.140325	0.280566	0.371584	6131.177423	28152.285247	3809.206792	12012.116904
84.034500	0.278858	0.139972	0.281582	0.372653	6127.620311	28070.033167	3809.100101	11989.826315
84.537500	0.273088	0.139243	0.280622	0.378211	6045.935392	27709.245986	3795.940863	11874.756002
85.038000	0.276442	0.137926	0.283349	0.370807	6123.457302	28058.412807	3816.478422	12028.353280
85.535000	0.277949	0.139023	0.281336	0.372141	6124.722406	28044.778640	3809.642111	12000.499791
86.035500	0.278450	0.138681	0.287330	0.372282	6127.344018	28016.893014	3821.632362	11997.545425
86.536000	0.276415	0.138680	0.286324	0.378961	6064.329714	27634.567807	3805.919512	11859.338235
87.036000	0.278018	0.136521	0.286778	0.371591	6129.245799	27932.329412	3821.921330	12011.976876
87.536500	0.278318	0.136330	0.286357	0.372255	6126.578583	27883.224366	3819.684847	11998.116628
88.036500	0.277521	0.136839	0.284511	0.373341	6112.858300	27850.074714	3813.667637	11975.484262
88.537000	0.279880	0.137309	0.286300	0.375049	6117.594347	27779.324376	3813.835781	11940.033369
89.034500	0.275539	0.134507	0.285563	0.373603	6096.585182	27701.966246	3815.284939	11970.039791
89.537500	0.275574	0.134316	0.290239	0.374512	6090.272659	27639.425776	3823.035164	11951.174902
90.035000	0.278578	0.134499	0.286928	0.375696	6103.435071	27582.579396	3813.796860	11926.635458
90.535500	0.272178	0.132304	0.289974	0.381033	6019.483441	27159.410627	3809.123081	11816.878408
91.035000	0.273441	0.131930	0.288345	0.381624	6024.228134	27105.699109	3804.619718	11804.812134
91.536000	0.276245	0.132094	0.291971	0.376892	6077.952662	27379.366004	3821.696517	11901.926297
92.036500	0.275306	0.132630	0.289728	0.378360	6060.691868	27327.035550	3814.075156	11871.687958
92.536500	0.270043	0.130761	0.283157	0.383358	5988.173403	26944.948674	3790.723128	11769.497449
93.036000	0.272189	0.132142	0.286062	0.386367	5982.156195	26855.264875	3790.517940	11708.549673
93.534000	0.274384	0.128888	0.287416	0.379077	6048.994269	27078.237724	3807.899785	11856.957654
94.043000	0.277229	0.130811	0.291114	0.381186	6054.237988	27067.926468	3811.133184	11813.757359
94.535500	0.278975	0.129229	0.287770	0.381626	6063.576976	26955.972490	3803.452986	11804.768126
95.035000	0.273904	0.128313	0.284950	0.386591	5992.561467	26633.340423	3787.858395	11704.011048
95.536000	0.277758	0.129326	0.288510	0.384123	6037.108374	26823.821211	3799.909583	11753.961040
96.035500	0.276729	0.128128	0.290092	0.384200	6029.268290	26753.858361	3802.944336	11752.403016
96.535500	0.275794	0.126573	0.290675	0.383716	6026.072305	26695.286730	3805.101325	11762.226599
97.036000	0.274002	0.127041	0.286209	0.391425	5959.617047	26302.967683	3780.793072	11607.022952
97.536500	0.272855	0.125618	0.294085	0.386018	5989.234796	26518.054873	3807.348686	11715.595518
98.037000	0.276816	0.126104	0.292744	0.387725	6005.026429	26451.945011	3801.181956	11681.173986
