sample name	sample
index	1424
start time	 05-10-2021  12:14:43 PM
880	0.363932
Peak Time (s)	92.535
Peak Height 	0.3639
calc peak height	90,93
Baseline Time (s)	10.037
Baseline Value 	-0.005818
subtract baseline	10,4
Abs	0.274456
Peak Time (s)	92.535
Peak Height 	0.2745
calc peak height	90,93
Baseline Time (s)	10.037
Baseline Value 	0.002757
subtract baseline	10,3
PK_550	0.154459
Peak Time (s)	90.04
Peak Height 	0.1545
calc peak height	90,93
Baseline Time (s)	11.536
Baseline Value 	5.2211E-4
subtract baseline	10,2
PK_880	0.260272
Peak Time (s)	90.537
Peak Height 	0.2603
calc peak height	90,93
Baseline Time (s)	9.537
Baseline Value 	0.002332
subtract baseline	10,1


Time (s)	A880-A510	A880-A775	A880-A975	A880	I510	I775	I975	I880	
0.036500	-0.002402	-0.000742	-0.002273	0.002669	6450.397970	43831.865607	3925.911571	22527.376134
0.537000	-0.000713	-0.001121	-0.000733	0.004291	6450.952877	43643.932311	3925.703302	22454.050148
1.037500	-0.005118	-0.001095	-0.005350	0.006532	6396.271752	43436.872999	3908.303348	22353.191130
1.535000	0.000084	-0.000478	0.000436	0.000960	6485.343580	44018.122395	3937.266806	22604.926458
2.035000	-0.001052	-0.000089	-0.001465	0.001342	6472.657911	44018.757995	3931.385429	22587.573154
2.535500	-0.002865	-0.000510	-0.001148	0.001098	6459.599307	44002.058858	3932.828201	22598.664272
3.044500	-0.003548	-0.000636	-0.005424	0.004797	6423.361073	43641.925625	3912.492594	22431.231408
3.536000	0.000235	-0.000729	-0.003008	0.000118	6493.660061	44074.012427	3930.566484	22643.253508
4.036000	0.001317	0.000609	-0.000065	0.001069	6494.761918	44110.674470	3935.693158	22599.966069
4.537000	0.000342	-0.000289	0.003696	0.000930	6487.755306	44038.927354	3945.802099	22606.322739
5.037000	-0.000559	-0.000172	-0.004646	0.000320	6485.314331	44107.665037	3925.849739	22634.044113
5.537000	0.000175	0.000290	0.002559	0.000673	6488.506462	44117.994969	3943.510172	22617.974016
6.040500	0.000249	-0.000466	0.000558	-0.000212	6496.554161	44130.334371	3940.616296	22658.311116
6.534500	-0.000035	0.000472	-0.000015	0.000326	6489.651701	44168.199279	3937.740822	22633.783135
7.035000	-0.000715	-0.000582	-0.000773	-0.000316	6489.334943	44129.111602	3937.441268	22663.036694
7.535500	0.001257	0.000306	0.002500	0.000400	6499.875397	44145.451154	3944.068483	22630.420477
8.036000	0.002185	0.000447	0.001426	0.000148	6509.808126	44182.738269	3941.934045	22641.888717
8.536500	0.000291	-0.000400	0.002360	-0.000152	6496.393336	44130.838702	3945.139197	22655.554228
9.036500	-0.002642	-0.000732	0.001265	0.003089	6444.928010	43793.320713	3933.913340	22508.355399
9.537000	0.000000	0.000351	-0.000772	0.000142	6491.494735	44174.227209	3936.263037	22642.190006
10.037000	0.000141	0.000164	0.000000	0.000000	6493.862981	44169.898199	3938.623251	22648.637940
10.537000	-0.000173	0.000187	0.003158	-0.000451	6495.018595	44214.955652	3947.996941	22669.207075
11.035000	-0.005523	-0.000490	-0.000714	0.003774	6415.541493	43751.723667	3927.074396	22477.409952
11.535500	0.000246	0.000000	-0.002666	-0.000932	6502.574432	44242.949786	3934.148205	22691.173601
12.048500	-0.000712	-0.000463	0.000778	-0.000763	6493.109206	44182.778901	3942.616398	22683.417524
12.535500	-0.001401	-0.000262	0.002389	-0.000850	6488.061243	44210.146956	3947.032471	22687.392377
13.036000	0.000441	-0.000692	0.002101	-0.001352	6507.756490	44217.118692	3947.591453	22710.360951
13.536000	-0.001521	0.000168	0.000182	-0.000153	6481.227165	44184.875107	3939.491032	22655.631323
14.037000	-0.001390	0.000520	0.000298	0.002283	6462.008265	43987.468708	3933.501622	22544.899841
14.537000	-0.000631	-0.000377	-0.000207	0.001678	6473.365341	43959.743521	3933.756316	22572.298388
15.037000	-0.002761	-0.000150	0.000791	0.005194	6426.577167	43650.358681	3927.293183	22413.384148
15.535000	-0.001645	-0.000211	0.001230	-0.000447	6482.648053	44176.764172	3942.967869	22668.999126
16.038000	-0.001833	-0.000643	0.000444	-0.000938	6485.185276	44182.417447	3942.205264	22691.437984
16.535500	-0.000920	-0.000129	-0.001243	-0.000559	6489.650169	44195.179002	3936.854261	22674.119990
17.035500	0.000087	0.000557	0.001178	0.005349	6448.811366	43702.096199	3927.884476	22406.372230
17.535500	-0.000217	-0.000247	-0.000962	-0.000022	6491.049763	44133.036166	3936.195266	22649.659206
18.036000	-0.000456	0.000035	0.005048	0.000965	6480.787479	44066.233099	3949.236332	22604.729972
18.536500	-0.000156	0.000060	0.001356	0.000292	6488.925743	44132.410838	3941.379796	22635.344557
19.034000	-0.002685	-0.000016	-0.005307	0.002482	6449.601654	43917.987868	3918.656398	22535.850568
19.537000	-0.000131	-0.000773	0.000141	0.000026	6491.366421	44078.655356	3938.920482	22647.458750
20.035000	0.000641	-0.000348	0.002108	0.000286	6495.660806	44094.287749	3943.347967	22635.629571
20.534500	-0.000261	0.000466	-0.001038	0.001013	6482.019775	44102.529276	3933.330844	22602.549482
21.035000	-0.003532	-0.000488	-0.004468	0.002246	6444.548257	43895.695185	3921.389721	22546.556199
21.535500	-0.000388	-0.000482	0.000182	0.000036	6489.126687	44105.233617	3938.999751	22646.988769
22.036000	0.000068	-0.000211	0.003805	0.000516	6488.924804	44085.473282	3947.163123	22625.152787
22.535500	-0.001750	-0.000132	0.002414	0.000605	6472.980598	44084.458394	3943.310767	22621.071901
23.036000	-0.002767	-0.000201	0.000733	0.001636	6455.949158	43980.444970	3936.290614	22574.249451
23.536500	0.000464	0.000270	0.006224	0.001026	6487.969492	44082.751546	3952.149143	22601.952594
24.037000	0.000845	-0.000130	-0.000349	0.000340	6496.918202	44109.797315	3936.843365	22633.167985
24.537500	-0.002458	-0.000758	-0.002383	0.000062	6471.613762	44076.679633	3932.317452	22645.827627
25.035000	-0.001148	0.000078	0.002854	0.001359	6471.716976	44033.023589	3942.496332	22586.805709
25.535000	-0.000498	-0.001099	-0.001260	-0.000460	6492.365312	44093.762874	3936.556807	22669.609640
26.035000	0.000898	-0.000464	-0.001492	0.000002	6500.202135	44110.191929	3934.766025	22648.537803
26.536000	-0.001948	-0.000943	0.001212	-0.000561	6481.066142	44118.103497	3943.218433	22674.217904
27.036000	-0.000221	0.000100	0.000051	0.000453	6487.032361	44120.799232	3937.581543	22627.985332
27.536000	-0.001785	-0.001073	0.000919	-0.003095	6503.689976	44346.717920	3949.054142	22790.195751
28.037000	0.001093	-0.000216	0.001244	-0.000687	6507.639688	44199.116255	3943.630014	22679.987158
28.536500	0.003047	0.000647	0.008424	-0.000297	6520.830905	44244.032734	3961.409463	22662.175093
29.037000	-0.003073	-0.000857	0.000214	0.001181	6457.177403	43961.405838	3936.124793	22594.889876
29.539500	0.001748	-0.000522	0.000221	-0.001252	6517.927862	44223.677907	3942.439389	22705.757743
30.035000	0.001295	-0.000221	0.000025	-0.001228	6513.898751	44250.041951	3941.868684	22704.669785
30.535000	0.001520	-0.000282	0.001344	-0.000848	6512.595405	44208.112365	3944.306808	22687.309355
31.035000	0.002561	0.000171	0.003462	0.002474	6493.414896	43936.465394	3941.182112	22536.237583
31.537500	-0.000495	0.000743	0.002594	0.000354	6485.568389	44191.325959	3944.432950	22632.522666
32.036000	0.000783	-0.000745	-0.001409	-0.000805	6506.016966	44160.015633	3937.059742	22685.336998
32.539000	0.000165	-0.000012	0.000967	-0.000446	6497.806072	44195.516724	3942.283639	22668.961617
33.037000	-0.002134	-0.000225	0.000135	0.000814	6468.038912	44055.834208	3936.867326	22611.557428
33.537000	0.001203	-0.000391	0.000669	-0.002792	6526.341182	44382.910679	3947.612557	22776.283607
34.037500	-0.001550	-0.000085	0.000718	0.000830	6472.779703	44067.654410	3938.333165	22610.855888
34.534500	-0.001161	-0.000315	-0.000707	0.000782	6476.418635	44050.323408	3934.776697	22613.012519
35.035000	-0.000868	-0.000586	0.001015	0.001752	6470.775301	43933.128785	3936.717894	22568.958962
35.535500	-0.000825	-0.000272	0.003013	0.000909	6478.169374	44042.535400	3944.079827	22607.280926
36.035500	-0.001462	0.000271	0.002782	0.000928	6472.692250	44092.051924	3943.429852	22606.390844
36.536000	-0.000140	-0.000572	0.002583	0.000761	6485.141055	44028.142072	3943.347967	22614.013118
37.039000	-0.001000	0.000165	0.000246	0.001364	6472.905101	44040.708324	3935.733955	22586.574145
37.536000	0.000927	-0.000627	0.000763	0.000891	6492.980991	44010.568563	3938.291095	22608.070153
38.036500	0.001000	0.000349	0.000001	0.001849	6485.573527	44012.248549	3933.853540	22564.571548
38.537000	-0.002599	-0.000238	-0.000592	0.001371	6459.540609	44001.973274	3933.556533	22586.265279
39.037500	-0.002321	-0.000845	-0.002601	0.001800	6458.279211	43904.109821	3927.296040	22566.783559
39.534500	-0.002011	-0.000170	-0.004231	0.000858	6468.700739	44056.955737	3925.536965	22609.592623
40.035000	-0.000246	-0.000346	-0.002271	0.001220	6480.411925	44006.015430	3929.629591	22593.130578
40.535500	-0.000084	-0.000075	0.001502	0.000965	6483.890033	44055.715610	3940.011026	22604.690806
41.035500	-0.002956	-0.001792	0.000570	0.000898	6460.498442	43899.898786	3937.775680	22607.757736
41.538500	-0.000183	0.000174	0.001718	0.001601	6477.750539	44019.237607	3938.925818	22575.829555
42.036500	-0.001320	-0.000747	-0.004606	0.000695	6475.819311	44017.755705	3924.995024	22616.996368
42.536500	0.000498	0.000184	-0.000508	0.001628	6483.219709	44017.595432	3933.111902	22574.605212
43.034000	0.000757	0.000485	0.006222	0.001582	6485.768641	44050.348273	3950.689467	22576.678096
43.537500	-0.001160	-0.000230	0.000721	0.000894	6475.491288	44047.847401	3938.175539	22607.925228
44.037500	0.001553	0.000195	0.007627	-0.003482	6535.154415	44504.808307	3967.729085	22807.948014
44.535000	0.000521	-0.000549	0.007496	-0.000687	6502.826316	44167.511951	3959.991031	22679.973739
45.035000	-0.001314	0.000368	0.000144	0.005107	6439.226225	43707.000055	3925.858828	22417.259254
45.535500	-0.000068	0.000139	0.002741	-0.000333	6494.903523	44199.191018	3946.603159	22663.816504
46.035000	0.001157	-0.000036	0.003393	-0.000730	6508.543270	44220.283930	3949.337911	22681.920258
46.535500	-0.001562	0.000509	-0.000718	-0.000324	6482.314842	44233.486479	3937.605436	22663.421516
47.036000	-0.001630	-0.000964	-0.001992	0.003790	6447.506489	43705.646786	3923.767665	22476.686545
47.536000	-0.001826	-0.000369	0.000523	0.001365	6466.020182	43990.226022	3936.447637	22586.555494
48.033500	-0.000001	-0.000012	-0.000817	-0.000148	6493.910463	44167.264848	3936.892579	22655.368870
48.537500	-0.000083	-0.000128	0.002700	-0.000931	6499.801827	44230.688021	3948.055399	22691.114164
49.034000	-0.002505	-0.001040	-0.004446	0.004849	6431.526017	43599.304354	3914.837626	22428.925966
49.535000	0.001163	-0.000135	-0.001151	-0.002407	6522.746569	44370.522204	3941.875294	22758.622071
50.035000	0.001552	0.000515	0.003915	-0.002521	6526.996487	44443.463836	3955.393973	22763.838803
50.535500	0.001813	-0.000292	-0.001087	-0.002047	6525.195647	44321.203967	3941.108868	22742.117857
51.036000	-0.011957	-0.012688	0.003551	0.012674	6291.861564	41816.471929	3915.272653	22079.448960
51.536500	0.012147	-0.025080	0.038634	0.340389	4560.931411	20705.654126	3376.007904	11896.163842
52.036500	-0.013952	-0.032336	-0.017182	-0.085403	7144.026380	49511.053970	4129.701775	26949.369651
52.537000	-0.020608	-0.101516	-0.041339	-0.282471	9506.770622	65457.824299	4772.532876	40783.180861
53.037000	-0.012525	-0.081368	-0.023625	-0.256119	9232.560186	64571.003426	4733.984825	38550.342484
53.537500	0.000331	-0.043232	-0.008353	-0.193791	8545.426616	61231.736035	4536.960613	33778.603070
54.035000	0.005865	-0.024830	0.004687	-0.116224	7675.010812	53807.676359	4299.248352	28721.161281
54.535500	-0.000668	-0.021176	-0.001068	-0.116115	7601.789117	54224.618820	4279.345585	28714.671027
55.035500	0.001483	-0.021440	0.005742	-0.142841	7928.465845	57446.686810	4396.880051	30355.849137
55.536000	0.013178	-0.020640	0.023152	-0.131250	7929.674969	56108.980020	4418.215228	29631.649457
56.039000	0.033906	-0.007183	0.045829	-0.075973	7541.264356	51227.877022	4302.297530	26431.909696
56.536500	0.047069	0.005246	0.058008	0.011573	6802.876681	43558.282776	4065.388739	22128.229453
57.037000	0.065897	0.017493	0.073854	0.049630	6631.690279	41214.621041	4003.061088	20511.475178
57.537000	0.083727	0.028991	0.093247	0.066572	6639.427544	40737.868398	4009.782600	19836.082572
58.037000	0.100755	0.040800	0.115079	0.130269	6253.379545	36481.358150	3900.011802	17520.021387
58.535000	0.117077	0.049754	0.133726	0.176228	6028.899802	33741.726420	3833.895503	16047.730653
59.038000	0.131299	0.059495	0.145672	0.212729	5869.953652	31901.056861	3777.898594	14984.496359
59.535500	0.145069	0.067257	0.162845	0.238368	5788.555994	30733.204337	3759.316725	14289.357083
60.035500	0.158808	0.076028	0.181799	0.267017	5689.389426	29489.689014	3738.475102	13559.605716
60.535500	0.172399	0.084954	0.194774	0.287059	5647.530388	28818.753420	3723.572178	13076.978166
61.036000	0.184587	0.093755	0.205370	0.293737	5683.249982	28945.588962	3731.804146	12921.063623
61.536000	0.195160	0.103088	0.210423	0.302343	5696.106110	28989.205932	3724.338759	12723.627589
62.036500	0.197188	0.107506	0.214764	0.314848	5628.274630	28508.616743	3707.407484	12443.608170
62.533500	0.201988	0.110653	0.224732	0.314714	5660.015707	28702.497750	3728.401553	12446.565454
63.037500	0.207345	0.116417	0.218775	0.315367	5690.618165	29007.495590	3714.610965	12432.173857
63.547500	0.209337	0.119298	0.226446	0.314423	5709.883361	29238.108788	3732.628136	12453.001717
64.035000	0.212245	0.123183	0.235576	0.317990	5705.540160	29257.342893	3744.453703	12374.505954
64.536000	0.217317	0.124733	0.233031	0.321158	5718.087783	29159.464480	3732.311746	12305.346983
65.036000	0.221626	0.127195	0.235550	0.324990	5721.241573	29076.872791	3729.542292	12222.352784
65.536500	0.221104	0.128279	0.234757	0.326992	5704.600757	29021.681806	3723.677732	12179.289990
66.036500	0.225217	0.132448	0.240559	0.332135	5697.846424	28963.309396	3725.058673	12069.572885
66.536500	0.226929	0.133857	0.239583	0.334192	5695.583764	28924.495390	3718.726278	12026.048862
67.036500	0.224926	0.134396	0.236310	0.340847	5639.425376	28561.124518	3698.306220	11886.627922
67.537000	0.231233	0.138038	0.243605	0.338181	5697.643454	28935.926472	3718.792912	11942.214218
68.037500	0.234361	0.139723	0.249277	0.339816	5707.451526	28938.962895	3727.231808	11908.079441
68.535000	0.236467	0.140612	0.246488	0.340984	5713.626644	28922.241932	3718.960093	11883.778024
69.035500	0.235457	0.141943	0.246627	0.342416	5697.574480	28916.237860	3716.274555	11854.068712
69.536000	0.240368	0.143657	0.252808	0.344332	5717.273334	28904.161199	3725.166190	11814.466903
70.035000	0.244453	0.145688	0.256077	0.346041	5733.005874	28923.444833	3728.442194	11779.301565
70.536500	0.241748	0.144816	0.247675	0.347232	5707.263873	28800.259213	3708.491039	11754.872338
71.036000	0.239672	0.145213	0.250294	0.354209	5648.327890	28411.401323	3699.574083	11613.087927
71.536500	0.246402	0.147435	0.253489	0.350346	5717.408663	28770.803667	3714.060537	11691.301891
72.033500	0.247848	0.147910	0.253589	0.350191	5727.997191	28808.275445	3714.588724	11694.455095
72.538000	0.245892	0.148756	0.256975	0.351815	5704.372984	28761.983981	3718.244378	11661.474662
73.034500	0.245391	0.150075	0.255800	0.356423	5671.000787	28567.227486	3706.301758	11568.574585
73.535500	0.249169	0.149457	0.263383	0.352599	5720.803172	28757.074980	3730.015326	11645.593536
74.035500	0.248052	0.150119	0.256845	0.354094	5703.597173	28707.612710	3713.252420	11615.412440
74.535500	0.248228	0.150602	0.261964	0.355332	5696.619761	28662.810014	3721.310684	11590.467628
75.036000	0.248508	0.151113	0.251039	0.361759	5656.626534	28314.825477	3685.824068	11462.205124
75.535500	0.249671	0.151659	0.259005	0.356524	5698.266643	28654.872115	3712.692903	11566.539721
76.036500	0.254356	0.152281	0.258651	0.356860	5726.929968	28671.769063	3711.268016	11559.804667
76.537000	0.253983	0.152872	0.262904	0.356395	5727.539175	28734.465906	3721.055766	11569.128940
77.038000	0.249786	0.151243	0.262094	0.353268	5720.462254	28823.559918	3725.899255	11632.071902
77.537000	0.251859	0.152658	0.263215	0.352808	5737.248281	28935.540355	3729.219964	11641.365915
78.038000	0.253282	0.152741	0.262948	0.351475	5755.625360	29020.443308	3731.466585	11668.369267
78.535500	0.254040	0.153599	0.264533	0.353097	5749.854453	28974.632536	3731.390999	11635.538936
79.038000	0.252903	0.154116	0.263132	0.355277	5727.789626	28875.108451	3723.866551	11591.580339
79.535500	0.255199	0.155482	0.265901	0.349734	5780.198456	29290.961536	3741.422478	11703.758220
80.036000	0.256016	0.154510	0.262919	0.348252	5795.751693	29321.990006	3738.230012	11734.000081
80.536000	0.255887	0.156328	0.262415	0.351425	5773.443876	29239.783025	3730.449440	11669.395314
81.036500	0.253080	0.155656	0.261512	0.352679	5746.232270	29123.400683	3725.913233	11643.972883
81.536500	0.257718	0.157655	0.266386	0.349191	5800.931823	29456.333439	3743.620177	11714.835742
82.037000	0.254047	0.156118	0.263047	0.347525	5787.343511	29464.174823	3740.050179	11748.869358
82.535000	0.253889	0.155533	0.261953	0.350013	5769.499747	29277.175646	3732.454121	11698.082367
83.035000	0.253650	0.156044	0.262127	0.352391	5751.965775	29164.183397	3727.809123	11649.807080
83.535000	0.257698	0.156773	0.266724	0.349060	5801.681152	29410.483940	3744.620194	11717.489155
84.035000	0.257759	0.156473	0.263032	0.349496	5799.140223	29365.722278	3735.830809	11708.618167
84.536000	0.255347	0.155863	0.269859	0.353280	5757.368737	29099.655267	3742.303858	11631.835800
85.036500	0.258095	0.156520	0.264006	0.351514	5787.737099	29245.990803	3733.620114	11667.575648
85.539500	0.258800	0.156396	0.269696	0.352212	5787.791201	29196.286136	3744.237550	11653.437330
86.037000	0.259214	0.155428	0.259564	0.352552	5788.286422	29117.303996	3722.105444	11646.550401
86.537000	0.257457	0.155252	0.265055	0.353774	5768.200947	29033.167069	3731.061545	11621.853064
87.034500	0.255249	0.155437	0.266288	0.360551	5708.459903	28640.129730	3719.446347	11486.173036
87.535000	0.257366	0.154477	0.265301	0.355623	5755.201534	28876.011387	3727.689367	11584.627413
88.035000	0.260054	0.155106	0.267418	0.356656	5766.294720	28851.921566	3729.968367	11563.898704
88.535500	0.259227	0.154636	0.264700	0.357461	5755.353564	28775.928771	3722.578100	11547.764085
89.038500	0.258334	0.153380	0.264469	0.357946	5746.151734	28672.569990	3721.084908	11538.078666
89.536000	0.254367	0.154144	0.263443	0.358832	5713.972454	28665.315025	3717.103415	11520.379584
90.039500	0.258713	0.154459	0.268181	0.360262	5733.259586	28599.338593	3723.999389	11491.904598
90.536500	0.260272	0.152868	0.267306	0.359867	5746.258357	28528.809650	3722.995086	11499.758894
91.036500	0.257726	0.153278	0.263590	0.361714	5717.122094	28444.334012	3711.443304	11463.102248
91.536500	0.259213	0.152815	0.270829	0.361616	5727.600244	28422.851650	3726.711746	11465.035019
92.035000	0.257243	0.153040	0.269604	0.363396	5702.862667	28331.764081	3720.426379	11429.828652
92.535000	0.258519	0.152928	0.274456	0.363932	5707.729350	28293.903971	3729.467085	11419.264577
93.035000	0.260138	0.153090	0.269541	0.364343	5715.688409	28279.369796	3718.324543	11411.163654
93.574000	0.259894	0.153069	0.272239	0.365663	5705.383288	28201.260690	3721.193854	11385.201334
94.036000	0.260072	0.152164	0.266379	0.366314	5702.276040	28110.880152	3707.712891	11372.427295
94.539000	0.256224	0.150178	0.265367	0.370511	5649.937716	27755.146115	3697.075177	11290.556187
95.036000	0.255133	0.150957	0.272294	0.372572	5629.695568	27681.969722	3707.009054	11250.634804
95.537000	0.258517	0.151883	0.274538	0.369392	5672.013018	27916.986858	3718.216647	11312.299128
96.037000	0.261599	0.150472	0.269834	0.368940	5695.068533	27861.889990	3709.417657	11321.099849
