sample name	sample
index	1513
start time	 05-18-2021  03:08:04 PM


Wavelength (nm)	Absorbance
494.344910	0.147020
494.563924	0.147020
494.782919	0.147020
495.001897	0.001796
495.220856	-0.025260
495.439797	-0.051884
495.658719	-0.095402
495.877624	-0.171297
496.096510	-0.169795
496.315378	-0.080939
496.534227	-0.129952
496.753059	-0.076759
496.971872	-0.046162
497.190667	0.122630
497.409444	0.141100
497.628203	0.140889
497.846943	0.146623
498.065665	0.144797
498.284369	0.145862
498.503055	0.147215
498.721723	0.146701
498.940372	0.144996
499.159003	0.145818
499.377616	0.145721
499.596210	0.147219
499.814787	0.145447
500.033345	0.146294
500.251885	0.145106
500.470406	0.143823
500.688910	0.145010
500.907395	0.146047
501.125862	0.144976
501.344311	0.143848
501.562742	0.143132
501.781154	0.144448
501.999548	0.145418
502.217924	0.146480
502.436282	0.145658
502.654621	0.144506
502.872942	0.145106
503.091245	0.145575
503.309530	0.146373
503.527797	0.146901
503.746045	0.146427
503.964275	0.145568
504.182487	0.144787
504.400681	0.146230
504.618856	0.146977
504.837013	0.146912
505.055152	0.146491
505.273273	0.146111
505.491376	0.145993
505.709460	0.146798
505.927526	0.147425
506.145574	0.148566
506.363604	0.148362
506.581615	0.148206
506.799608	0.148750
507.017583	0.149594
507.235540	0.149628
507.453478	0.149043
507.671399	0.148419
507.889301	0.147579
508.107185	0.147325
508.325050	0.148017
508.542898	0.147834
508.760727	0.147886
508.978538	0.147961
509.196330	0.148093
509.414105	0.148166
509.631861	0.148465
509.849599	0.149993
510.067319	0.149681
510.285021	0.149703
510.502704	0.150227
510.720369	0.150324
510.938016	0.150460
511.155645	0.150734
511.373255	0.152501
511.590848	0.152162
511.808422	0.151057
512.025977	0.150740
512.243515	0.150310
512.461034	0.149724
512.678536	0.149321
512.896018	0.149488
513.113483	0.149767
513.330930	0.149035
513.548358	0.150073
513.765768	0.151311
513.983160	0.152846
514.200533	0.153681
514.417889	0.154384
514.635226	0.154991
514.852545	0.154831
515.069845	0.154628
515.287128	0.154834
515.504392	0.154536
515.721638	0.153824
515.938866	0.153395
516.156075	0.153286
516.373267	0.154060
516.590440	0.154465
516.807594	0.155105
517.024731	0.156625
517.241850	0.157099
517.458950	0.157804
517.676032	0.159070
517.893095	0.159516
518.110141	0.159617
518.327168	0.159018
518.544177	0.159275
518.761168	0.159505
518.978141	0.158163
519.195095	0.158459
519.412031	0.158482
519.628949	0.157815
519.845849	0.157743
520.062731	0.157735
520.279594	0.158598
520.496439	0.159378
520.713266	0.159635
520.930074	0.160789
521.146865	0.160857
521.363637	0.161369
521.580391	0.162511
521.797127	0.163211
522.013844	0.163567
522.230543	0.162901
522.447224	0.162134
522.663887	0.162180
522.880532	0.162479
523.097158	0.163288
523.313766	0.163183
523.530356	0.162524
523.746928	0.162117
523.963481	0.163009
524.180017	0.163578
524.396534	0.164419
524.613032	0.164667
524.829513	0.164769
525.045975	0.163829
525.262420	0.164022
525.478845	0.165236
525.695253	0.165507
525.911643	0.165325
526.128014	0.165722
526.344367	0.165640
526.560702	0.165853
526.777018	0.166584
526.993316	0.167209
527.209597	0.167718
527.425858	0.167300
527.642102	0.167087
527.858328	0.167157
528.074535	0.167539
528.290724	0.167924
528.506894	0.168408
528.723047	0.168582
528.939181	0.169197
529.155297	0.169123
529.371395	0.169641
529.587475	0.170307
529.803536	0.170674
530.019579	0.170343
530.235604	0.170578
530.451611	0.171146
530.667600	0.171235
530.883570	0.171714
531.099522	0.173005
531.315456	0.173110
531.531372	0.174394
531.747269	0.175072
531.963148	0.176589
532.179009	0.176474
532.394852	0.176402
532.610676	0.177032
532.826482	0.176197
533.042271	0.176142
533.258040	0.176385
533.473792	0.176255
533.689525	0.176202
533.905240	0.176595
534.120937	0.177730
534.336616	0.177693
534.552277	0.177825
534.767919	0.178821
534.983543	0.178601
535.199149	0.179228
535.414736	0.179373
535.630306	0.179809
535.845857	0.179799
536.061390	0.179293
536.276904	0.179330
536.492401	0.178821
536.707879	0.179021
536.923339	0.179352
537.138781	0.179781
537.354204	0.180055
537.569610	0.180689
537.784997	0.180145
538.000366	0.181258
538.215716	0.182321
538.431049	0.182987
538.646363	0.183125
538.861659	0.183355
539.076937	0.183467
539.292196	0.183392
539.507438	0.183462
539.722661	0.184283
539.937866	0.183557
540.153052	0.183432
540.368221	0.183925
540.583371	0.184505
540.798503	0.184642
541.013617	0.184347
541.228712	0.184878
541.443789	0.184880
541.658848	0.184749
541.873889	0.185375
542.088912	0.185807
542.303916	0.186108
542.518902	0.186109
542.733870	0.186398
542.948820	0.186791
543.163752	0.187336
543.378665	0.187574
543.593560	0.187980
543.808437	0.187588
544.023295	0.187657
544.238136	0.187856
544.452958	0.188507
544.667762	0.189023
544.882548	0.189188
545.097315	0.188968
545.312064	0.189233
545.526795	0.188893
545.741508	0.189330
545.956203	0.189488
546.170879	0.189908
546.385537	0.190153
546.600177	0.190231
546.814799	0.190681
547.029402	0.190827
547.243988	0.191357
547.458555	0.192208
547.673103	0.192237
547.887634	0.192482
548.102146	0.192696
548.316640	0.192365
548.531116	0.192838
548.745574	0.193040
548.960013	0.193523
549.174435	0.194025
549.388838	0.193753
549.603222	0.194278
549.817589	0.194768
550.031937	0.194509
550.246267	0.195307
550.460579	0.195078
550.674873	0.194775
550.889148	0.194957
551.103405	0.194723
551.317644	0.195329
551.531865	0.195546
551.746068	0.195363
551.960252	0.195646
552.174418	0.195534
552.388566	0.195934
552.602696	0.196237
552.816807	0.196858
553.030900	0.197129
553.244975	0.197407
553.459032	0.197533
553.673070	0.198083
553.887091	0.198209
554.101093	0.198399
554.315077	0.198405
554.529042	0.198604
554.742990	0.198339
554.956919	0.198398
555.170830	0.198316
555.384722	0.198259
555.598597	0.198104
555.812453	0.198301
556.026291	0.198532
556.240111	0.198772
556.453913	0.198738
556.667696	0.199038
556.881461	0.198669
557.095208	0.198929
557.308937	0.199836
557.522647	0.199957
557.736339	0.200146
557.950013	0.199977
558.163669	0.200350
558.377307	0.200907
558.590926	0.200932
558.804527	0.201354
559.018110	0.201381
559.231675	0.201147
559.445221	0.201651
559.658749	0.201724
559.872259	0.202396
560.085751	0.202123
560.299225	0.202241
560.512680	0.202292
560.726117	0.202678
560.939536	0.203016
561.152937	0.203188
561.366319	0.202938
561.579683	0.203003
561.793029	0.202852
562.006357	0.203172
562.219667	0.203557
562.432958	0.203476
562.646231	0.203323
562.859486	0.203123
563.072723	0.202744
563.285941	0.203153
563.499141	0.203588
563.712323	0.203445
563.925487	0.203577
564.138632	0.202883
564.351760	0.203072
564.564869	0.203032
564.777960	0.203348
564.991032	0.204295
565.204087	0.204334
565.417123	0.203794
565.630141	0.203889
565.843140	0.203799
566.056122	0.204598
566.269085	0.204712
566.482030	0.205007
566.694957	0.205338
566.907866	0.205328
567.120756	0.205338
567.333628	0.206019
567.546482	0.206569
567.759318	0.206690
567.972135	0.206800
568.184935	0.207137
568.397716	0.207257
568.610478	0.207108
568.823223	0.207233
569.035949	0.207299
569.248657	0.207136
569.461347	0.206988
569.674019	0.206946
569.886672	0.206665
570.099308	0.206495
570.311925	0.206522
570.524523	0.206959
570.737104	0.206442
570.949666	0.206574
571.162210	0.206810
571.374736	0.207080
571.587244	0.207835
571.799733	0.208312
572.012205	0.208538
572.224658	0.209264
572.437092	0.208969
572.649509	0.209747
572.861907	0.209880
573.074287	0.210245
573.286649	0.210674
573.498993	0.210408
573.711318	0.210234
573.923625	0.210556
574.135914	0.210222
574.348185	0.210282
574.560438	0.210197
574.772672	0.210165
574.984888	0.210234
575.197086	0.209789
575.409266	0.210108
575.621427	0.210641
575.833570	0.210791
576.045695	0.211347
576.257802	0.211895
576.469890	0.212510
576.681961	0.212867
576.894013	0.212877
577.106046	0.213394
577.318062	0.213460
577.530059	0.213420
577.742039	0.213120
577.954000	0.212941
578.165942	0.213238
578.377867	0.213306
578.589773	0.213207
578.801661	0.213281
579.013531	0.213207
579.225382	0.213851
579.437216	0.213995
579.649031	0.214527
579.860828	0.214777
580.072606	0.214628
580.284367	0.214664
580.496109	0.215324
580.707833	0.215542
580.919539	0.215980
581.131227	0.215459
581.342896	0.215995
581.554547	0.216453
581.766180	0.216423
581.977795	0.216524
582.189391	0.216754
582.400969	0.216760
582.612529	0.216834
582.824071	0.216779
583.035595	0.216775
583.247100	0.216345
583.458587	0.216295
583.670056	0.216579
583.881506	0.216426
584.092939	0.216232
584.304353	0.216662
584.515749	0.216835
584.727127	0.216927
584.938486	0.217034
585.149828	0.216997
585.361151	0.216820
585.572456	0.216926
585.783742	0.217684
585.995011	0.217845
586.206261	0.217536
586.417493	0.217966
586.628706	0.217883
586.839902	0.218152
587.051079	0.218887
587.262238	0.218909
587.473379	0.218990
587.684502	0.218843
587.895606	0.218910
588.106692	0.219287
588.317760	0.219248
588.528810	0.219350
588.739841	0.219638
588.950855	0.219287
589.161850	0.219565
589.372827	0.219157
589.583785	0.219042
589.794726	0.219271
590.005648	0.218854
590.216552	0.218869
590.427437	0.219146
590.638305	0.219905
590.849154	0.220130
591.059985	0.220297
591.270798	0.221274
591.481592	0.221720
591.692369	0.221842
591.903127	0.222641
592.113867	0.222788
592.324588	0.222983
592.535292	0.222686
592.745977	0.223107
592.956644	0.223540
593.167293	0.223493
593.377923	0.223373
593.588536	0.223776
593.799130	0.223715
594.009706	0.223912
594.220263	0.224438
594.430803	0.224029
594.641324	0.224068
594.851827	0.224171
595.062312	0.224141
595.272778	0.224583
595.483227	0.224558
595.693657	0.224488
595.904069	0.224719
596.114462	0.224447
596.324838	0.224894
596.535195	0.225016
596.745534	0.224898
596.955855	0.225445
597.166157	0.225760
597.376441	0.226063
597.586707	0.226835
597.796955	0.226944
598.007185	0.227037
598.217396	0.227218
598.427589	0.227608
598.637764	0.228116
598.847921	0.228162
599.058060	0.228341
599.268180	0.228292
599.478282	0.228195
599.688366	0.228186
599.898431	0.228549
600.108479	0.228834
600.318508	0.228644
600.528519	0.228837
600.738511	0.228685
600.948486	0.228766
601.158442	0.228900
601.368380	0.228645
601.578300	0.228717
601.788202	0.228843
601.998085	0.228710
602.207950	0.228991
602.417797	0.228830
602.627626	0.229164
602.837436	0.229343
603.047228	0.229293
603.257002	0.229454
603.466758	0.229903
603.676496	0.229830
603.886215	0.230158
604.095916	0.229985
604.305599	0.230414
604.515264	0.230404
604.724910	0.230069
604.934538	0.230232
605.144148	0.230692
605.353740	0.230960
605.563314	0.231399
605.772869	0.231397
605.982406	0.231900
606.191925	0.231718
606.401425	0.232055
606.610908	0.232607
606.820372	0.232725
607.029818	0.232937
607.239246	0.232795
607.448655	0.233021
607.658047	0.233553
607.867420	0.233797
608.076775	0.234051
608.286111	0.233941
608.495430	0.234372
608.704730	0.234430
608.914012	0.234557
609.123275	0.234656
609.332521	0.234701
609.541748	0.234444
609.750957	0.234365
609.960148	0.234358
610.169321	0.234658
610.378475	0.234648
610.587611	0.234974
610.796729	0.234996
611.005829	0.235132
611.214910	0.235388
611.423974	0.235356
611.633019	0.235761
611.842045	0.236205
612.051054	0.236209
612.260044	0.236071
612.469017	0.236382
612.677970	0.236300
612.886906	0.236358
613.095824	0.236362
613.304723	0.236786
613.513604	0.236947
613.722467	0.236782
613.931311	0.236758
614.140138	0.236956
614.348946	0.236757
614.557736	0.237025
614.766507	0.237285
614.975261	0.237538
615.183996	0.238062
615.392713	0.238068
615.601412	0.238260
615.810092	0.238610
616.018754	0.238746
616.227399	0.238927
616.436024	0.238899
616.644632	0.239226
616.853222	0.239245
617.061793	0.239253
617.270346	0.239235
617.478880	0.239503
617.687397	0.239699
617.895895	0.239962
618.104375	0.240184
618.312837	0.240728
618.521281	0.240773
618.729706	0.241043
618.938113	0.241155
619.146502	0.241462
619.354873	0.241674
619.563226	0.241933
619.771560	0.241951
619.979876	0.242348
620.188174	0.242427
620.396453	0.242698
620.604715	0.242862
620.812958	0.242917
621.021183	0.243068
621.229390	0.243273
621.437578	0.243367
621.645748	0.243550
621.853900	0.243839
622.062034	0.243868
622.270150	0.244076
622.478247	0.244041
622.686326	0.244553
622.894387	0.244771
623.102430	0.244975
623.310454	0.244995
623.518461	0.245146
623.726449	0.245071
623.934418	0.245290
624.142370	0.245385
624.350303	0.245324
624.558218	0.245081
624.766115	0.245187
624.973994	0.245167
625.181855	0.245384
625.389697	0.245462
625.597521	0.245503
625.805327	0.245656
626.013114	0.245406
626.220883	0.245877
626.428634	0.245860
626.636367	0.245957
626.844082	0.246109
627.051778	0.246429
627.259457	0.246505
627.467117	0.246794
627.674758	0.246681
627.882382	0.247368
628.089987	0.247239
628.297574	0.247407
628.505143	0.247325
628.712694	0.247393
628.920226	0.247149
629.127740	0.247686
629.335236	0.247847
629.542714	0.248261
629.750174	0.248276
629.957615	0.248373
630.165038	0.248621
630.372443	0.249119
630.579829	0.249346
630.787198	0.249836
630.994548	0.249779
631.201880	0.249964
631.409194	0.250210
631.616489	0.250243
631.823766	0.250635
632.031025	0.251060
632.238266	0.250924
632.445489	0.250834
632.652693	0.250701
632.859879	0.250804
633.067047	0.250999
633.274197	0.251239
633.481329	0.251465
633.688442	0.251634
633.895537	0.251580
634.102614	0.251841
634.309672	0.252057
634.516713	0.252348
634.723735	0.252592
634.930739	0.252699
635.137724	0.252536
635.344692	0.252587
635.551641	0.252805
635.758572	0.253131
635.965485	0.253276
636.172379	0.253973
636.379256	0.254080
636.586114	0.253854
636.792954	0.253936
636.999775	0.254087
637.206579	0.254180
637.413364	0.254352
637.620131	0.254309
637.826880	0.254567
638.033610	0.254401
638.240323	0.254654
638.447017	0.255034
638.653692	0.254900
638.860350	0.255016
639.066990	0.255166
639.273611	0.255060
639.480214	0.255054
639.686798	0.255055
639.893365	0.255098
640.099913	0.254982
640.306443	0.254812
640.512955	0.255211
640.719449	0.255535
640.925924	0.255725
641.132381	0.255978
641.338820	0.256081
641.545241	0.256129
641.751644	0.256074
641.958028	0.256078
642.164394	0.256550
642.370742	0.256626
642.577071	0.256888
642.783383	0.256808
642.989676	0.256896
643.195951	0.257318
643.402207	0.257850
643.608446	0.258193
643.814666	0.258614
644.020868	0.258731
644.227052	0.258743
644.433218	0.258627
644.639365	0.258809
644.845494	0.259026
645.051605	0.259045
645.257698	0.259297
645.463772	0.259614
645.669828	0.259708
645.875866	0.259837
646.081886	0.259896
646.287888	0.260093
646.493871	0.260608
646.699836	0.260935
646.905783	0.261241
647.111712	0.261424
647.317622	0.261261
647.523514	0.261720
647.729388	0.261612
647.935244	0.262157
648.141082	0.262614
648.346901	0.262699
648.552702	0.262668
648.758485	0.262742
648.964250	0.262899
649.169996	0.263248
649.375724	0.263283
649.581434	0.263582
649.787126	0.263710
649.992800	0.263406
650.198455	0.263565
650.404092	0.263808
650.609711	0.264015
650.815311	0.264087
651.020894	0.264209
651.226458	0.264415
651.432004	0.265068
651.637532	0.265091
651.843041	0.265386
652.048532	0.265336
652.254006	0.265352
652.459460	0.265400
652.664897	0.265283
652.870315	0.265544
653.075716	0.265460
653.281097	0.265048
653.486461	0.265318
653.691807	0.265551
653.897134	0.265687
654.102443	0.266023
654.307734	0.266177
654.513006	0.266452
654.718261	0.266759
654.923497	0.267244
655.128715	0.267635
655.333915	0.267806
655.539096	0.268088
655.744259	0.268459
655.949404	0.268540
656.154531	0.268820
656.359640	0.268966
656.564730	0.268956
656.769802	0.269193
656.974856	0.269408
657.179892	0.269948
657.384909	0.269937
657.589908	0.270124
657.794889	0.270454
657.999852	0.270605
658.204797	0.270922
658.409723	0.271028
658.614631	0.271127
658.819521	0.271447
659.024393	0.271386
659.229246	0.271828
659.434081	0.272021
659.638898	0.272077
659.843697	0.272352
660.048478	0.272424
660.253240	0.272838
660.457984	0.272847
660.662710	0.273073
660.867417	0.273226
661.072107	0.273198
661.276778	0.273583
661.481431	0.273675
661.686066	0.273798
661.890682	0.273974
662.095281	0.274016
662.299861	0.274122
662.504422	0.274364
662.708966	0.274264
662.913491	0.274494
663.117999	0.274328
663.322488	0.274514
663.526958	0.274633
663.731411	0.274840
663.935845	0.275030
664.140261	0.275270
664.344659	0.275319
664.549038	0.275635
664.753400	0.275868
664.957743	0.276199
665.162068	0.276629
665.366375	0.276780
665.570663	0.276921
665.774933	0.277268
665.979185	0.277486
666.183419	0.277761
666.387635	0.278185
666.591832	0.278362
666.796011	0.278559
667.000172	0.278718
667.204315	0.278887
667.408439	0.279103
667.612545	0.279375
667.816634	0.279645
668.020703	0.279826
668.224755	0.280026
668.428788	0.280136
668.632803	0.280419
668.836800	0.280209
669.040779	0.280399
669.244739	0.280387
669.448681	0.280458
669.652605	0.281038
669.856511	0.281234
670.060399	0.281466
670.264268	0.281957
670.468119	0.281916
670.671952	0.282529
670.875767	0.282822
671.079563	0.283598
671.283341	0.283617
671.487101	0.283539
671.690843	0.284035
671.894567	0.284386
672.098272	0.284437
672.301959	0.284916
672.505628	0.285238
672.709278	0.285652
672.912911	0.285653
673.116525	0.285897
673.320121	0.286197
673.523699	0.286263
673.727258	0.286144
673.930799	0.286525
674.134322	0.286575
674.337827	0.286630
674.541314	0.286772
674.744782	0.286739
674.948232	0.287157
675.151664	0.287115
675.355078	0.287146
675.558474	0.287399
675.761851	0.287407
675.965210	0.287750
676.168551	0.287922
676.371873	0.287940
676.575178	0.288220
676.778464	0.288362
676.981732	0.288422
677.184981	0.288662
677.388213	0.289117
677.591426	0.289556
677.794621	0.289724
677.997798	0.289977
678.200956	0.290399
678.404097	0.290699
678.607219	0.290996
678.810323	0.291542
679.013408	0.291660
679.216476	0.291363
679.419525	0.291490
679.622556	0.291773
679.825569	0.292015
680.028563	0.292034
680.231540	0.292092
680.434498	0.291841
680.637438	0.291708
680.840359	0.291529
681.043263	0.291813
681.246148	0.291710
681.449015	0.291587
681.651864	0.291615
681.854694	0.291712
682.057506	0.291862
682.260301	0.292233
682.463076	0.292543
682.665834	0.293104
682.868573	0.293434
683.071295	0.293660
683.273998	0.294025
683.476682	0.294328
683.679349	0.294569
683.881997	0.294586
684.084627	0.294718
684.287239	0.294685
684.489833	0.294677
684.692408	0.294632
684.894965	0.294767
685.097504	0.294871
685.300025	0.294913
685.502527	0.294890
685.705012	0.295006
685.907478	0.295158
686.109925	0.295559
686.312355	0.295811
686.514766	0.295808
686.717159	0.295856
686.919534	0.295956
687.121891	0.295837
687.324230	0.296276
687.526550	0.296594
687.728852	0.296731
687.931136	0.296699
688.133401	0.296730
688.335649	0.296957
688.537878	0.297113
688.740089	0.297134
688.942281	0.297619
689.144456	0.297756
689.346612	0.297895
689.548750	0.297895
689.750870	0.298232
689.952971	0.298362
690.155055	0.298664
690.357120	0.299164
690.559167	0.299416
690.761195	0.299562
690.963206	0.299825
691.165198	0.300037
691.367172	0.300366
691.569128	0.300201
691.771065	0.300552
691.972984	0.300572
692.174885	0.300684
692.376768	0.300815
692.578633	0.300777
692.780479	0.300677
692.982308	0.300699
693.184118	0.300844
693.385909	0.301078
693.587683	0.301006
693.789438	0.301245
693.991175	0.301288
694.192894	0.301419
694.394595	0.301537
694.596277	0.301430
694.797941	0.301674
694.999587	0.301627
695.201215	0.301781
695.402824	0.301948
695.604416	0.302240
695.805989	0.301981
696.007543	0.302220
696.209080	0.302192
696.410598	0.302441
696.612099	0.302496
696.813580	0.302557
697.015044	0.302719
697.216490	0.302848
697.417917	0.302728
697.619326	0.302853
697.820717	0.302983
698.022089	0.303418
698.223444	0.303722
698.424780	0.304033
698.626098	0.304509
698.827397	0.304625
699.028679	0.304752
699.229942	0.304773
699.431187	0.305050
699.632414	0.305083
699.833622	0.305037
700.034813	0.305190
700.235985	0.305293
700.437139	0.305427
700.638274	0.305783
700.839392	0.306034
701.040491	0.306463
701.241572	0.306981
701.442635	0.307074
701.643679	0.307299
701.844706	0.307314
702.045714	0.307180
702.246704	0.307050
702.447675	0.307163
702.648629	0.307332
702.849564	0.307463
703.050481	0.307422
703.251380	0.307478
703.452260	0.307538
703.653122	0.307632
703.853966	0.307818
704.054792	0.308126
704.255600	0.307928
704.456389	0.307651
704.657160	0.307455
704.857913	0.307189
705.058648	0.307013
705.259365	0.307005
705.460063	0.306884
705.660743	0.306650
705.861405	0.306365
706.062048	0.306443
706.262674	0.306555
706.463281	0.306413
706.663870	0.306316
706.864441	0.306599
707.064993	0.306729
707.265527	0.306840
707.466043	0.307029
707.666541	0.307083
707.867021	0.306961
708.067482	0.306865
708.267925	0.307056
708.468350	0.307213
708.668757	0.307157
708.869145	0.307153
709.069516	0.307217
709.269868	0.307221
709.470201	0.307327
709.670517	0.307468
709.870814	0.307603
710.071093	0.307752
710.271354	0.307887
710.471597	0.307819
710.671821	0.307825
710.872028	0.307809
711.072216	0.307971
711.272385	0.307944
711.472537	0.308008
711.672670	0.307944
711.872785	0.308041
712.072882	0.308223
712.272961	0.308542
712.473021	0.308594
712.673063	0.308628
712.873087	0.308503
713.073093	0.308541
713.273081	0.308613
713.473050	0.308728
713.673001	0.308620
713.872934	0.308499
714.072849	0.308492
714.272745	0.308393
714.472623	0.308464
714.672483	0.308579
714.872325	0.308878
715.072148	0.308783
715.271954	0.308674
715.471741	0.308510
715.671509	0.308361
715.871260	0.308125
716.070992	0.308063
716.270707	0.307905
716.470403	0.307888
716.670080	0.307573
716.869740	0.307505
717.069381	0.307618
717.269004	0.307525
717.468609	0.307632
717.668195	0.307639
717.867764	0.307563
718.067314	0.307381
718.266846	0.307330
718.466360	0.307394
718.665855	0.307477
718.865332	0.307393
719.064791	0.307441
719.264232	0.307147
719.463655	0.307059
719.663059	0.306979
719.862445	0.307015
720.061813	0.306650
720.261163	0.306370
720.460494	0.306239
720.659807	0.306040
720.859102	0.305938
721.058379	0.305977
721.257638	0.305936
721.456878	0.305910
721.656100	0.305730
721.855304	0.305699
722.054490	0.305653
722.253657	0.305421
722.452806	0.305046
722.651937	0.304815
722.851050	0.304657
723.050145	0.304307
723.249221	0.304312
723.448279	0.304304
723.647319	0.304335
723.846340	0.304229
724.045344	0.304045
724.244329	0.304072
724.443296	0.304028
724.642245	0.303871
724.841175	0.303840
725.040088	0.303664
725.238982	0.303626
725.437857	0.303555
725.636715	0.303449
725.835554	0.303513
726.034376	0.303443
726.233179	0.303291
726.431963	0.303209
726.630730	0.302946
726.829478	0.302659
727.028208	0.302370
727.226920	0.302317
727.425614	0.302265
727.624289	0.302057
727.822946	0.302087
728.021585	0.301818
728.220206	0.301900
728.418808	0.301894
728.617392	0.301929
728.815958	0.301810
729.014506	0.301611
729.213036	0.301316
729.411547	0.301217
729.610040	0.301064
729.808515	0.300875
730.006972	0.300515
730.205410	0.300379
730.403831	0.299915
730.602233	0.299941
730.800616	0.299626
730.998982	0.299406
731.197329	0.299095
731.395658	0.298937
731.593969	0.299140
731.792262	0.299040
731.990536	0.299025
732.188793	0.299415
732.387031	0.299228
732.585250	0.299021
732.783452	0.299045
732.981635	0.298996
733.179800	0.298676
733.377947	0.298448
733.576076	0.298174
733.774186	0.298305
733.972278	0.297853
734.170352	0.297815
734.368408	0.297963
734.566446	0.297666
734.764465	0.297762
734.962466	0.297867
735.160449	0.297644
735.358413	0.297951
735.556360	0.297390
735.754288	0.297474
735.952198	0.297191
736.150090	0.297088
736.347963	0.296915
736.545818	0.296667
736.743655	0.296267
736.941474	0.296037
737.139275	0.295774
737.337057	0.295693
737.534821	0.295007
737.732567	0.294790
737.930295	0.294410
738.128005	0.294222
738.325696	0.293797
738.523369	0.293791
738.721024	0.293774
738.918660	0.293356
739.116279	0.293239
739.313879	0.293433
739.511461	0.293357
739.709024	0.293290
739.906570	0.293312
740.104097	0.293291
740.301606	0.293390
740.499097	0.293182
740.696569	0.293076
740.894024	0.292632
741.091460	0.292455
741.288878	0.292282
741.486277	0.292057
741.683659	0.291819
741.881022	0.291528
742.078367	0.291065
742.275694	0.290651
742.473002	0.290528
742.670293	0.290528
742.867565	0.290395
743.064819	0.290104
743.262054	0.289832
743.459272	0.289758
743.656471	0.289634
743.853652	0.289655
744.050815	0.289822
744.247959	0.289570
744.445085	0.289565
744.642194	0.289473
744.839283	0.289285
745.036355	0.289103
745.233408	0.288960
745.430444	0.288909
745.627461	0.288523
745.824459	0.288247
746.021440	0.288038
746.218402	0.287655
746.415346	0.287468
746.612272	0.287513
746.809180	0.287438
747.006069	0.287437
747.202940	0.287362
747.399793	0.286973
747.596628	0.286849
747.793444	0.286841
747.990243	0.286990
748.187023	0.286857
748.383784	0.286628
748.580528	0.286718
748.777253	0.286454
748.973960	0.286035
749.170649	0.286392
749.367320	0.286154
749.563973	0.285924
749.760607	0.285516
749.957223	0.285183
750.153821	0.284845
750.350400	0.284456
750.546962	0.283976
750.743505	0.284141
750.940030	0.283344
751.136536	0.283269
751.333025	0.282815
751.529495	0.282480
751.725947	0.282082
751.922381	0.281905
752.118796	0.281777
752.315194	0.281736
752.511573	0.281308
752.707934	0.281411
752.904276	0.281424
753.100601	0.281249
753.296907	0.281065
753.493195	0.280834
753.689465	0.280658
753.885716	0.280201
754.081949	0.279813
754.278164	0.279602
754.474361	0.279757
754.670540	0.279533
754.866700	0.279499
755.062843	0.279452
755.258967	0.279440
755.455072	0.279039
755.651160	0.279011
755.847229	0.279002
756.043280	0.278938
756.239313	0.278552
756.435328	0.278302
756.631324	0.277939
756.827302	0.277563
757.023262	0.277296
757.219204	0.277315
757.415127	0.277216
757.611033	0.277224
757.806920	0.276912
758.002788	0.276869
758.198639	0.276572
758.394471	0.276592
758.590286	0.276657
758.786081	0.276710
758.981859	0.276554
759.177619	0.276124
759.373360	0.275776
759.569083	0.275628
759.764788	0.275360
759.960474	0.275169
760.156143	0.275008
760.351793	0.274702
760.547425	0.274428
760.743038	0.274314
760.938634	0.274432
761.134211	0.274446
761.329770	0.274442
761.525311	0.274371
761.720833	0.274421
761.916338	0.274597
762.111824	0.274950
762.307292	0.274954
762.502741	0.275020
762.698173	0.274939
762.893586	0.274816
763.088981	0.274818
763.284358	0.274821
763.479716	0.274660
763.675057	0.274450
763.870379	0.274319
764.065683	0.274317
764.260968	0.274068
764.456236	0.273992
764.651485	0.273966
764.846716	0.273867
765.041929	0.273636
765.237123	0.273355
765.432299	0.273039
765.627457	0.272509
765.822597	0.272348
766.017719	0.272256
766.212822	0.272323
766.407907	0.272137
766.602974	0.271923
766.798023	0.271662
766.993054	0.271906
767.188066	0.271660
767.383060	0.271548
767.578036	0.271126
767.772993	0.271069
767.967933	0.270675
768.162854	0.270666
768.357757	0.270672
768.552642	0.270743
768.747508	0.270578
768.942356	0.270891
769.137186	0.271108
769.331998	0.271342
769.526792	0.271181
769.721567	0.271303
769.916324	0.271148
770.111063	0.270847
770.305784	0.270708
770.500486	0.270319
770.695171	0.269998
770.889837	0.269726
771.084484	0.269351
771.279114	0.269436
771.473725	0.269195
771.668318	0.269067
771.862893	0.269127
772.057450	0.268965
772.251988	0.269019
772.446509	0.269025
772.641011	0.269095
772.835494	0.269447
773.029960	0.269470
773.224407	0.269492
773.418836	0.269517
773.613247	0.269440
773.807640	0.269571
774.002014	0.269684
774.196370	0.270106
774.390708	0.269965
774.585028	0.269459
774.779330	0.269516
774.973613	0.269278
775.167878	0.269010
775.362125	0.268944
775.556354	0.268726
775.750564	0.268872
775.944756	0.268350
776.138930	0.268335
776.333086	0.268741
776.527223	0.268445
776.721343	0.268614
776.915444	0.268915
777.109526	0.268854
777.303591	0.268913
777.497637	0.268465
777.691666	0.268361
777.885676	0.268367
778.079667	0.268286
778.273641	0.268038
778.467596	0.267915
778.661533	0.267587
778.855452	0.267519
779.049352	0.267541
779.243235	0.267594
779.437099	0.267675
779.630945	0.267673
779.824773	0.267774
780.018582	0.267952
780.212373	0.267986
780.406146	0.268068
780.599901	0.268232
780.793638	0.268273
780.987356	0.268599
781.181056	0.268397
781.374738	0.268183
781.568402	0.267898
781.762047	0.268033
781.955674	0.268234
782.149283	0.268234
782.342874	0.267843
782.536447	0.267611
782.730001	0.267510
782.923537	0.267769
783.117055	0.267919
783.310555	0.268135
783.504036	0.268067
783.697499	0.267836
783.890944	0.267933
784.084371	0.268325
784.277780	0.268526
784.471170	0.268455
784.664542	0.268666
784.857896	0.268701
785.051231	0.268883
785.244549	0.269164
785.437848	0.269321
785.631129	0.269550
785.824392	0.269647
786.017636	0.269972
786.210863	0.270269
786.404071	0.270155
786.597260	0.270294
786.790432	0.270260
786.983585	0.270334
787.176721	0.270494
787.369838	0.270631
787.562936	0.270541
787.756017	0.270098
787.949079	0.270026
788.142123	0.270232
788.335149	0.270406
788.528156	0.270464
788.721146	0.270471
788.914117	0.270416
789.107070	0.270175
789.300005	0.270479
789.492921	0.271053
789.685819	0.271163
789.878699	0.271271
790.071561	0.271302
790.264405	0.271061
790.457230	0.271121
790.650037	0.271635
790.842826	0.272129
791.035597	0.272409
791.228349	0.272564
791.421084	0.272761
791.613800	0.272875
791.806497	0.273059
791.999177	0.273383
792.191838	0.273445
792.384481	0.273344
792.577106	0.273180
792.769713	0.273357
792.962301	0.273383
793.154871	0.273758
793.347423	0.273918
793.539957	0.274119
793.732473	0.274166
793.924970	0.274348
794.117449	0.274517
794.309910	0.274746
794.502353	0.274817
794.694777	0.274985
794.887183	0.274816
795.079571	0.275008
795.271941	0.275128
795.464293	0.275621
795.656626	0.275898
795.848941	0.276177
796.041238	0.276151
796.233516	0.276080
796.425777	0.276241
796.618019	0.276266
796.810243	0.276192
797.002449	0.276140
797.194636	0.276035
797.386805	0.276131
797.578956	0.276114
797.771089	0.276697
797.963204	0.277162
798.155300	0.277672
798.347378	0.277984
798.539438	0.278495
798.731480	0.278954
798.923503	0.279479
799.115509	0.279617
799.307496	0.279807
799.499465	0.280065
799.691415	0.280160
799.883348	0.280086
800.075262	0.280344
800.267158	0.280507
800.459035	0.281023
800.650895	0.281057
800.842736	0.281223
801.034559	0.281439
801.226364	0.281286
801.418150	0.281264
801.609919	0.281313
801.801669	0.281591
801.993401	0.281774
802.185114	0.281713
802.376810	0.281766
802.568487	0.282124
802.760146	0.282435
802.951787	0.282838
803.143409	0.283389
803.335014	0.283818
803.526600	0.284043
803.718168	0.284292
803.909717	0.284438
804.101249	0.284677
804.292762	0.284777
804.484257	0.285081
804.675734	0.285268
804.867192	0.285353
805.058632	0.285442
805.250054	0.285475
805.441458	0.285757
805.632844	0.286111
805.824211	0.286632
806.015561	0.286917
806.206891	0.287051
806.398204	0.287533
806.589499	0.287726
806.780775	0.287794
806.972033	0.288246
807.163273	0.288255
807.354495	0.288323
807.545698	0.288494
807.736883	0.288652
807.928050	0.288931
808.119199	0.288838
808.310329	0.289135
808.501441	0.289565
808.692535	0.289912
808.883611	0.290273
809.074669	0.290686
809.265708	0.290931
809.456729	0.291445
809.647732	0.291715
809.838717	0.292113
810.029683	0.292289
810.220632	0.292781
810.411562	0.293011
810.602474	0.293370
810.793367	0.293652
810.984242	0.294039
811.175100	0.294160
811.365938	0.294696
811.556759	0.294901
811.747562	0.295192
811.938346	0.295171
812.129112	0.295374
812.319860	0.295812
812.510589	0.296031
812.701300	0.296391
812.891994	0.296987
813.082668	0.297024
813.273325	0.297583
813.463964	0.298165
813.654584	0.298548
813.845186	0.298779
814.035769	0.298821
814.226335	0.299324
814.416882	0.299569
814.607411	0.299699
814.797922	0.299996
814.988415	0.300117
815.178889	0.300405
815.369345	0.300861
815.559783	0.301217
815.750203	0.301765
815.940605	0.301939
816.130988	0.302128
816.321353	0.302496
816.511700	0.302808
816.702028	0.303153
816.892339	0.303387
817.082631	0.303369
817.272905	0.303702
817.463161	0.303633
817.653398	0.303974
817.843617	0.304248
818.033819	0.304441
818.224001	0.304579
818.414166	0.304918
818.604312	0.305073
818.794440	0.305545
818.984550	0.305907
819.174642	0.306613
819.364716	0.307056
819.554771	0.307550
819.744808	0.307989
819.934827	0.308438
820.124827	0.308927
820.314810	0.309360
820.504774	0.310039
820.694720	0.310326
820.884647	0.310718
821.074557	0.311045
821.264448	0.311451
821.454321	0.312013
821.644176	0.312463
821.834012	0.312507
822.023831	0.312737
822.213631	0.312967
822.403413	0.313446
822.593176	0.313430
822.782922	0.313506
822.972649	0.313746
823.162358	0.313730
823.352049	0.313928
823.541721	0.314230
823.731376	0.314681
823.921012	0.314760
824.110629	0.314780
824.300229	0.314960
824.489811	0.315556
824.679374	0.316281
824.868919	0.316879
825.058445	0.317501
825.247954	0.318277
825.437444	0.318796
825.626916	0.319160
825.816370	0.319742
826.005806	0.320435
826.195223	0.320771
826.384622	0.320860
826.574003	0.321310
826.763366	0.321715
826.952711	0.322033
827.142037	0.322391
827.331345	0.323122
827.520635	0.323455
827.709906	0.324150
827.899160	0.324533
828.088395	0.324940
828.277612	0.325266
828.466810	0.325580
828.655991	0.326065
828.845153	0.326455
829.034297	0.326982
829.223423	0.327610
829.412531	0.327888
829.601620	0.328207
829.790691	0.328632
829.979744	0.328862
830.168779	0.329155
830.357795	0.329321
830.546793	0.329947
830.735773	0.330147
830.924735	0.330509
831.113679	0.330954
831.302604	0.331475
831.491511	0.331640
831.680400	0.332360
831.869271	0.333065
832.058123	0.333726
832.246957	0.334125
832.435773	0.334526
832.624571	0.335329
832.813351	0.335537
833.002112	0.335855
833.190855	0.336832
833.379580	0.337413
833.568287	0.337740
833.756975	0.338329
833.945645	0.338853
834.134297	0.339509
834.322931	0.339863
834.511547	0.340582
834.700144	0.341249
834.888723	0.341389
835.077284	0.341814
835.265826	0.342282
835.454351	0.342474
835.642857	0.342914
835.831345	0.343521
836.019815	0.343768
836.208266	0.343966
836.396699	0.344464
836.585114	0.345146
836.773511	0.345587
836.961890	0.345929
837.150250	0.346569
837.338592	0.346739
837.526916	0.347435
837.715222	0.348275
837.903510	0.348474
838.091779	0.348965
838.280030	0.349331
838.468263	0.349670
838.656477	0.350125
838.844674	0.350620
839.032852	0.351334
839.221012	0.351327
839.409153	0.351414
839.597277	0.352437
839.785382	0.353008
839.973469	0.353494
840.161538	0.353984
840.349589	0.354628
840.537621	0.355047
840.725635	0.355703
840.913631	0.356793
841.101609	0.357384
841.289568	0.357790
841.477509	0.358348
841.665432	0.358731
841.853337	0.359736
842.041224	0.360455
842.229092	0.360851
842.416942	0.360866
842.604774	0.361206
842.792588	0.361884
842.980383	0.362334
843.168160	0.362860
843.355919	0.364087
843.543660	0.364516
843.731382	0.365142
843.919087	0.365876
844.106773	0.366723
844.294441	0.367141
844.482090	0.367650
844.669722	0.368513
844.857335	0.368717
845.044930	0.368704
845.232507	0.368545
845.420065	0.368774
845.607605	0.369315
845.795127	0.369923
845.982631	0.370201
846.170117	0.370668
846.357584	0.371203
846.545033	0.371921
846.732464	0.372483
846.919877	0.373485
847.107272	0.374125
847.294648	0.374673
847.482006	0.375343
847.669346	0.376241
847.856667	0.376683
848.043971	0.377065
848.231256	0.377520
848.418523	0.377951
848.605771	0.378339
848.793002	0.378645
848.980214	0.379051
849.167408	0.379014
849.354584	0.379077
849.541742	0.379649
849.728881	0.380178
849.916002	0.380838
850.103105	0.381385
850.290190	0.382199
850.477256	0.382743
850.664304	0.383465
850.851334	0.384207
851.038346	0.384683
851.225340	0.385208
851.412315	0.385556
851.599272	0.385934
851.786211	0.386163
851.973132	0.386547
852.160034	0.387396
852.346918	0.387597
852.533784	0.388240
852.720632	0.388427
852.907462	0.388419
853.094273	0.388848
853.281066	0.388933
853.467841	0.389329
853.654598	0.389206
853.841336	0.389254
854.028056	0.389334
854.214758	0.389781
854.401442	0.390379
854.588107	0.390940
854.774755	0.390909
854.961384	0.391647
855.147995	0.391675
855.334587	0.392358
855.521162	0.392766
855.707718	0.393530
855.894256	0.393729
856.080775	0.393955
856.267277	0.394592
856.453760	0.395295
856.640225	0.395753
856.826672	0.396900
857.013101	0.397106
857.199511	0.397321
857.385903	0.397285
857.572277	0.397653
857.758633	0.398149
857.944970	0.398601
858.131290	0.399113
858.317591	0.399362
858.503873	0.399007
858.690138	0.399600
858.876384	0.400390
859.062612	0.400964
859.248822	0.401463
859.435014	0.401906
859.621188	0.402460
859.807343	0.402635
859.993480	0.403059
860.179599	0.404072
860.365699	0.404347
860.551781	0.404892
860.737846	0.405637
860.923891	0.405641
861.109919	0.406411
861.295929	0.406627
861.481920	0.407553
861.667893	0.408138
861.853848	0.408344
862.039784	0.409098
862.225702	0.409300
862.411603	0.409678
862.597484	0.410707
862.783348	0.411086
862.969193	0.411682
863.155021	0.412230
863.340830	0.412733
863.526620	0.413561
863.712393	0.414103
863.898147	0.414632
864.083883	0.415462
864.269601	0.415610
864.455301	0.416103
864.640982	0.416243
864.826645	0.416157
865.012290	0.416441
865.197917	0.416460
865.383526	0.416691
865.569116	0.417010
865.754688	0.417030
865.940242	0.416988
866.125777	0.417436
866.311295	0.417733
866.496794	0.418425
866.682275	0.418552
866.867737	0.419101
867.053182	0.419073
867.238608	0.419610
867.424016	0.419662
867.609406	0.420019
867.794778	0.420377
867.980131	0.420766
868.165466	0.420549
868.350783	0.421443
868.536082	0.421538
868.721362	0.422145
868.906625	0.422266
869.091869	0.422486
869.277094	0.423499
869.462302	0.423856
869.647491	0.423810
869.832662	0.424440
870.017815	0.424334
870.202950	0.424804
870.388066	0.425157
870.573165	0.425214
870.758245	0.425509
870.943306	0.425235
871.128350	0.425030
871.313375	0.425317
871.498382	0.425854
871.683371	0.426385
871.868342	0.426575
872.053294	0.426898
872.238229	0.427471
872.423144	0.428130
872.608042	0.428975
872.792922	0.429238
872.977783	0.429909
873.162626	0.430140
873.347451	0.429865
873.532258	0.429678
873.717046	0.429514
873.901816	0.429529
874.086568	0.429417
874.271302	0.429037
874.456017	0.429761
874.640715	0.429782
874.825394	0.429733
875.010055	0.430458
875.194697	0.431353
875.379322	0.431788
875.563928	0.431940
875.748516	0.432075
875.933085	0.432462
876.117637	0.432334
876.302170	0.432656
876.486685	0.433123
876.671182	0.433265
876.855661	0.433451
877.040121	0.434036
877.224563	0.434787
877.408987	0.435868
877.593393	0.436119
877.777780	0.436506
877.962150	0.436611
878.146501	0.436811
878.330833	0.436735
878.515148	0.436806
878.699444	0.436909
878.883722	0.436746
879.067982	0.436544
879.252224	0.437002
879.436447	0.437100
879.620653	0.436786
879.804840	0.436576
879.989008	0.436982
880.173159	0.437366
880.357291	0.437433
880.541405	0.437574
880.725501	0.437636
880.909579	0.436954
881.093638	0.436941
881.277680	0.437658
881.461703	0.437646
881.645707	0.437266
881.829694	0.436890
882.013662	0.436519
882.197612	0.436506
882.381544	0.436364
882.565458	0.437063
882.749353	0.437391
882.933230	0.437939
883.117089	0.438173
883.300930	0.438380
883.484753	0.438734
883.668557	0.438871
883.852343	0.439055
884.036111	0.438995
884.219861	0.438410
884.403592	0.438233
884.587305	0.437811
884.771000	0.437888
884.954677	0.438499
885.138335	0.438517
885.321976	0.438628
885.505598	0.438624
885.689201	0.439047
885.872787	0.439123
886.056354	0.438629
886.239904	0.438528
886.423434	0.438615
886.606947	0.438394
886.790442	0.438482
886.973918	0.438322
887.157376	0.438379
887.340816	0.438235
887.524237	0.438529
887.707641	0.439283
887.891026	0.439426
888.074393	0.439344
888.257741	0.438956
888.441072	0.438939
888.624384	0.438653
888.807678	0.438495
888.990954	0.438562
889.174211	0.439017
889.357451	0.438479
889.540672	0.438295
889.723875	0.438526
889.907059	0.438667
890.090226	0.438894
890.273374	0.439246
890.456504	0.439169
890.639616	0.439191
890.822709	0.439017
891.005785	0.439184
891.188842	0.439205
891.371881	0.438914
891.554901	0.438538
891.737904	0.437471
891.920888	0.437308
892.103854	0.437586
892.286802	0.437331
892.469731	0.437269
892.652643	0.437299
892.835536	0.437277
893.018410	0.437434
893.201267	0.437741
893.384106	0.438444
893.566926	0.438857
893.749728	0.438482
893.932511	0.438443
894.115277	0.437845
894.298024	0.437611
894.480753	0.437569
894.663464	0.437340
894.846157	0.436953
895.028831	0.436453
895.211487	0.435892
895.394125	0.435638
895.576745	0.435621
895.759346	0.436006
895.941930	0.435726
896.124495	0.435293
896.307041	0.434796
896.489570	0.434782
896.672080	0.435080
896.854573	0.435184
897.037046	0.434796
897.219502	0.433863
897.401940	0.433423
897.584359	0.433187
897.766760	0.433203
897.949143	0.433010
898.131507	0.432864
898.313854	0.432032
898.496182	0.431415
898.678492	0.431280
898.860783	0.431589
899.043057	0.431527
899.225312	0.431592
899.407549	0.431012
899.589768	0.430881
899.771968	0.430525
899.954151	0.430855
900.136315	0.430539
900.318461	0.430167
900.500588	0.429783
900.682698	0.428787
900.864789	0.427913
901.046862	0.427623
901.228917	0.427384
901.410953	0.427207
901.592971	0.426555
901.774972	0.426003
901.956953	0.426308
902.138917	0.425852
902.320862	0.425994
902.502790	0.425577
902.684699	0.425880
902.866589	0.425787
903.048462	0.425518
903.230316	0.425035
903.412152	0.425211
903.593970	0.424038
903.775770	0.423590
903.957551	0.422638
904.139314	0.422728
904.321059	0.421821
904.502786	0.421092
904.684494	0.420728
904.866185	0.419900
905.047857	0.419242
905.229510	0.419022
905.411146	0.419046
905.592763	0.419058
905.774363	0.418278
905.955943	0.417478
906.137506	0.416589
906.319051	0.415550
906.500577	0.415432
906.682085	0.414746
906.863575	0.414496
907.045046	0.413579
907.226500	0.413307
907.407935	0.413344
907.589352	0.413276
907.770750	0.412903
907.952131	0.413520
908.133493	0.413185
908.314837	0.412864
908.496163	0.412338
908.677470	0.412166
908.858760	0.410956
909.040031	0.410838
909.221284	0.410584
909.402518	0.410361
909.583735	0.409413
909.764933	0.408809
909.946113	0.407998
910.127275	0.407726
910.308418	0.407172
910.489544	0.407160
910.670651	0.406508
910.851740	0.406265
911.032810	0.405668
911.213863	0.405444
911.394897	0.404853
911.575913	0.404562
911.756911	0.404271
911.937890	0.403664
912.118851	0.403362
912.299794	0.402491
912.480719	0.401448
912.661626	0.401163
912.842514	0.400201
913.023384	0.399892
913.204236	0.399653
913.385070	0.398615
913.565886	0.397937
913.746683	0.397394
913.927462	0.396176
914.108223	0.395622
914.288965	0.394761
914.469690	0.393775
914.650396	0.393843
914.831084	0.393188
915.011754	0.392425
915.192405	0.391750
915.373038	0.391102
915.553653	0.390257
915.734250	0.388820
915.914829	0.388416
916.095389	0.387749
916.275931	0.386185
916.456455	0.385835
916.636961	0.385045
916.817448	0.384009
916.997917	0.382946
917.178368	0.382389
917.358801	0.382494
917.539216	0.381338
917.719612	0.381022
917.899990	0.380378
918.080350	0.378742
918.260692	0.377965
918.441015	0.377775
918.621320	0.377647
918.801607	0.377574
918.981876	0.376108
919.162127	0.375888
919.342359	0.375088
919.522573	0.374160
919.702769	0.373389
919.882947	0.372966
920.063106	0.372446
920.243247	0.370692
920.423370	0.369731
920.603475	0.369708
920.783562	0.368209
920.963630	0.367106
921.143680	0.366786
921.323712	0.366632
921.503725	0.365625
921.683721	0.364746
921.863698	0.364160
922.043657	0.363528
922.223598	0.362476
922.403520	0.362559
922.583424	0.361915
922.763311	0.360370
922.943178	0.359153
923.123028	0.357999
923.302859	0.356454
923.482673	0.355418
923.662467	0.354309
923.842244	0.353522
924.022003	0.351472
924.201743	0.350046
924.381465	0.349156
924.561169	0.348417
924.740854	0.347690
924.920522	0.346392
925.100171	0.345292
925.279802	0.344518
925.459414	0.342804
925.639009	0.342218
925.818585	0.342009
925.998143	0.341844
926.177683	0.340652
926.357205	0.339816
926.536708	0.338962
926.716193	0.338590
926.895660	0.337563
927.075109	0.337405
927.254539	0.335956
927.433951	0.335333
927.613345	0.334228
927.792721	0.333474
927.972079	0.331969
928.151418	0.330857
928.330739	0.330187
928.510042	0.329993
928.689327	0.328671
928.868593	0.328713
929.047841	0.326845
929.227071	0.325048
929.406283	0.323587
929.585476	0.322740
929.764652	0.322093
929.943809	0.321008
930.122948	0.318676
930.302068	0.318498
930.481171	0.317505
930.660255	0.315957
930.839321	0.315933
931.018369	0.315682
931.197398	0.315010
931.376409	0.315310
931.555402	0.313840
931.734377	0.312110
931.913334	0.310489
932.092272	0.309049
932.271192	0.308624
932.450094	0.307586
932.628978	0.306702
932.807844	0.305531
932.986691	0.304037
933.165520	0.303606
933.344331	0.304245
933.523123	0.303327
933.701898	0.303074
933.880654	0.302256
934.059392	0.300228
934.238111	0.298416
934.416813	0.296942
934.595496	0.295017
934.774161	0.294248
934.952808	0.292507
935.131437	0.292002
935.310047	0.289749
935.488639	0.288172
935.667213	0.287553
935.845769	0.286897
936.024306	0.286819
936.202825	0.286029
936.381326	0.284223
936.559809	0.282970
936.738274	0.281235
936.916720	0.280591
937.095148	0.279846
937.273558	0.278672
937.451950	0.276425
937.630323	0.274335
937.808678	0.272340
937.987015	0.271562
938.165334	0.269780
938.343635	0.267921
938.521917	0.266608
938.700181	0.265980
938.878427	0.264656
939.056655	0.263242
939.234864	0.263100
939.413055	0.262331
939.591228	0.260839
939.769383	0.260615
939.947519	0.259452
940.125638	0.259409
940.303738	0.257499
940.481820	0.256246
940.659883	0.256169
940.837929	0.253640
941.015956	0.252013
941.193965	0.250906
941.371955	0.249853
941.549928	0.248401
941.727882	0.245988
941.905818	0.244364
942.083736	0.243956
942.261636	0.243474
942.439517	0.242326
942.617380	0.240707
942.795225	0.239133
942.973052	0.238625
943.150860	0.238299
943.328651	0.236564
943.506423	0.236154
943.684176	0.234391
943.861912	0.232252
944.039629	0.231602
944.217328	0.231220
944.395009	0.229935
944.572672	0.227258
944.750317	0.226636
944.927943	0.226613
945.105551	0.224440
945.283141	0.224751
945.460712	0.223149
945.638265	0.222462
945.815801	0.223289
945.993317	0.222501
946.170816	0.221058
946.348297	0.219068
946.525759	0.218497
946.703203	0.218222
946.880629	0.216325
947.058036	0.215436
947.235425	0.214646
947.412797	0.213187
947.590149	0.210095
947.767484	0.209365
947.944800	0.207376
948.122099	0.204681
948.299379	0.204844
948.476640	0.202605
948.653884	0.201320
948.831109	0.198308
949.008316	0.195649
949.185505	0.196039
949.362676	0.196017
949.539828	0.195809
949.716962	0.196796
949.894078	0.192894
950.071176	0.191947
950.248256	0.192275
950.425317	0.192473
950.602360	0.193082
950.779385	0.192146
950.956391	0.190855
951.133380	0.189696
951.310350	0.186915
951.487302	0.187199
951.664235	0.185628
951.841151	0.184009
952.018048	0.182625
952.194927	0.179222
952.371788	0.178665
952.548631	0.177496
952.725455	0.177836
952.902261	0.177515
953.079049	0.177405
953.255819	0.176801
953.432570	0.176685
953.609303	0.177241
953.786018	0.177815
953.962715	0.177371
954.139394	0.174832
954.316054	0.173040
954.492696	0.172425
954.669320	0.171803
954.845926	0.171292
955.022513	0.167437
955.199083	0.165191
955.375634	0.162640
955.552166	0.162553
955.728681	0.162870
955.905177	0.161920
956.081655	0.161757
956.258115	0.160890
956.434557	0.158369
956.610980	0.161092
956.787385	0.159766
956.963772	0.161081
957.140141	0.157936
957.316492	0.157094
957.492824	0.156401
957.669138	0.157146
957.845434	0.155072
958.021712	0.157484
958.197971	0.154240
958.374212	0.154254
958.550435	0.152757
958.726640	0.154668
958.902826	0.155632
959.078995	0.155673
959.255145	0.151599
959.431277	0.151631
959.607390	0.150912
959.783486	0.152695
959.959563	0.152080
960.135622	0.152787
960.311662	0.148726
960.487685	0.147066
960.663689	0.148244
960.839675	0.150256
961.015643	0.149659
961.191593	0.149192
961.367524	0.149580
961.543437	0.150201
961.719332	0.150686
961.895209	0.155618
962.071067	0.155333
962.246907	0.153300
962.422730	0.153104
962.598533	0.155498
962.774319	0.154216
962.950086	0.152154
963.125835	0.149683
963.301566	0.149997
963.477279	0.144323
963.652973	0.143873
963.828650	0.143804
964.004308	0.141605
964.179947	0.139503
964.355569	0.139269
964.531172	0.141177
964.706757	0.144264
964.882324	0.141637
965.057873	0.143486
965.233403	0.143290
965.408916	0.141245
965.584410	0.141701
965.759885	0.141323
965.935343	0.139042
966.110782	0.137909
966.286203	0.138086
966.461606	0.138965
966.636991	0.142168
966.812357	0.142190
966.987705	0.140730
967.163035	0.141232
967.338347	0.138947
967.513641	0.142001
967.688916	0.139388
967.864173	0.137092
968.039412	0.135907
968.214632	0.134456
968.389835	0.133344
968.565019	0.136314
968.740185	0.136357
968.915333	0.137136
969.090462	0.137090
969.265573	0.139464
969.440667	0.139755
969.615741	0.141316
969.790798	0.142090
969.965836	0.142869
970.140856	0.142208
970.315858	0.142388
970.490842	0.144360
970.665808	0.142477
970.840755	0.141059
971.015684	0.140120
971.190595	0.139901
971.365487	0.137159
971.540362	0.137235
971.715218	0.138767
971.890056	0.138365
972.064875	0.139671
972.239677	0.140124
972.414460	0.140496
972.589225	0.142444
972.763972	0.141282
972.938700	0.143514
973.113411	0.144392
973.288103	0.141226
973.462777	0.140446
973.637432	0.138414
973.812070	0.140605
973.986689	0.140593
974.161290	0.140185
974.335873	0.142769
974.510437	0.140228
974.684984	0.140296
974.859512	0.141014
975.034022	0.141020
975.208513	0.142045
975.382987	0.137955
975.557442	0.137693
975.731879	0.139575
975.906298	0.140245
976.080698	0.142058
976.255080	0.141389
976.429445	0.143289
976.603790	0.144789
976.778118	0.142675
976.952427	0.144780
977.126719	0.143828
977.300992	0.141392
977.475246	0.140049
977.649483	0.138256
977.823701	0.139412
977.997901	0.139751
978.172083	0.139037
978.346247	0.139831
978.520392	0.141132
978.694519	0.142351
978.868628	0.142502
979.042719	0.141465
979.216791	0.143990
979.390845	0.141809
979.564882	0.139458
979.738899	0.140995
979.912899	0.140703
980.086880	0.140813
980.260843	0.141577
980.434788	0.142876
980.608715	0.144158
980.782623	0.142045
980.956514	0.142871
981.130386	0.144748
981.304240	0.142665
981.478075	0.142750
981.651892	0.145332
981.825692	0.144704
981.999472	0.145603
982.173235	0.143277
982.346980	0.143257
982.520706	0.145027
982.694414	0.146830
982.868104	0.149108
983.041775	0.151129
983.215428	0.148484
983.389064	0.147134
983.562680	0.144469
983.736279	0.144378
983.909860	0.146129
984.083422	0.146895
984.256966	0.143910
984.430491	0.142584
984.603999	0.142165
984.777488	0.142057
984.950959	0.141669
985.124412	0.140624
985.297847	0.141045
985.471263	0.140995
985.644661	0.139635
985.818041	0.141694
985.991403	0.143152
986.164747	0.143403
986.338072	0.143921
986.511379	0.146325
986.684668	0.146516
986.857938	0.145739
987.031191	0.144285
987.204425	0.143122
987.377641	0.143032
987.550839	0.141030
987.724018	0.138268
987.897179	0.138079
988.070322	0.138032
988.243447	0.138806
988.416554	0.138367
988.589642	0.138124
988.762712	0.137875
988.935764	0.136148
989.108798	0.134484
989.281813	0.135458
989.454811	0.132979
989.627790	0.133497
989.800751	0.133696
989.973693	0.133170
990.146617	0.133173
990.319524	0.131797
990.492412	0.131246
990.665281	0.132516
990.838133	0.132668
991.010966	0.134260
991.183781	0.131461
991.356578	0.132187
991.529356	0.132151
991.702117	0.133314
991.874859	0.135604
992.047583	0.136757
992.220288	0.137422
992.392976	0.137213
992.565645	0.138196
992.738296	0.138404
992.910929	0.137155
993.083543	0.138695
993.256139	0.138315
993.428718	0.138928
993.601277	0.139904
993.773819	0.139776
993.946342	0.141067
994.118848	0.139786
994.291335	0.140950
994.463803	0.143031
994.636254	0.142051
994.808686	0.142039
994.981100	0.140627
995.153496	0.138377
995.325874	0.137100
995.498233	0.134517
995.670574	0.135824
995.842897	0.136191
996.015202	0.134247
996.187488	0.136815
996.359757	0.138294
996.532007	0.138800
996.704239	0.140154
996.876452	0.140682
997.048648	0.141926
997.220825	0.139908
997.392984	0.141838
997.565124	0.141053
997.737247	0.138841
997.909351	0.138930
998.081437	0.137387
998.253505	0.136230
998.425554	0.138055
998.597586	0.139500
998.769599	0.141264
998.941594	0.140760
999.113571	0.143170
999.285529	0.143456
999.457469	0.142314
999.629391	0.145450
999.801295	0.146709
999.973181	0.145753
1000.145048	0.146032
1000.316897	0.144669
1000.488728	0.143169
1000.660541	0.141391
1000.832335	0.142136
1001.004111	0.142120
1001.175869	0.140727
1001.347609	0.139497
1001.519331	0.139896
1001.691034	0.139503
1001.862719	0.140371
1002.034386	0.138116
1002.206035	0.138848
1002.377665	0.139792
1002.549277	0.140045
1002.720871	0.141746
1002.892447	0.142409
1003.064004	0.143292
1003.235544	0.143751
1003.407065	0.142988
1003.578568	0.144948
1003.750052	0.146076
1003.921519	0.145500
1004.092967	0.145914
1004.264397	0.144962
1004.435809	0.145305
1004.607202	0.144694
1004.778577	0.144218
1004.949934	0.143480
1005.121273	0.142069
1005.292594	0.141118
1005.463896	0.139637
1005.635180	0.138809
1005.806446	0.137624
1005.977694	0.138215
1006.148923	0.138791
1006.320135	0.137886
1006.491328	0.139749
1006.662503	0.140607
1006.833659	0.140243
1007.004798	0.139447
1007.175918	0.139164
1007.347020	0.138524
1007.518103	0.138598
1007.689169	0.136322
1007.860216	0.135186
1008.031245	0.133878
1008.202256	0.133938
1008.373248	0.135678
1008.544223	0.135509
1008.715179	0.134669
1008.886117	0.135840
1009.057036	0.135135
1009.227938	0.135361
1009.398821	0.134349
1009.569686	0.135305
1009.740533	0.137477
1009.911361	0.135883
1010.082172	0.136758
1010.252964	0.139043
1010.423738	0.137214
1010.594493	0.137625
1010.765231	0.136988
1010.935950	0.139621
1011.106651	0.138627
1011.277334	0.136076
1011.447998	0.134776
1011.618645	0.135357
1011.789273	0.133958
1011.959882	0.134914
1012.130474	0.133339
1012.301048	0.135327
1012.471603	0.134337
1012.642140	0.135743
1012.812658	0.136257
1012.983159	0.137198
1013.153641	0.137492
1013.324105	0.135670
1013.494551	0.133959
1013.664979	0.133106
1013.835388	0.132143
1014.005779	0.132080
1014.176152	0.130992
1014.346507	0.130073
1014.516843	0.130605
1014.687162	0.131457
1014.857462	0.132920
1015.027744	0.134465
1015.198007	0.135635
1015.368252	0.135695
1015.538480	0.135969
1015.708689	0.135225
1015.878879	0.135835
1016.049052	0.135530
1016.219206	0.136541
1016.389342	0.136516
1016.559460	0.137263
1016.729559	0.136045
1016.899641	0.136634
1017.069704	0.136799
1017.239749	0.136162
1017.409775	0.137280
1017.579784	0.134515
1017.749774	0.133481
1017.919746	0.135612
1018.089700	0.134924
1018.259635	0.135754
1018.429553	0.136545
1018.599452	0.137282
1018.769333	0.138202
1018.939195	0.138643
1019.109040	0.142853
1019.278866	0.142884
1019.448674	0.139902
1019.618464	0.139209
1019.788235	0.138179
1019.957989	0.135308
1020.127724	0.134556
1020.297441	0.134938
1020.467139	0.133253
1020.636820	0.132426
1020.806482	0.131487
1020.976126	0.132401
1021.145752	0.132546
1021.315359	0.133622
1021.484948	0.135193
1021.654519	0.134483
1021.824072	0.134914
1021.993607	0.134069
1022.163123	0.132124
1022.332621	0.132444
1022.502101	0.134215
1022.671563	0.136486
1022.841007	0.138185
1023.010432	0.138128
1023.179839	0.138444
1023.349228	0.138940
1023.518598	0.139387
1023.687951	0.140746
1023.857285	0.140248
1024.026601	0.136695
1024.195899	0.135387
1024.365178	0.132678
1024.534439	0.131173
1024.703682	0.131272
1024.872907	0.129501
1025.042114	0.130263
1025.211302	0.128629
1025.380472	0.127128
1025.549624	0.127403
1025.718758	0.126540
1025.887873	0.126664
1026.056970	0.128295
1026.226049	0.125460
1026.395110	0.126110
1026.564153	0.124700
1026.733177	0.124698
1026.902183	0.126165
1027.071171	0.126506
1027.240141	0.127708
1027.409092	0.127404
1027.578026	0.127903
1027.746940	0.128616
1027.915837	0.129158
1028.084716	0.129918
1028.253576	0.131507
1028.422418	0.131181
1028.591242	0.130492
1028.760048	0.131032
1028.928835	0.133761
1029.097604	0.131257
1029.266355	0.132954
1029.435088	0.130554
1029.603803	0.131429
1029.772499	0.131776
1029.941177	0.131042
1030.109837	0.132884
1030.278478	0.131257
1030.447102	0.129761
1030.615707	0.131197
1030.784294	0.130897
1030.952863	0.133141
1031.121413	0.132147
1031.289945	0.131044
1031.458460	0.132459
1031.626955	0.132164
1031.795433	0.130161
1031.963892	0.130898
1032.132334	0.129619
1032.300756	0.129428
1032.469161	0.127849
1032.637548	0.128387
1032.805916	0.128196
1032.974266	0.128527
1033.142598	0.127327
1033.310911	0.130185
1033.479207	0.129224
1033.647484	0.129103
1033.815743	0.129446
1033.983983	0.130604
1034.152206	0.131791
1034.320410	0.133284
1034.488596	0.132839
1034.656764	0.132788
1034.824914	0.132619
1034.993045	0.132519
1035.161158	0.133618
1035.329253	0.133618
1035.497330	0.132768
1035.665388	0.131764
1035.833428	0.130598
1036.001450	0.128167
1036.169454	0.128281
1036.337440	0.127028
1036.505407	0.127624
1036.673356	0.126426
1036.841287	0.127741
1037.009200	0.128157
1037.177094	0.127775
1037.344970	0.126793
1037.512828	0.127830
1037.680668	0.129408
1037.848489	0.130102
1038.016293	0.128722
1038.184078	0.128022
1038.351845	0.128490
1038.519593	0.128905
1038.687324	0.128938
1038.855036	0.130353
1039.022730	0.130967
1039.190406	0.130203
1039.358063	0.129016
1039.525702	0.128868
1039.693323	0.133182
1039.860926	0.131695
1040.028511	0.130896
1040.196077	0.131589
1040.363625	0.130972
1040.531155	0.131107
1040.698667	0.131672
1040.866161	0.133845
1041.033636	0.134818
1041.201093	0.130892
1041.368532	0.130354
1041.535952	0.131534
1041.703355	0.131855
1041.870739	0.130899
1042.038105	0.131484
1042.205452	0.132009
1042.372782	0.131710
1042.540093	0.130996
1042.707386	0.130665
1042.874661	0.131255
1043.041918	0.131306
1043.209156	0.130258
1043.376376	0.132221
1043.543578	0.132452
1043.710762	0.131334
1043.877927	0.130361
1044.045074	0.130445
1044.212203	0.132926
1044.379314	0.131288
1044.546407	0.131168
1044.713481	0.130155
1044.880537	0.129820
1045.047575	0.130063
1045.214595	0.129060
1045.381596	0.131034
1045.548579	0.133071
1045.715544	0.131854
1045.882491	0.132515
1046.049420	0.131819
1046.216330	0.135247
1046.383222	0.134109
1046.550096	0.133755
1046.716951	0.133420
1046.883789	0.131352
1047.050608	0.130251
1047.217409	0.130304
1047.384192	0.129742
1047.550956	0.129832
1047.717703	0.127200
1047.884431	0.128208
1048.051140	0.128192
1048.217832	0.129746
1048.384505	0.130669
1048.551161	0.130852
1048.717798	0.131812
1048.884416	0.133744
1049.051017	0.133269
1049.217599	0.134452
1049.384163	0.132992
1049.550709	0.134343
1049.717237	0.132212
1049.883746	0.132182
1050.050237	0.131414
1050.216710	0.130638
1050.383165	0.130141
1050.549601	0.129256
1050.716019	0.126757
1050.882420	0.127958
1051.048801	0.125111
1051.215165	0.126149
1051.381510	0.125028
1051.547837	0.125097
1051.714146	0.123981
1051.880437	0.125496
1052.046709	0.126961
1052.212964	0.128460
1052.379200	0.131025
1052.545417	0.130131
1052.711617	0.132595
1052.877798	0.130898
1053.043961	0.129717
1053.210106	0.130401
1053.376233	0.129885
1053.542341	0.130462
1053.708432	0.129369
1053.874504	0.126840
1054.040557	0.129356
1054.206593	0.126268
1054.372610	0.128279
1054.538609	0.130035
1054.704590	0.129123
1054.870553	0.129373
1055.036497	0.130496
1055.202424	0.132270
1055.368331	0.130137
1055.534221	0.129985
1055.700093	0.132223
1055.865946	0.132446
1056.031781	0.132964
1056.197598	0.135240
1056.363397	0.134786
1056.529177	0.133083
1056.694939	0.131870
1056.860683	0.134815
1057.026409	0.134418
1057.192116	0.134054
1057.357806	0.133698
1057.523477	0.134688
1057.689130	0.132300
1057.854764	0.129879
1058.020381	0.131436
1058.185979	0.131633
1058.351559	0.131254
1058.517120	0.130396
1058.682664	0.133027
1058.848189	0.132908
1059.013696	0.130752
1059.179185	0.133594
1059.344656	0.135428
1059.510108	0.133150
1059.675542	0.133759
1059.840958	0.133224
1060.006356	0.134862
1060.171735	0.131054
1060.337096	0.131361
1060.502439	0.131701
1060.667764	0.129935
1060.833071	0.129357
1060.998359	0.128255
1061.163629	0.127383
1061.328881	0.127823
1061.494115	0.127995
1061.659330	0.129770
1061.824527	0.131174
1061.989706	0.131048
1062.154867	0.132243
1062.320010	0.132352
1062.485134	0.135425
1062.650240	0.139574
1062.815328	0.138310
1062.980398	0.138177
1063.145449	0.136998
1063.310482	0.136050
1063.475497	0.136483
1063.640494	0.137229
1063.805473	0.137333
1063.970433	0.135732
1064.135375	0.132678
1064.300299	0.135067
1064.465204	0.135776
1064.630092	0.135483
1064.794961	0.135822
1064.959812	0.136559
1065.124645	0.135770
1065.289459	0.136856
1065.454256	0.137615
1065.619034	0.137591
1065.783793	0.139224
1065.948535	0.136591
1066.113258	0.137689
1066.277964	0.135299
1066.442651	0.134112
1066.607319	0.135268
1066.771970	0.132732
1066.936602	0.134297
1067.101216	0.135297
1067.265812	0.133281
1067.430389	0.134567
1067.594949	0.134468
1067.759490	0.138418
1067.924013	0.136777
1068.088518	0.132845
1068.253004	0.135715
1068.417472	0.135286
1068.581922	0.131162
1068.746354	0.130290
1068.910768	0.127933
1069.075163	0.126825
1069.239540	0.125885
1069.403899	0.127456
1069.568240	0.131860
1069.732562	0.130676
1069.896866	0.130204
1070.061152	0.132420
1070.225420	0.132892
1070.389670	0.133045
1070.553901	0.133435
1070.718114	0.133385
1070.882309	0.135739
1071.046486	0.133856
1071.210644	0.135163
1071.374784	0.134818
1071.538906	0.136800
1071.703010	0.138693
1071.867096	0.141997
1072.031163	0.144235
1072.195212	0.143043
1072.359243	0.142507
1072.523256	0.143983
1072.687250	0.144601
1072.851226	0.141914
1073.015184	0.141527
1073.179124	0.139951
1073.343045	0.138972
1073.506949	0.139146
1073.670834	0.142747
1073.834701	0.143125
1073.998549	0.144163
1074.162380	0.142049
1074.326192	0.143994
1074.489986	0.145698
1074.653761	0.143759
1074.817519	0.143864
1074.981258	0.141014
1075.144979	0.139466
1075.308682	0.138579
1075.472367	0.137317
1075.636033	0.137730
1075.799681	0.139261
1075.963311	0.135363
1076.126923	0.138516
1076.290516	0.137050
1076.454092	0.138414
1076.617649	0.138698
1076.781187	0.138666
1076.944708	0.140294
1077.108210	0.143387
1077.271695	0.142787
1077.435160	0.145760
1077.598608	0.144817
1077.762038	0.147148
1077.925449	0.147750
1078.088842	0.147292
1078.252217	0.144827
1078.415573	0.143552
1078.578912	0.142364
1078.742232	0.145151
1078.905534	0.145669
1079.068817	0.143933
1079.232083	0.144421
1079.395330	0.144756
1079.558559	0.144628
1079.721770	0.148642
1079.884962	0.149260
1080.048136	0.146753
1080.211293	0.144985
1080.374430	0.146109
1080.537550	0.147729
1080.700651	0.147435
1080.863735	0.149628
1081.026800	0.151032
1081.189846	0.150479
1081.352875	0.149014
1081.515885	0.150540
1081.678877	0.147770
1081.841851	0.145893
1082.004807	0.143786
1082.167744	0.142066
1082.330663	0.139666
1082.493564	0.138889
1082.656447	0.139921
1082.819312	0.138752
1082.982158	0.138650
1083.144986	0.139429
1083.307796	0.140066
1083.470587	0.143294
1083.633361	0.148346
1083.796116	0.148672
1083.958853	0.147617
1084.121571	0.146601
1084.284272	0.149643
1084.446954	0.149415
1084.609618	0.151041
1084.772264	0.151695
1084.934892	0.152430
1085.097501	0.146561
1085.260092	0.144627
1085.422665	0.147406
1085.585220	0.147445
1085.747756	0.145981
1085.910274	0.146650
1086.072774	0.145022
1086.235256	0.141289
1086.397720	0.141828
1086.560165	0.143486
1086.722592	0.144233
1086.885001	0.139888
1087.047392	0.141158
1087.209764	0.141315
1087.372119	0.143175
1087.534455	0.144882
1087.696772	0.148352
1087.859072	0.142617
1088.021353	0.144436
1088.183616	0.143717
1088.345861	0.144170
1088.508088	0.146119
1088.670296	0.146260
1088.832486	0.144709
1088.994658	0.144401
1089.156812	0.140233
1089.318948	0.140831
1089.481065	0.136769
1089.643164	0.138168
1089.805245	0.139627
1089.967308	0.136915
1090.129352	0.135405
1090.291378	0.133506
1090.453386	0.132612
1090.615376	0.138069
1090.777347	0.142221
1090.939301	0.143430
1091.101236	0.144782
1091.263153	0.145223
1091.425051	0.146101
1091.586932	0.143467
1091.748794	0.146782
1091.910638	0.149756
1092.072463	0.147925
1092.234271	0.148392
1092.396060	0.150303
1092.557831	0.151366
1092.719584	0.148841
1092.881319	0.147182
1093.043035	0.151676
1093.204733	0.150012
1093.366413	0.147681
1093.528075	0.149770
1093.689718	0.149562
1093.851343	0.143993
1094.012950	0.135676
1094.174539	0.139431
1094.336110	0.144104
1094.497662	0.143572
1094.659196	0.143755
1094.820712	0.143909
1094.982210	0.141970
1095.143689	0.142016
1095.305151	0.146287
1095.466594	0.153972
1095.628018	0.149253
1095.789425	0.145578
1095.950813	0.146574
1096.112183	0.144172
1096.273535	0.144865
1096.434869	0.142818
1096.596184	0.143633
1096.757482	0.146364
1096.918761	0.149133
1097.080021	0.147253
1097.241264	0.144097
1097.402488	0.145324
1097.563694	0.146106
1097.724882	0.148416
1097.886052	0.146427
1098.047203	0.146085
1098.208336	0.144067
1098.369451	0.142105
1098.530548	0.147282
1098.691627	0.153351
1098.852687	0.149691
1099.013729	0.155174
1099.174753	0.155196
1099.335758	0.159010
1099.496746	0.153793
1099.657715	0.153540
1099.818666	0.147406
1099.979599	0.148215
1100.140513	0.145999
1100.301409	0.146989
1100.462287	0.143235
1100.623147	0.141012
1100.783989	0.139315
1100.944812	0.136573
1101.105617	0.142633
1101.266404	0.144493
1101.427173	0.139653
1101.587923	0.140298
1101.748656	0.142254
1101.909370	0.137273
1102.070066	0.140043
1102.230743	0.140931
1102.391403	0.149222
1102.552044	0.150158
1102.712667	0.157769
1102.873271	0.163014
1103.033858	0.158795
1103.194426	0.158189
1103.354976	0.160647
1103.515508	0.155957
1103.676021	0.155882
1103.836517	0.154146
1103.996994	0.144632
1104.157453	0.142808
1104.317893	0.138822
1104.478316	0.138115
1104.638720	0.138511
1104.799106	0.143138
1104.959474	0.147615
1105.119823	0.148307
1105.280155	0.147206
1105.440468	0.152998
1105.600763	0.151752
1105.761039	0.154263
1105.921298	0.158500
1106.081538	0.158056
1106.241760	0.155717
1106.401964	0.152195
1106.562149	0.155376
1106.722316	0.155364
1106.882465	0.152918
1107.042596	0.155065
1107.202709	0.158280
1107.362803	0.157527
1107.522879	0.162358
1107.682937	0.165155
1107.842977	0.164208
1108.002999	0.163634
1108.163002	0.164479
1108.322987	0.165458
1108.482954	0.165491
1108.642902	0.160568
1108.802833	0.157785
1108.962745	0.155177
1109.122639	0.154494
1109.282515	0.160037
1109.442372	0.156919
1109.602211	0.160604
1109.762032	0.157398
1109.921835	0.153632
1110.081620	0.158962
1110.241386	0.161687
1110.401134	0.165495
1110.560864	0.172213
1110.720576	0.164235
1110.880269	0.166757
1111.039945	0.164816
1111.199602	0.172809
1111.359240	0.173078
1111.518861	0.167400
1111.678463	0.168755
1111.838047	0.159718
1111.997613	0.152811
1112.157161	0.156151
1112.316690	0.156627
1112.476202	0.154367
1112.635695	0.150255
1112.795169	0.146965
1112.954626	0.155459
1113.114064	0.154978
1113.273484	0.150787
1113.432886	0.148588
1113.592270	0.154872
1113.751635	0.152435
1113.910983	0.151377
1114.070312	0.153332
1114.229622	0.162623
1114.388915	0.159281
1114.548189	0.153728
1114.707445	0.158714
1114.866683	0.160454
1115.025903	0.154681
1115.185104	0.158090
1115.344287	0.154369
1115.503452	0.147296
1115.662599	0.150399
1115.821727	0.151524
1115.980838	0.158828
1116.139930	0.162053
1116.299004	0.167395
1116.458059	0.167575
1116.617097	0.165853
1116.776116	0.175974
1116.935117	0.173648
1117.094099	0.164799
1117.253064	0.163246
1117.412010	0.164975
1117.570938	0.169597
1117.729848	0.165012
1117.888740	0.165014
1118.047613	0.165968
1118.206468	0.163519
1118.365305	0.170227
1118.524124	0.172086
1118.682924	0.173836
1118.841707	0.167411
1119.000471	0.156862
1119.159216	0.149952
1119.317944	0.144414
1119.476653	0.147932
1119.635344	0.155247
1119.794017	0.158749
1119.952672	0.156750
1120.111308	0.146783
1120.269927	0.149055
1120.428527	0.155118
1120.587108	0.154744
1120.745672	0.166548
1120.904217	0.154224
1121.062744	0.148031
1121.221253	0.148804
1121.379744	0.148212
1121.538216	0.161308
1121.696671	0.162659
1121.855107	0.152223
1122.013524	0.163086
1122.171924	0.165366
1122.330305	0.170690
1122.488668	0.177267
1122.647013	0.173729
1122.805340	0.172505
1122.963648	0.158646
1123.121938	0.164774
1123.280210	0.178087
1123.438464	0.174069
1123.596700	0.161666
1123.754917	0.163446
1123.913116	0.150197
1124.071297	0.148836
1124.229459	0.149303
1124.387604	0.155714
1124.545730	0.150204
1124.703838	0.150999
1124.861928	0.151343
1125.019999	0.157380
1125.178052	0.165455
1125.336088	0.166379
1125.494104	0.168326
1125.652103	0.172940
1125.810083	0.172201
1125.968045	0.160186
1126.125989	0.156427
1126.283915	0.162532
1126.441823	0.164304
1126.599712	0.161269
1126.757583	0.163069
1126.915436	0.164015
1127.073270	0.161314
1127.231087	0.165911
1127.388885	0.179443
1127.546665	0.176348
1127.704426	0.163155
1127.862170	0.159858
1128.019895	0.153490
1128.177602	0.159019
1128.335291	0.159215
1128.492961	0.162787
1128.650614	0.161875
1128.808248	0.161270
1128.965864	0.169432
1129.123461	0.177007
1129.281041	0.184306
1129.438602	0.186633
1129.596145	0.187396
1129.753670	0.184942
1129.911176	0.181479
1130.068665	0.179175
1130.226135	0.170352
1130.383587	0.170009
1130.541020	0.169486
1130.698436	0.167206
1130.855833	0.168965
1131.013212	0.156622
1131.170573	0.165908
1131.327915	0.171525
1131.485239	0.174394
1131.642545	0.184988
1131.799833	0.177590
1131.957103	0.185036
1132.114354	0.189986
1132.271588	0.195210
1132.428803	0.207609
1132.585999	0.207047
1132.743178	0.188941
1132.900338	0.192800
1133.057480	0.191019
1133.214604	0.189227
1133.371710	0.189859
1133.528797	0.181773
1133.685866	0.171353
1133.842917	0.167210
1133.999950	0.165477
1134.156964	0.179764
1134.313960	0.170037
1134.470938	0.168806
1134.627898	0.170640
1134.784840	0.166366
1134.941763	0.167130
1135.098668	0.174618
1135.255555	0.174047
1135.412424	0.172410
1135.569274	0.179707
1135.726107	0.191273
1135.882921	0.181585
1136.039716	0.179954
1136.196494	0.178019
1136.353253	0.181175
1136.509995	0.166169
1136.666717	0.169724
1136.823422	0.164050
1136.980109	0.152149
1137.136777	0.146878
1137.293427	0.150948
1137.450059	0.160129
1137.606672	0.161624
1137.763267	0.158229
1137.919844	0.172910
1138.076403	0.184127
1138.232944	0.184100
1138.389466	0.187070
1138.545971	0.185397
1138.702457	0.193454
1138.858924	0.183092
1139.015374	0.182451
1139.171805	0.200548
1139.328218	0.191343
1139.484613	0.178175
1139.640990	0.188447
1139.797348	0.192715
1139.953688	0.187045
1140.110010	0.179296
1140.266314	0.179597
1140.422600	0.173573
1140.578867	0.152952
1140.735116	0.156771
1140.891347	0.166785
1141.047559	0.158880
1141.203754	0.164300
1141.359930	0.172017
1141.516088	0.163940
1141.672228	0.160653
1141.828349	0.170984
1141.984452	0.178206
1142.140537	0.186024
1142.296604	0.182709
1142.452653	0.186140
1142.608683	0.172029
1142.764695	0.171538
1142.920689	0.180243
1143.076665	0.184765
1143.232622	0.181392
1143.388562	0.166599
1143.544483	0.170160
1143.700385	0.159337
1143.856270	0.152165
1144.012136	0.153764
1144.167985	0.152939
1144.323814	0.161856
1144.479626	0.172530
1144.635420	0.178027
1144.791195	0.194386
1144.946952	0.182185
1145.102691	0.185883
1145.258411	0.203435
1145.414113	0.194132
1145.569798	0.202387
1145.725463	0.198468
1145.881111	0.190584
1146.036741	0.185653
1146.192352	0.185342
1146.347945	0.196284
1146.503519	0.196270
1146.659076	0.179248
1146.814614	0.196330
1146.970134	0.191219
1147.125636	0.187683
1147.281120	0.186967
1147.436585	0.169580
1147.592032	0.172106
1147.747461	0.171497
1147.902872	0.177022
1148.058265	0.169530
1148.213639	0.153362
1148.368995	0.142362
1148.524333	0.149992
1148.679653	0.164998
1148.834954	0.168073
1148.990237	0.151601
1149.145502	0.147618
1149.300749	0.139444
1149.455977	0.153571
1149.611188	0.171430
1149.766380	0.197591
1149.921553	0.192225
1150.076709	0.170724
1150.231846	0.169018
1150.386966	0.184989
1150.542066	0.170481
1150.697149	0.182609
1150.852214	0.183659
1151.007260	0.175508
1151.162288	0.179515
1151.317298	0.190497
1151.472289	0.207833
1151.627263	0.222626
1151.782218	0.216835
1151.937155	0.218740
1152.092073	0.206472
1152.246974	0.208176
1152.401856	0.214036
1152.556720	0.197862
1152.711566	0.179728
1152.866393	0.168318
1153.021203	0.177818
1153.175994	0.181114
1153.330767	0.185767
1153.485521	0.191239
1153.640258	0.211101
1153.794976	0.227487
1153.949676	0.210649
1154.104358	0.235772
1154.259021	0.244163
1154.413667	0.236649
1154.568294	0.222886
1154.722903	0.221157
1154.877493	0.216053
1155.032066	0.177618
1155.186620	0.162735
1155.341156	0.175709
1155.495674	0.157842
1155.650173	0.163886
1155.804654	0.165839
1155.959118	0.172028
1156.113562	0.172216
1156.267989	0.184180
1156.422397	0.188277
1156.576788	0.204753
1156.731160	0.201182
1156.885513	0.230270
1157.039849	0.222185
1157.194166	0.217195
1157.348465	0.221194
1157.502746	0.229537
1157.657009	0.224905
1157.811253	0.222270
1157.965479	0.206992
1158.119687	0.212507
1158.273877	0.192587
1158.428048	0.185801
1158.582201	0.195110
1158.736337	0.200105
1158.890453	0.203861
1159.044552	0.189713
1159.198632	0.199273
1159.352694	0.203161
1159.506738	0.198364
1159.660764	0.209532
1159.814771	0.214305
1159.968761	0.198918
1160.122732	0.186527
1160.276685	0.195228
1160.430619	0.214073
1160.584535	0.242778
1160.738434	0.213691
1160.892313	0.231214
1161.046175	0.201146
1161.200019	0.210394
1161.353844	0.224049
1161.507651	0.223808
1161.661440	0.208233
1161.815210	0.219713
1161.968962	0.201331
1162.122697	0.231394
1162.276412	0.199625
1162.430110	0.214282
1162.583789	0.192147
1162.737451	0.179453
1162.891094	0.187198
1163.044718	0.196411
1163.198325	0.168265
1163.351913	0.172489
1163.505483	0.171927
1163.659035	0.198650
1163.812569	0.194068
1163.966084	0.222072
1164.119581	0.206920
1164.273060	0.201259
1164.426521	0.188783
1164.579964	0.187373
1164.733388	0.180514
1164.886794	0.192560
1165.040182	0.171211
1165.193551	0.177413
1165.346903	0.155330
1165.500236	0.165320
1165.653551	0.149840
1165.806848	0.146850
1165.960126	0.184774
1166.113386	0.175209
1166.266628	0.138658
1166.419852	0.132532
1166.573058	0.110817
1166.726245	0.124881
1166.879414	0.128831
1167.032565	0.174447
1167.185698	0.175022
1167.338812	0.142519
1167.491909	0.155652
1167.644987	0.172534
1167.798046	0.198799
1167.951088	0.204374
1168.104111	0.212701
1168.257117	0.220296
1168.410103	0.205010
1168.563072	0.214029
1168.716023	0.200085
1168.868955	0.206820
1169.021869	0.212062
1169.174765	0.187015
1169.327642	0.230811
1169.480501	0.217026
1169.633343	0.189902
1169.786165	0.184102
1169.938970	0.176033
1170.091757	0.183969
1170.244525	0.177207
1170.397275	0.163354
1170.550007	0.174252
1170.702720	0.152945
1170.855415	0.155356
1171.008092	0.206235
1171.160751	0.227722
1171.313392	0.273207
1171.466014	0.250686
1171.618619	0.610621
1171.771205	0.610621
1171.923772	0.610621
