sample name	sample
index	1349
start time	 05-03-2021  01:00:13 PM
880	0.456791
Peak Time (s)	92.538
Peak Height 	0.4568
calc peak height	90,93
Baseline Time (s)	9.54
Baseline Value 	-0.002821
subtract baseline	10,4
Abs	0.290271
Peak Time (s)	91.037
Peak Height 	0.2903
calc peak height	90,93
Baseline Time (s)	11.534
Baseline Value 	0.001869
subtract baseline	10,3
PK_550	0.173567
Peak Time (s)	91.037
Peak Height 	0.1736
calc peak height	90,93
Baseline Time (s)	11.036
Baseline Value 	3.8855E-4
subtract baseline	10,2
PK_880	0.283896
Peak Time (s)	91.037
Peak Height 	0.2839
calc peak height	90,93
Baseline Time (s)	10.037
Baseline Value 	2.5632E-5
subtract baseline	10,1


Time (s)	A880-A510	A880-A775	A880-A975	A880	I510	I775	I975	I880	
0.039500	-0.004011	-0.000623	-0.006582	0.007792	6046.035148	41977.497133	3871.760598	21794.575215
0.537000	-0.003288	-0.001051	-0.005260	0.003185	6084.282477	42354.639394	3884.772572	21995.638527
1.035000	-0.002982	-0.000534	-0.001355	0.003576	6083.674506	42366.153332	3892.570668	21978.516094
1.535500	0.001936	0.000888	0.001716	0.001670	6133.314042	42669.117935	3903.721318	22062.238090
2.035500	-0.002897	-0.000721	-0.001971	0.006882	6060.511725	42050.542202	3883.873015	21834.137530
2.535500	-0.000420	-0.001261	-0.003472	-0.000050	6128.654281	42629.902376	3895.936907	22138.119331
3.035500	-0.000564	-0.000584	-0.002162	-0.001641	6139.266031	42837.510056	3902.443832	22208.566176
3.536500	0.002680	-0.000537	-0.008117	0.000029	6150.851374	42688.839359	3885.433822	22134.623060
4.036500	-0.001218	-0.000244	-0.005120	0.001662	6110.329922	42566.510643	3888.456560	22062.594485
4.537000	-0.000183	0.000044	-0.006433	0.002720	6110.162575	42496.287231	3883.209752	22016.041224
5.039500	-0.001398	-0.000711	-0.002223	-0.000090	6121.797327	42683.798503	3898.823725	22139.881997
5.537500	-0.000946	-0.000097	0.003200	0.000315	6122.140123	42702.857008	3910.138319	22121.975478
6.035000	0.000193	-0.000099	-0.006437	0.000391	6129.914098	42695.793663	3888.353329	22118.634602
6.535500	0.001277	-0.001123	-0.005869	-0.000574	6144.954130	42690.337301	3891.757886	22161.273324
7.035500	0.000925	-0.000021	-0.002909	-0.000387	6140.994437	42774.144360	3897.952261	22153.017846
7.535000	0.002711	-0.000034	-0.002858	0.000069	6150.782795	42731.173794	3897.043770	22132.856155
8.036500	0.000502	-0.000459	-0.003264	-0.000624	6139.627849	42755.758242	3897.688701	22163.520919
8.535500	0.001589	-0.000571	-0.004664	-0.000585	6147.337396	42741.937672	3894.469863	22161.785657
9.036500	-0.000437	0.000265	0.001954	0.000053	6127.772192	42760.018350	3907.909514	22133.545543
9.540000	0.000162	0.000170	0.004017	0.000000	6132.553695	42756.139159	3912.709126	22135.900164
10.037000	0.000000	0.000007	-0.005148	-0.000316	6133.678676	42770.130348	3892.789524	22149.852460
10.535000	-0.001743	-0.000013	-0.001373	0.002698	6098.990534	42493.215872	3894.487972	22017.042067
11.035500	-0.000725	0.000000	0.000289	-0.000062	6126.510448	42746.298305	3904.410058	22138.649925
11.534500	0.000338	-0.000145	0.000000	0.000327	6131.441956	42697.346336	3902.880133	22121.439171
12.035500	0.001399	0.000423	-0.000286	0.000199	6140.175295	42761.169981	3902.524531	22127.112526
12.536000	-0.002371	-0.000047	0.004353	-0.000025	6114.219207	42738.603352	3913.531979	22137.002618
13.036500	0.001419	-0.000166	-0.001241	-0.000930	6148.623349	42810.562030	3902.915972	22177.036985
13.536500	0.000335	0.000623	0.000988	-0.000344	6136.344361	42829.244451	3906.623008	22151.094004
14.036500	-0.000040	0.000186	-0.004802	0.002039	6116.168074	42571.249428	3888.323653	22045.985164
14.537500	-0.002169	-0.000314	-0.004092	0.002848	6094.813988	42452.088806	3888.103282	22010.427457
15.040500	-0.000111	-0.000397	0.000860	-0.000544	6134.537741	42754.062399	3906.784319	22159.944178
15.535000	0.000541	-0.000117	0.002852	-0.000638	6140.020350	42788.311058	3911.511444	22164.120664
16.035000	-0.000056	-0.000325	-0.001080	-0.001322	6140.658312	42831.951447	3904.162197	22194.417996
16.535500	-0.001196	0.000073	-0.001933	0.002533	6104.157867	42516.027461	3893.608469	22024.296312
17.035500	0.001736	-0.000388	-0.001049	-0.003766	6171.937617	43051.081287	3909.757619	22303.070423
17.540500	0.000138	-0.000235	0.002118	0.000251	6130.542277	42696.170021	3907.834152	22124.831875
18.036500	-0.000475	-0.000461	-0.004485	0.000026	6127.696498	42696.111665	3893.507648	22134.771688
18.536500	-0.000720	-0.000314	-0.001837	0.001239	6117.044184	42598.717569	3896.712043	22081.234997
19.037000	0.000599	-0.000439	-0.000034	-0.000097	6136.471884	42709.317400	3903.758810	22140.181477
19.537500	-0.001320	0.000378	0.002448	0.000514	6117.955375	42728.125085	3907.982914	22113.183364
20.037500	-0.000061	-0.000359	-0.002346	0.000442	6127.681429	42667.305727	3897.354805	22116.374557
20.535000	0.000763	0.000636	-0.003854	0.001935	6122.786978	42621.820207	3890.658614	22050.548847
21.035500	0.000854	0.000590	0.004853	0.001040	6130.000908	42699.448200	3912.246833	22090.000463
21.535500	0.000019	0.000010	0.003460	0.000694	6126.423242	42678.031115	3909.868510	22105.255403
22.036000	0.000936	0.000788	0.004841	0.001197	6129.446496	42703.161276	3911.860660	22083.048590
22.536000	0.000659	0.000085	-0.001404	0.001805	6122.980264	42583.470469	3896.415278	22056.299212
23.036500	-0.001720	-0.000362	-0.002968	0.000133	6117.814660	42695.323940	3896.654945	22130.009594
23.539500	-0.000537	0.000313	-0.002186	0.001169	6118.890974	42662.296932	3896.087097	22084.320425
24.034500	0.000811	0.000525	0.002668	0.001676	6125.028244	42635.323142	3905.854259	22061.948532
24.534500	-0.000976	-0.000653	-0.000175	0.000796	6118.400150	42608.104484	3901.431645	22100.731457
25.035000	0.000924	0.000626	-0.006824	0.001643	6126.100605	42647.586847	3884.725028	22063.425131
25.535000	-0.001536	0.000231	0.003176	0.000850	6113.932588	42683.997338	3908.872332	22098.373316
26.035500	-0.000364	0.000343	0.002558	0.000992	6121.438868	42681.159238	3907.150749	22092.089714
26.535500	-0.002043	-0.000284	-0.001845	0.000408	6113.455056	42677.272174	3898.553469	22117.862644
27.036000	0.001534	0.000282	0.001603	-0.001141	6151.025440	42871.075086	3909.817953	22186.379970
27.536500	0.003058	0.000285	0.003226	-0.001461	6164.653872	42900.815656	3914.235970	22200.593725
28.039000	0.001033	0.000269	0.001640	-0.000184	6140.294715	42782.045583	3907.735879	22144.016759
28.537000	0.002434	0.000661	0.000102	-0.000570	6153.453223	42853.482132	3905.131332	22161.094192
29.037500	0.000534	0.000555	0.002800	-0.000504	6138.983069	42837.670605	3911.090550	22158.181427
29.534500	0.001705	0.000286	0.001370	-0.000701	6149.043618	42831.043512	3908.294190	22166.901977
30.035000	0.001116	0.000967	-0.001955	0.000575	6135.329017	42776.508874	3897.933928	22110.496590
30.535500	0.000070	-0.000080	-0.001463	0.001132	6123.589668	42629.716706	3897.788093	22085.919996
31.036000	0.001425	0.001355	0.005429	0.002785	6121.415202	42609.838523	3909.592401	22013.189882
31.536000	0.000754	0.000897	0.011427	-0.000140	6137.928149	42835.718612	3930.031239	22142.102907
32.037000	0.002403	-0.000122	-0.001495	-0.000735	6154.443467	42796.726499	3901.904990	22168.401527
32.539000	0.001638	-0.000074	0.000981	-0.001126	6151.684549	42837.055897	3908.375852	22185.719246
33.036500	0.001751	0.000922	-0.004068	-0.000278	6146.267801	42850.681714	3895.115483	22148.201876
33.537000	0.001912	0.001016	0.001849	-0.002125	6161.089596	43029.244356	3912.612505	22230.069463
34.036500	-0.000312	0.000080	-0.002530	0.001459	6118.419864	42614.599501	3894.671678	22071.545606
34.534500	0.001316	0.000853	0.000646	0.002441	6123.132788	42595.529003	3899.583317	22028.336200
35.035500	-0.001366	-0.000171	-0.000426	0.000947	6114.461111	42638.308241	3900.527131	22094.071007
35.535500	0.001268	-0.000684	-0.000045	0.000522	6136.840521	42630.377190	3902.339706	22112.845918
36.036000	-0.000326	-0.000823	-0.005026	0.000132	6128.012614	42653.265849	3892.063826	22130.074361
36.536000	-0.002533	-0.000398	-0.001893	0.001816	6099.660364	42538.393259	3895.296331	22055.812718
37.036000	0.000387	0.000146	0.002456	0.001407	6123.904993	42625.368762	3905.984309	22073.834085
37.536500	-0.000004	0.000479	-0.003712	0.001907	6117.397603	42610.068505	3891.039090	22051.817771
38.037000	0.001516	-0.000231	0.004170	0.000701	6137.336384	42655.323145	3911.463503	22104.921721
38.537000	0.002343	0.000624	0.007566	0.001747	6135.738564	42637.933568	3916.817003	22058.864907
39.035000	0.000107	0.000226	0.000349	0.001113	6124.001685	42659.472803	3901.897846	22086.762045
39.534500	-0.000909	0.000450	-0.003189	0.001560	6113.324271	42639.100324	3892.974727	22067.058719
40.035500	-0.000126	-0.000126	-0.000294	0.001247	6121.319498	42615.113335	3900.151544	22080.880137
40.535500	-0.000199	-0.000460	0.001598	0.001382	6119.801225	42572.280575	3904.103739	22074.896587
41.036000	-0.001266	0.000545	0.002725	0.001445	6111.562020	42658.276255	3906.506179	22072.132329
41.536500	-0.001067	-0.000085	0.000884	0.000893	6117.037267	42651.140950	3903.598102	22096.475861
42.036500	-0.001248	-0.000111	-0.001897	0.000558	6118.158542	42679.374496	3898.101022	22111.258444
42.537000	-0.002699	-0.000611	-0.001482	0.001613	6099.927812	42537.508139	3896.669525	22064.746303
43.037000	0.002777	0.001423	0.000753	0.002082	6136.465016	42680.304606	3900.628262	22044.111890
43.537500	0.000355	-0.000462	-0.001101	0.000934	6127.123459	42612.974648	3899.042959	22094.665307
44.038000	0.000030	0.000138	0.000724	-0.000751	6137.095468	42822.125846	3906.946834	22169.123374
44.535000	-0.001444	0.000235	-0.004050	0.002713	6101.046271	42514.351961	3888.496754	22016.358697
45.035500	0.000913	0.000739	-0.000912	-0.000233	6139.779434	42829.690078	3902.088385	22146.212793
45.535500	0.000303	0.000362	-0.002697	0.000045	6133.254307	42769.663847	3897.460067	22133.919833
46.036000	0.003099	-0.000225	0.006286	-0.000761	6159.776962	42789.698714	3919.625601	22169.563844
46.539000	-0.002195	-0.000004	0.004319	0.002589	6096.499952	42503.895300	3907.524149	22021.819230
47.039000	0.001157	0.000524	0.001277	-0.000922	6146.635647	42873.266050	3908.584793	22176.699088
47.536500	0.000621	-0.000181	-0.005057	0.002026	6121.085796	42539.047957	3887.787805	22046.577454
48.037500	-0.000636	0.000094	0.002424	0.000079	6126.129657	42741.987678	3908.915452	22132.405756
48.537500	-0.002208	-0.000856	-0.000298	0.001977	6100.850268	42482.072194	3898.505012	22048.731435
49.035000	0.000768	-0.000088	-0.001746	-0.000710	6142.212257	42797.611216	3901.286947	22167.308252
49.535500	-0.002203	0.000682	0.003886	0.000344	6112.756963	42771.559112	3911.630821	22120.722531
50.038000	0.000820	-0.000443	0.002363	-0.001226	6146.394732	42812.369092	3911.736910	22190.156771
50.536000	-0.001848	-0.000466	0.003127	0.017035	5995.959731	41170.095752	3872.778190	21397.579786
51.041500	0.006694	-0.003599	-0.001019	0.022606	6016.876009	40412.261652	3851.809512	21162.330447
51.536000	0.022572	-0.020273	0.006942	0.474927	4072.009283	15691.644350	3258.203854	9371.960862
52.036500	0.012666	-0.015109	-0.011556	0.016447	6103.780535	39953.879032	3842.513818	21422.586745
52.537000	0.000434	-0.030848	-0.017066	-0.153714	7487.371296	55742.472528	4265.446206	30287.232375
53.036500	-0.015440	-0.043348	-0.023805	-0.198653	7801.497536	59834.513827	4388.681443	33268.444736
53.534500	-0.004275	-0.053325	-0.016052	-0.231564	8319.834195	62917.621730	4532.340042	35655.926754
54.035000	0.015218	-0.067080	-0.000471	-0.255301	8881.978068	64311.392009	4684.641589	37493.812984
54.535500	0.026047	-0.048572	0.007215	-0.224100	8610.092497	62544.757577	4591.903936	35098.535937
55.036000	0.047582	-0.021555	0.025446	-0.160986	8093.231273	57793.865458	4428.245657	30748.977562
55.536500	0.047758	-0.004935	0.036457	-0.075112	7172.011426	49714.091653	4190.237594	25760.006594
56.036000	0.064675	0.013112	0.056774	-0.021950	6833.863884	46083.943901	4098.085158	23130.962550
56.536500	0.087641	0.028527	0.076500	0.024337	6630.751667	43126.069100	4028.497824	21089.859685
57.037000	0.107812	0.042717	0.098116	0.052571	6563.034962	41848.629985	4011.812000	19947.556057
57.537500	0.130086	0.056655	0.114207	0.084721	6481.766359	40252.237877	3972.360261	18734.067011
58.037500	0.148886	0.069753	0.139763	0.125345	6308.626692	37963.076851	3936.647713	17323.808611
58.534500	0.167519	0.079947	0.158315	0.153353	6236.882754	36557.057131	3914.862121	16425.547788
59.035000	0.183818	0.090773	0.176501	0.204259	5985.053704	33596.820270	3843.032899	14934.127612
59.535500	0.195969	0.099218	0.192268	0.242705	5806.682078	31553.091862	3796.328844	13918.105073
60.035500	0.209381	0.106466	0.205943	0.273602	5693.909806	30038.670142	3762.454330	13164.317658
60.536000	0.219604	0.113674	0.212061	0.302212	5580.117249	28737.386954	3720.190240	12512.552754
61.036000	0.228107	0.118113	0.225440	0.329489	5468.797141	27417.787721	3695.149524	11929.896979
61.536000	0.238878	0.122200	0.233923	0.357575	5370.317895	26103.887395	3661.166307	11367.019760
62.037000	0.233258	0.122216	0.236325	0.376615	5236.657854	25112.767598	3633.499561	11005.607303
62.534500	0.236333	0.128261	0.237033	0.382886	5219.884821	25101.202921	3624.483282	10889.996712
63.034000	0.239640	0.134323	0.235161	0.384943	5226.429464	25306.180914	3618.184540	10852.438191
63.543500	0.240849	0.135934	0.246829	0.381175	5252.676420	25584.410464	3643.260940	10921.363527
64.038000	0.240351	0.137478	0.232527	0.379122	5260.942651	25772.466643	3623.288526	10959.189763
64.535500	0.242828	0.140614	0.241941	0.377435	5283.211683	26026.975295	3641.365497	10990.385663
65.039000	0.243560	0.141404	0.244289	0.373865	5306.455099	26259.595508	3651.193441	11056.829289
65.535500	0.246553	0.144734	0.241094	0.371987	5333.044455	26540.441141	3648.993779	11092.002776
66.036500	0.246475	0.147787	0.258944	0.371295	5336.416384	26744.487578	3680.568841	11104.990478
66.536500	0.246533	0.146515	0.248127	0.372183	5331.855342	26626.588672	3660.479666	11088.317359
67.037000	0.250479	0.149517	0.252299	0.369657	5367.631952	26929.518980	3671.910264	11135.839515
67.537500	0.249994	0.150913	0.248700	0.374730	5336.880873	26727.604950	3657.145514	11040.685344
68.038500	0.259060	0.153258	0.262705	0.371372	5406.177215	27041.558798	3687.006051	11103.544895
68.534500	0.250486	0.153154	0.251988	0.376154	5331.755981	26772.342368	3660.293121	11014.162383
69.035000	0.251882	0.154415	0.262543	0.374227	5350.061121	26947.647412	3681.730995	11050.067373
69.538000	0.253757	0.154007	0.258197	0.379933	5328.968109	26612.540994	3664.418194	10944.218217
70.036000	0.252264	0.155653	0.260760	0.379395	5323.745982	26731.749682	3669.717746	10954.152584
70.536000	0.254369	0.157150	0.258421	0.387514	5291.087588	26372.246629	3652.000663	10805.743671
71.036000	0.258411	0.158526	0.260644	0.386049	5320.976292	26525.805526	3658.200529	10832.318041
71.537000	0.255023	0.158297	0.262235	0.393683	5261.528636	26103.308173	3648.069950	10694.818317
72.037500	0.257819	0.158480	0.256911	0.390105	5295.722200	26304.427813	3645.169757	10758.965978
72.535000	0.259679	0.160980	0.267405	0.393585	5286.983129	26251.838830	3656.891715	10696.569069
73.035000	0.259104	0.161107	0.259994	0.395352	5274.410753	26164.136741	3641.589018	10665.080127
73.535500	0.256028	0.161215	0.259755	0.402590	5219.835709	25786.556472	3629.359684	10537.419086
74.038500	0.262287	0.161684	0.266356	0.398913	5272.385254	26005.338958	3646.225822	10602.007035
74.535500	0.264944	0.162659	0.258254	0.402083	5269.643579	25889.295875	3627.749302	10546.299308
75.036000	0.262061	0.163256	0.264189	0.403309	5247.792938	25856.119252	3635.411237	10524.866653
75.536500	0.258378	0.162629	0.264477	0.411413	5186.241321	25400.804878	3622.740732	10384.667371
76.036500	0.258373	0.164315	0.270593	0.408039	5203.662296	25663.537515	3638.152375	10442.710830
76.536500	0.266018	0.165579	0.273786	0.411302	5226.527985	25559.382513	3638.038247	10386.560976
77.036500	0.265507	0.166820	0.270162	0.414112	5209.179047	25477.953351	3627.554476	10338.554281
77.535000	0.265159	0.165507	0.271723	0.415444	5200.449957	25341.334285	3627.924504	10315.894183
78.035000	0.266720	0.166962	0.270781	0.417928	5195.673592	25288.413092	3622.401723	10273.837013
78.535000	0.264495	0.167736	0.275122	0.425715	5144.469686	24931.013387	3616.891286	10143.533206
79.035500	0.271806	0.168693	0.268726	0.422444	5198.623030	25145.775306	3611.931104	10197.981220
79.536000	0.265147	0.166692	0.276563	0.428196	5135.246018	24753.579580	3615.236940	10102.514211
80.036000	0.272449	0.168141	0.275171	0.424620	5190.694999	25006.948759	3618.716479	10161.718874
80.536500	0.273004	0.169152	0.274261	0.426889	5181.860570	24943.241276	3613.656371	10124.086955
81.037000	0.273139	0.169940	0.277221	0.428729	5173.115521	24890.098524	3615.433710	10093.720440
81.537500	0.269373	0.169736	0.273997	0.435864	5117.983100	24522.913244	3599.162705	9977.172566
82.034500	0.274524	0.169349	0.277953	0.430901	5169.088485	24751.128788	3613.149305	10058.042136
82.537500	0.273650	0.169874	0.275032	0.431584	5161.145385	24743.258565	3607.463873	10046.864958
83.035500	0.274619	0.170841	0.283829	0.433528	5156.180428	24694.310441	3618.316844	10015.123700
83.535500	0.271695	0.169494	0.275979	0.439948	5109.199661	24309.359281	3595.908630	9911.323485
84.036000	0.277076	0.170785	0.278659	0.436008	5156.067678	24567.889544	3606.212242	9974.846823
84.536000	0.272745	0.170209	0.280000	0.441820	5105.114619	24252.619945	3599.236172	9881.350186
85.036500	0.279605	0.170960	0.281429	0.439269	5152.345987	24414.997357	3605.443251	9922.230512
85.536500	0.273054	0.168922	0.276649	0.445300	5089.430697	24020.429868	3588.716115	9825.967929
86.036500	0.277064	0.169936	0.278454	0.441002	5130.770650	24279.318397	3598.107242	9894.430807
86.539500	0.278137	0.169461	0.286781	0.441893	5131.686089	24212.457633	3609.730479	9880.181254
87.034500	0.277593	0.171524	0.282311	0.444730	5114.760730	24174.626672	3598.306939	9835.006104
87.535000	0.278528	0.171065	0.280022	0.444676	5119.698759	24154.897722	3594.851516	9835.859762
88.038000	0.280455	0.171741	0.279587	0.446207	5121.674751	24113.204802	3591.826609	9811.591614
88.535500	0.281114	0.172471	0.282147	0.448074	5115.641683	24057.971062	3592.891384	9782.131129
89.036000	0.279891	0.172517	0.287597	0.448003	5109.899383	24063.638784	3601.434561	9783.240503
89.536000	0.281283	0.172396	0.282102	0.448084	5116.435677	24053.868133	3592.806262	9781.969807
90.039500	0.280708	0.172101	0.288722	0.448729	5110.355423	24008.270039	3602.055977	9771.812963
90.536500	0.283461	0.173301	0.288561	0.450212	5116.686573	23994.606519	3599.498390	9748.535821
91.037000	0.283896	0.173567	0.290271	0.450992	5114.965676	23969.755706	3600.945741	9736.324019
91.535000	0.281694	0.173406	0.286026	0.451598	5101.006257	23932.697108	3593.437370	9726.847237
92.034500	0.282097	0.172208	0.289736	0.451299	5104.488910	23889.380928	3599.636565	9731.521285
92.538000	0.278490	0.172442	0.287792	0.456791	5059.796100	23637.697046	3588.184107	9646.188863
93.035500	0.279698	0.172720	0.295888	0.451930	5089.499918	23883.613815	3608.265311	9721.655320
93.563000	0.282008	0.172482	0.282593	0.452719	5097.010299	23834.243392	3586.466344	9709.349606
94.035500	0.283715	0.171851	0.289897	0.452851	5104.810065	23797.614894	3597.478750	9707.290317
94.536500	0.278951	0.172076	0.276095	0.459134	5050.665665	23509.224529	3567.091386	9610.118428
95.039500	0.286837	0.173770	0.290008	0.454955	5109.871368	23788.730187	3594.399516	9674.590719
95.536500	0.286904	0.173517	0.288493	0.454881	5110.575093	23780.191405	3592.183485	9675.747951
96.036500	0.284834	0.175094	0.288859	0.456037	5094.576488	23800.350454	3590.969638	9657.840079
