sample name	sample
index	1384
start time	 05-03-2021  03:00:54 PM
880	0.459987
Peak Time (s)	90.537
Peak Height 	0.46
calc peak height	90,93
Baseline Time (s)	9.043
Baseline Value 	-0.003291
subtract baseline	10,4
Abs	0.306315
Peak Time (s)	91.04
Peak Height 	0.3063
calc peak height	90,93
Baseline Time (s)	9.043
Baseline Value 	0.002799
subtract baseline	10,3
PK_550	0.167567
Peak Time (s)	90.037
Peak Height 	0.1676
calc peak height	90,93
Baseline Time (s)	9.043
Baseline Value 	8.0208E-5
subtract baseline	10,2
PK_880	0.289711
Peak Time (s)	90.037
Peak Height 	0.2897
calc peak height	90,93
Baseline Time (s)	9.043
Baseline Value 	-3.8866E-4
subtract baseline	10,1


Time (s)	A880-A510	A880-A775	A880-A975	A880	I510	I775	I975	I880	
0.045000	0.000627	-0.000136	0.000473	0.002495	6150.035739	42439.152037	3944.917036	22075.093195
0.560500	0.002094	0.000053	-0.001257	0.003524	6153.234640	42363.016493	3938.715139	22029.929119
1.056500	-0.002110	-0.000120	-0.000555	0.006469	6101.513082	42081.556536	3933.702368	21901.229903
1.535500	-0.000356	0.000177	-0.003980	0.001256	6151.899179	42580.329766	3937.694242	22129.617883
2.046000	0.000502	0.000433	0.001777	0.001219	6158.435621	42607.042043	3950.751833	22131.264197
2.543000	0.000287	0.000273	0.001118	0.000758	6160.233249	42634.509269	3950.302536	22151.602249
3.095500	-0.000605	-0.000354	0.001490	0.003181	6136.090204	42357.250588	3945.664079	22044.975568
3.544500	0.001895	0.000602	-0.003736	0.000752	6172.053578	42665.058183	3939.371500	22151.868734
4.042500	0.001569	0.000578	-0.000538	0.000482	6171.643044	42687.494733	3947.177996	22163.776482
4.541000	0.000201	-0.000267	0.001127	0.000160	6163.978360	42639.716735	3951.679569	22177.990963
5.042000	0.002353	0.000800	-0.005863	0.000786	6175.165125	42680.013448	3934.536944	22150.354596
5.550000	0.002354	0.000040	-0.007380	0.000486	6177.380847	42638.059454	3931.826308	22163.612601
6.061000	0.000180	-0.000003	-0.005659	0.000140	6163.974012	42665.667434	3936.436517	22178.905050
6.559500	0.000476	-0.000746	-0.002602	-0.000447	6170.441331	42651.495078	3944.618153	22204.865147
7.039500	-0.000719	-0.000299	-0.000882	0.000006	6158.379987	42650.843273	3947.475897	22184.809099
7.544000	0.001686	0.000341	-0.000348	0.000552	6171.987717	42659.398737	3947.449078	22160.677154
8.054500	0.000259	0.000173	0.003414	0.000197	6164.137208	42676.566609	3956.802559	22176.381347
8.541500	0.000798	0.000500	0.001283	0.000631	6164.905658	42666.830711	3950.966333	22157.217161
9.043000	0.000000	0.000000	0.000000	0.000000	6163.680723	42678.742888	3949.487343	22185.083283
9.557000	0.001505	0.000901	-0.002698	0.000387	6171.870421	42725.660522	3942.521138	22167.964035
10.035000	0.001108	-0.000099	-0.008336	0.000344	6169.276033	42638.369838	3930.016367	22169.893469
10.540000	-0.000655	-0.000176	0.002169	-0.000612	6163.359025	42718.498886	3955.807344	22212.136807
11.035000	-0.000053	-0.000364	-0.000699	-0.000477	6166.782586	42688.984325	3948.984564	22206.164988
11.542000	-0.000764	0.000229	0.001014	-0.000284	6160.174798	42725.612017	3952.433669	22197.652053
12.043500	0.000126	0.000773	-0.000491	0.000432	6161.443706	42709.860183	3947.399261	22165.994718
12.559000	0.001761	0.000140	0.001092	-0.000150	6177.697160	42705.293720	3952.306546	22191.731674
13.039000	0.002351	0.000769	0.001873	-0.000314	6183.249385	42777.818124	3954.455943	22198.983690
13.537000	-0.000433	0.000461	-0.004951	0.000103	6159.760756	42711.433949	3938.101984	22180.527902
14.037500	-0.000855	0.000595	-0.001052	0.002313	6140.580246	42522.129916	3941.891819	22083.084777
14.542500	0.001202	0.000494	-0.001643	0.002130	6156.892101	42529.573353	3940.974824	22091.134864
15.053500	0.001840	0.000371	0.002661	0.000288	6175.056772	42686.309391	3954.877440	22172.345638
15.540000	0.002818	0.000402	-0.000925	-0.000199	6185.837944	42733.662179	3947.844048	22193.870616
16.049500	-0.001867	0.000414	0.001231	0.000165	6148.840796	42701.418447	3951.905258	22177.778171
16.540500	0.001088	-0.000103	0.001171	-0.000093	6172.331995	42677.813859	3952.355536	22189.187182
17.044500	0.004793	0.000816	0.004447	0.000067	6198.458098	42747.156984	3959.461570	22182.110686
17.536000	0.002636	0.001754	0.004035	-0.002524	6201.664904	43071.295158	3964.458865	22296.969170
18.040000	-0.001082	-0.000563	-0.001773	0.000087	6155.137607	42619.371026	3945.281056	22181.227730
18.537000	0.000722	0.000162	-0.000823	0.000749	6163.482447	42625.144914	3945.931478	22151.979189
19.037500	-0.000842	0.000035	-0.001295	0.000797	6151.710538	42609.206970	3944.758515	22149.882964
19.537000	0.000396	0.000034	-0.001399	0.000498	6162.937867	42636.349694	3945.198705	22163.080296
20.040500	0.003767	-0.000111	-0.001051	0.000900	6184.727143	42586.485926	3945.076091	22145.317478
20.534500	0.004119	0.000394	-0.005817	0.001127	6185.654144	42611.932239	3933.880582	22135.337415
21.041000	-0.000408	-0.000301	-0.001393	0.000522	6156.887407	42603.728067	3945.158063	22162.041945
21.541000	0.003712	0.001322	-0.003601	0.001567	6179.418056	42656.327560	3937.847961	22115.930445
22.048500	0.001630	0.000195	0.004199	0.001256	6166.419483	42581.992596	3956.178129	22129.644477
22.539500	0.002109	0.000181	-0.002062	0.000666	6174.259814	42634.437784	3943.324900	22155.660849
23.048000	0.000663	0.000561	0.002926	0.001414	6158.188035	42600.969417	3952.918874	22122.687488
23.534500	0.000975	-0.000434	-0.000098	0.000089	6170.177539	42631.077665	3949.064728	22181.166454
24.040000	0.002949	-0.000207	0.000392	0.000943	6178.396142	42573.871041	3948.240223	22143.445678
24.534500	0.002298	0.000280	0.002805	0.000579	6176.284177	42651.371481	3954.543097	22159.485088
25.038500	0.001898	0.000447	0.002084	0.001248	6168.441969	42605.692363	3951.384146	22129.990401
25.566000	0.000201	0.000665	0.003837	0.001262	6155.923646	42624.227933	3955.337323	22129.360304
26.100000	-0.000669	0.000362	-0.003352	0.001263	6149.570707	42596.548395	3939.084942	22129.321199
26.584500	0.000770	0.000390	0.001447	0.001187	6160.626490	42605.964478	3950.075039	22132.667697
27.043000	0.000168	-0.000152	0.001822	0.000974	6157.791829	42576.092602	3951.412617	22142.091358
27.539000	0.001101	0.000325	-0.000189	-0.001483	6182.647442	42844.169870	3952.423823	22250.746014
28.049000	0.003262	0.000522	0.002703	-0.001519	6198.862209	42865.569395	3959.099581	22252.334031
28.538500	0.003282	0.000768	0.001456	-0.000308	6190.065232	42777.137662	3953.493263	22198.709926
29.037000	-0.000461	-0.000114	0.000787	0.001879	6146.599480	42497.147595	3947.017064	22102.195301
29.537500	-0.000625	0.000626	-0.000623	-0.000222	6160.738154	42756.331531	3948.580953	22194.915558
30.045500	0.002699	0.000114	-0.001392	0.000450	6180.178403	42648.067906	3945.322076	22165.184318
30.540500	-0.000068	-0.000015	-0.002724	-0.000667	6168.068095	42738.361413	3944.837922	22214.588197
31.035500	0.000455	0.000175	-0.002450	0.002392	6149.537060	42476.803223	3938.578702	22079.645811
31.539000	0.000170	0.000204	0.001489	0.001551	6153.590233	42555.905830	3949.346552	22116.623865
32.054500	0.001541	0.000232	-0.003916	-0.000171	6176.237536	42715.575861	3941.038843	22192.650275
32.536000	0.001438	0.000264	-0.001890	-0.000434	6177.410542	42742.559210	3946.194590	22204.283504
33.036500	-0.001066	0.000255	-0.000815	0.001046	6148.257430	42606.538536	3945.278267	22138.880100
33.688000	0.000988	0.000595	-0.001720	0.004490	6138.151870	42324.674756	3935.516820	21987.618158
34.034500	0.001502	0.000459	0.003814	-0.001900	6188.679918	42894.777143	3962.519992	22269.268944
34.537500	-0.000118	0.000230	0.001544	0.001362	6152.867782	42575.464747	3949.899527	22124.949281
35.039000	-0.000017	-0.000012	0.001242	0.001771	6150.624836	42516.285349	3948.290332	22106.952492
35.535500	0.000613	-0.000742	-0.005723	0.000952	6161.196071	42524.303467	3934.479019	22143.036943
36.036000	0.001768	0.000342	0.000704	0.001224	6167.667936	42598.343043	3948.311678	22131.065573
36.539000	-0.000127	0.000140	-0.003593	0.000896	6156.203347	42609.776743	3939.370518	22145.528911
37.039500	0.002387	0.000801	0.002782	0.001560	6169.742004	42609.495656	3952.260636	22116.238592
37.536500	0.000057	0.000256	-0.000384	0.001204	6155.298579	42592.258990	3945.895863	22131.926693
38.037500	0.000270	0.000999	0.002478	0.001766	6152.751080	42608.791958	3951.102098	22107.175900
38.535000	0.001213	0.000771	-0.001803	0.001569	6161.073933	42605.883416	3941.876344	22115.834577
39.034500	0.001459	0.000899	0.003347	0.001816	6161.066572	42595.056898	3952.961702	22104.959650
39.538500	0.001302	-0.000006	-0.000286	0.001248	6164.076386	42564.394203	3946.017650	22129.989378
40.038500	0.001661	0.000205	-0.000270	0.001412	6165.502067	42568.727901	3945.684822	22122.770479
40.535500	-0.001680	0.000014	0.001896	0.000988	6144.212262	42589.877796	3951.545456	22141.434338
41.075500	-0.000586	-0.000710	-0.001592	0.000396	6156.498118	42577.820086	3944.993448	22167.578342
41.588000	0.001373	-0.000380	0.005823	0.001048	6166.061074	42548.591593	3960.366394	22138.821291
42.084000	0.000432	0.000624	-0.003754	0.001410	6156.528899	42606.993685	3937.856378	22122.847756
42.542500	0.000469	0.000232	0.001748	0.001403	6156.857713	42571.979438	3950.269331	22123.175907
43.037000	0.000347	0.001251	0.003725	0.001880	6152.476665	42621.296247	3953.675161	22102.134597
43.537500	0.001827	0.000419	0.000373	0.001505	6166.043831	42579.691731	3946.926159	22118.678373
44.051500	0.001073	0.000171	0.002015	0.000858	6165.249886	42615.994134	3952.112633	22147.177991
44.535000	0.002744	0.001275	0.002446	-0.003065	6206.475113	43077.054380	3962.051623	22321.051120
45.047500	0.001886	0.000981	0.000124	0.001150	6169.075929	42663.291788	3947.166652	22134.317800
45.555000	0.000975	0.000623	-0.000221	0.000655	6166.020312	42675.848922	3947.503921	22156.144724
46.076000	0.001300	-0.000108	-0.002982	-0.000244	6175.003905	42691.191402	3943.302660	22195.881207
46.538500	0.002743	-0.000331	0.004802	-0.000567	6187.993733	42700.310487	3961.728089	22210.157140
47.036500	0.001574	0.000022	0.000980	0.000166	6174.003285	42665.571083	3951.334416	22177.752394
47.537000	0.000362	0.000746	-0.004655	0.000382	6163.533931	42712.002496	3938.140749	22168.201520
48.055500	0.002790	0.000537	-0.002487	0.002274	6167.457851	42520.403786	3938.757295	22084.800335
48.537000	0.000969	0.000530	0.000902	0.002101	6155.403820	42535.510279	3946.773558	22092.413771
49.036000	0.002321	0.001421	0.002306	0.001354	6170.764858	42684.842907	3951.647035	22125.324747
49.535500	0.003787	0.000857	-0.002002	0.000330	6189.081312	42726.879812	3944.217400	22170.496162
50.035500	0.002868	-0.000628	-0.005766	-0.000134	6185.729542	42633.679741	3936.809247	22191.025048
50.536000	0.004683	0.000914	0.003721	-0.002582	6217.299023	42999.232586	3963.870653	22299.559052
51.036000	0.004372	-0.000425	0.002401	0.004071	6165.884835	42270.292901	3945.711486	22005.964063
51.536500	0.017639	-0.002283	0.014015	0.116667	5515.614960	33176.781822	3742.349233	17662.082625
52.036500	0.016510	-0.017018	-0.020082	0.118272	5499.737801	32063.170819	3681.042186	17607.949526
52.537000	0.023637	-0.039004	-0.015654	-0.172188	7974.537645	56912.138084	4376.488482	31527.125319
53.037000	0.029080	-0.073961	-0.007861	-0.260483	9176.478134	63954.767762	4725.899139	37961.798880
53.534500	0.037664	-0.059851	0.010025	-0.241044	9023.653543	63211.562941	4719.617369	36430.787931
54.035000	0.036967	-0.037875	0.012421	-0.195366	8412.085754	60014.551412	4553.230122	33091.800216
54.535500	0.044064	-0.019162	0.021904	-0.141555	7858.647404	55589.618262	4399.167469	29583.309555
55.040500	0.041566	-0.011737	0.021959	-0.110496	7496.284235	52805.260467	4300.388868	27747.616502
55.536000	0.048060	-0.003548	0.030454	-0.113024	7590.961452	54049.030694	4334.701540	27892.130635
56.036500	0.062359	0.000672	0.044473	-0.101579	7621.333272	53207.108996	4342.840503	27244.347686
56.539500	0.077455	0.013851	0.066794	-0.022732	6988.379133	46164.161830	4174.746682	23216.778487
57.037000	0.087480	0.023920	0.078907	0.036082	6563.005564	41583.519615	4051.462541	20654.421389
57.542500	0.106587	0.035324	0.101528	0.104919	6175.909315	36806.391204	3941.834721	18064.523524
58.034000	0.125785	0.048422	0.120431	0.145961	6019.399446	34700.903532	3893.311996	16704.797868
58.593500	0.142039	0.060433	0.139251	0.188703	5839.870624	32536.505445	3843.586632	15418.899549
59.068000	0.155696	0.070961	0.159544	0.227145	5681.523749	30699.013064	3807.647861	14365.661289
59.535000	0.170776	0.081320	0.170527	0.262693	5557.390646	29139.167477	3761.335763	13471.267215
60.228000	0.186929	0.090486	0.186809	0.290074	5491.747219	28066.329319	3741.255005	12830.587233
60.799000	0.206939	0.099453	0.219050	0.393047	5055.888237	23191.322862	3624.662925	10752.410026
61.053500	0.211586	0.104024	0.211971	0.387247	5106.300521	23678.841525	3622.724431	10856.829661
61.536000	0.222351	0.106204	0.221174	0.380229	5194.950944	24121.025513	3647.734781	10985.042261
62.037500	0.231800	0.119319	0.232661	0.348320	5415.730339	26426.174232	3719.429667	11594.936284
62.537500	0.233649	0.121983	0.238544	0.367773	5319.178269	25538.541628	3696.235644	11217.802458
63.038000	0.240114	0.130243	0.241056	0.376877	5305.041968	25494.829058	3685.227817	11047.034705
63.535500	0.241502	0.133554	0.243846	0.376509	5314.438961	25686.010962	3690.480186	11053.864841
64.047000	0.244096	0.135559	0.243787	0.375237	5335.265315	25857.703894	3692.508089	11077.526623
64.536000	0.249671	0.138953	0.257796	0.377243	5354.660801	25930.809406	3712.881635	11040.242529
65.035500	0.246395	0.140402	0.254558	0.378653	5329.228393	25932.871243	3704.924656	11014.127823
65.536500	0.251957	0.144030	0.257825	0.382540	5338.287630	25919.203164	3703.870089	10942.589110
66.036500	0.253905	0.147097	0.261155	0.386449	5327.686405	25874.847029	3702.886150	10871.290563
66.537000	0.261236	0.148398	0.260295	0.389404	5351.408539	25787.988147	3696.437596	10817.821433
67.040000	0.261455	0.150515	0.266729	0.392975	5333.218867	25711.876223	3701.272463	10753.692392
67.537500	0.261701	0.150934	0.271806	0.393969	5329.177552	25681.893220	3708.222212	10735.935799
68.056000	0.266106	0.152226	0.273992	0.397345	5334.739115	25573.382730	3706.190935	10675.922029
68.535000	0.269581	0.154711	0.275200	0.399509	5341.835948	25590.037409	3704.560705	10637.683834
69.040500	0.269891	0.156898	0.280510	0.401731	5331.490905	25588.219030	3709.835693	10598.648233
69.541000	0.272475	0.156426	0.270358	0.402407	5341.817666	25528.664189	3691.506574	10586.808529
70.038500	0.271319	0.157338	0.279678	0.405602	5318.327851	25410.643572	3701.818828	10531.091866
70.544000	0.270634	0.158228	0.276747	0.409002	5296.487240	25281.614044	3691.162695	10472.249074
71.039000	0.275269	0.158508	0.278912	0.412619	5301.906013	25111.176180	3688.740270	10410.148130
71.540000	0.273146	0.158722	0.285271	0.414663	5279.785553	25018.308576	3695.961033	10375.290337
72.037500	0.275452	0.161616	0.289906	0.419105	5268.523934	24940.013818	3696.286132	10300.085912
72.538000	0.274456	0.161692	0.287914	0.421321	5251.702530	24832.212793	3689.239521	10262.856290
73.037500	0.278102	0.163365	0.285890	0.423407	5259.863324	24811.536174	3682.424400	10228.001146
73.535500	0.277242	0.163158	0.288146	0.423494	5254.908545	24796.800014	3686.013333	10226.550867
74.084500	0.276820	0.163030	0.291969	0.423626	5252.007726	24783.739996	3692.161128	10224.338047
74.549000	0.278341	0.164764	0.289134	0.426136	5246.856351	24744.926082	3683.274743	10182.632971
75.038500	0.278574	0.165737	0.290180	0.426069	5248.419387	24796.969937	3685.115498	10183.739335
75.548500	0.281923	0.167530	0.295581	0.427518	5258.339913	24814.257910	3691.694256	10159.763961
76.039500	0.279723	0.166419	0.290863	0.426257	5253.431381	24821.759538	3685.935045	10180.617446
76.549500	0.281221	0.168405	0.286991	0.428315	5250.512922	24818.181174	3676.167126	10146.614998
77.053000	0.284532	0.167349	0.289609	0.428060	5269.188329	24777.992878	3680.882528	10150.818857
77.537000	0.282006	0.169697	0.293615	0.431338	5238.861471	24731.435360	3682.082844	10096.929414
78.048500	0.284491	0.169783	0.292661	0.431788	5249.449998	24713.238611	3679.769658	10089.568111
78.546000	0.286188	0.170607	0.292667	0.433999	5246.773938	24644.087345	3676.153751	10053.497768
79.035500	0.283124	0.168750	0.288626	0.432467	5238.805590	24627.868991	3672.058354	10078.464721
79.536000	0.287981	0.171139	0.290095	0.436189	5244.705749	24561.662632	3668.402855	10017.944812
80.057500	0.286148	0.170869	0.289287	0.437538	5228.211775	24481.491578	3664.920613	9996.132537
80.537000	0.285599	0.170404	0.294385	0.438277	5221.569303	24422.076283	3671.975934	9984.213508
81.140500	0.286603	0.169831	0.292725	0.439920	5218.280726	24313.159717	3666.622658	9957.782413
81.537000	0.285258	0.170659	0.295323	0.441406	5203.771193	24280.933491	3668.420585	9933.977808
82.034500	0.287091	0.170180	0.304603	0.444171	5199.015778	24122.680450	3679.045234	9889.869170
82.534500	0.287209	0.170273	0.290629	0.446432	5188.118398	24017.611396	3652.863262	9854.023319
83.035000	0.290386	0.170784	0.301735	0.448417	5194.172712	23946.427682	3667.450916	9822.699458
83.536000	0.289845	0.170239	0.297604	0.449526	5185.793829	23866.886296	3659.033297	9805.259613
84.035500	0.289215	0.168433	0.294390	0.449534	5182.565480	23780.020695	3653.907605	9805.144735
84.536500	0.285498	0.168754	0.297976	0.452701	5148.014002	23644.425580	3654.572452	9755.597728
85.039500	0.290828	0.167114	0.303156	0.449316	5191.851700	23727.433250	3668.295940	9808.566226
85.537000	0.293957	0.168614	0.295283	0.451681	5195.735847	23686.232301	3651.922667	9771.511613
86.037000	0.290258	0.168519	0.296342	0.451369	5178.560876	23696.551778	3654.091981	9776.381428
86.537500	0.285567	0.168266	0.296230	0.454601	5138.915287	23531.329748	3648.811210	9726.041498
87.035000	0.289172	0.167841	0.297833	0.452427	5167.760238	23614.045509	3654.779137	9759.857266
87.537500	0.291374	0.168110	0.295786	0.452727	5177.339104	23612.596256	3651.064509	9755.181745
88.035000	0.290726	0.167459	0.298198	0.452330	5176.075977	23600.577456	3655.513718	9761.381722
88.536000	0.287526	0.167025	0.299809	0.456456	5139.427159	23385.625948	3651.529505	9697.311850
89.036000	0.292916	0.167723	0.295307	0.454131	5178.040506	23527.877233	3648.099024	9733.338728
89.541500	0.289212	0.166426	0.300460	0.453758	5161.283037	23484.268301	3656.839574	9739.140258
90.036500	0.289711	0.167567	0.296462	0.455358	5155.774093	23462.673328	3647.986257	9714.300937
90.537000	0.284813	0.166426	0.296181	0.459987	5108.677413	23192.795187	3640.311687	9642.953058
91.040000	0.287780	0.166425	0.306315	0.456000	5142.951809	23378.846786	3662.615241	9704.358688
91.537000	0.285756	0.166498	0.295335	0.455848	5133.673149	23389.406462	3645.450221	9706.716318
92.035000	0.288479	0.164634	0.300272	0.455173	5150.548804	23333.690272	3654.293193	9717.168135
92.535500	0.289552	0.165247	0.291971	0.456668	5148.444794	23292.471910	3638.929318	9694.027767
93.035500	0.286065	0.164035	0.303151	0.455663	5136.119658	23282.833443	3658.092254	9709.578100
93.539000	0.288247	0.164415	0.305420	0.456819	5141.201021	23246.625066	3659.868009	9691.697182
94.039500	0.289821	0.165627	0.302257	0.458464	5140.851604	23226.508039	3652.225302	9666.352479
94.536000	0.287755	0.164814	0.292888	0.458126	5132.292578	23204.405182	3638.091214	9671.550231
95.037000	0.289644	0.165079	0.294609	0.459032	5137.159508	23174.675690	3639.356151	9657.622238
95.537000	0.285543	0.163343	0.301208	0.458748	5118.325945	23107.383086	3650.120919	9661.984319
96.034500	0.288024	0.165255	0.299183	0.459656	5126.066520	23153.852622	3645.512897	9648.040264
96.537500	0.285708	0.164153	0.299316	0.464638	5090.389764	22873.756115	3637.961164	9572.039692
97.035500	0.287924	0.164698	0.294198	0.460178	5123.002307	23103.869578	3636.942970	9640.029342
