sample name	sample
index	121
start time	 02-15-2021  12:43:40 PM
880	0.427967
Peak Time (s)	92.035
Peak Height 	0.428
calc peak height	90,93
Baseline Time (s)	8.537
Baseline Value 	-0.002135
subtract baseline	10,4
Abs	0.320466
Peak Time (s)	91.035
Peak Height 	0.3205
calc peak height	90,93
Baseline Time (s)	10.536
Baseline Value 	0.00335
subtract baseline	10,3
PK_550	0.155575
Peak Time (s)	92.035
Peak Height 	0.1556
calc peak height	90,93
Baseline Time (s)	11.036
Baseline Value 	8.8091E-4
subtract baseline	10,2
PK_880	0.306275
Peak Time (s)	92.035
Peak Height 	0.3063
calc peak height	90,93
Baseline Time (s)	10.035
Baseline Value 	-0.001493
subtract baseline	10,1


Time (s)	A880-A510	A880-A775	A880-A975	A880	I510	I775	I975	I880	
0.034500	0.000393	-0.001657	-0.008232	0.002269	4292.402947	16098.992144	3256.503219	9073.528457
0.535000	-0.007111	-0.002331	-0.017670	0.002833	4269.064914	16061.918165	3249.927852	9065.652027
1.038500	0.001508	-0.001563	0.010496	0.001949	4296.598910	16111.413962	3269.451727	9078.001237
1.536000	-0.000241	-0.001396	-0.003339	0.003307	4287.531520	16075.714785	3259.078176	9059.042680
2.036000	0.000745	-0.002560	0.000740	0.001610	4295.359548	16091.667836	3262.979057	9082.740801
2.536500	-0.003733	-0.000847	-0.014706	0.001081	4283.854000	16159.013504	3253.009788	9090.149388
3.036500	0.002385	-0.000305	-0.009728	-0.002834	4313.289727	16293.943428	3258.911597	9145.232341
3.537000	-0.000041	-0.000623	-0.012215	0.002824	4289.520705	16113.356725	3253.501310	9065.787358
4.037000	0.000961	-0.000102	0.003282	0.003181	4291.401042	16118.294565	3263.640444	9060.806186
4.537000	0.001933	-0.001948	-0.010507	-0.000301	4304.460388	16167.485122	3256.699094	9109.533133
5.035000	0.001817	0.000018	0.005203	0.000990	4300.320651	16187.828250	3266.455739	9091.419060
5.535500	-0.003505	-0.001844	-0.011298	-0.000966	4290.469149	16190.694896	3256.615849	9118.891309
6.035000	-0.000571	0.000673	-0.002029	0.001311	4292.386395	16197.925563	3261.304948	9086.924444
6.536000	-0.001433	0.000405	-0.012761	0.000197	4293.123174	16223.522225	3254.874435	9102.549465
7.036500	0.001382	-0.000227	-0.005065	0.001125	4298.648027	16176.392169	3259.384563	9089.534841
7.536500	0.003445	-0.000286	-0.022019	0.000363	4306.962283	16197.612011	3248.709874	9100.219269
8.036500	-0.001015	0.000194	-0.013387	0.000272	4294.125918	16214.858436	3254.411161	9101.493395
8.537000	-0.005242	-0.000138	0.000400	0.000000	4282.612711	16213.036048	3263.844048	9105.308430
9.037500	0.003961	0.000748	-0.002459	0.000375	4308.449972	16228.501412	3261.646659	9100.041702
9.535000	-0.001288	-0.000544	0.007403	-0.000069	4294.320983	16202.858112	3268.705510	9106.270619
10.035000	0.000000	-0.002003	-0.007441	-0.000715	4299.992381	16178.319532	3259.025054	9115.363724
10.535500	-0.003328	0.000018	0.000000	-0.000007	4288.191370	16217.978869	3263.576357	9105.408720
11.036000	0.000812	0.000000	-0.004248	0.000649	4298.372772	16197.611792	3260.253996	9096.205732
11.536000	0.003005	0.000771	0.009119	0.000345	4305.718524	16230.116816	3269.609800	9100.469119
12.036000	0.003616	0.001276	-0.010709	0.001456	4304.241409	16211.777116	3255.399076	9084.895866
12.536500	-0.002771	-0.000196	-0.010284	0.000450	4288.482781	16197.704095	3256.348450	9098.992490
13.036500	0.002794	0.001483	-0.004539	0.000671	4304.132859	16241.805438	3260.043403	9095.894789
13.537000	-0.000988	-0.001181	0.000311	0.002567	4287.511016	16104.322163	3262.038840	9069.369148
14.040000	0.001999	0.000338	-0.009988	0.002140	4297.480357	16162.818097	3255.423348	9075.332603
14.535000	-0.000861	-0.000459	-0.008781	0.001584	4290.741538	16155.540115	3256.593540	9083.099059
15.035000	0.002197	-0.001455	-0.000200	-0.002036	4310.367366	16234.814513	3264.825061	9133.968079
15.535500	0.002594	-0.000305	-0.017068	0.003351	4295.673341	16107.064846	3249.982247	9058.431501
16.038500	0.000550	-0.001339	-0.001450	0.003502	4289.266399	16071.594590	3260.217107	9056.333199
16.536000	0.000346	-0.001294	-0.016366	-0.001871	4304.407767	16234.688956	3253.859167	9131.631475
17.036000	0.002341	0.000707	-0.010847	-0.002974	4313.575012	16329.070854	3258.256441	9147.219859
17.536500	-0.000946	-0.001829	-0.006875	-0.000930	4297.844843	16190.031299	3259.548576	9118.377862
18.037000	0.001226	-0.000184	0.001699	0.002490	4294.193855	16136.575782	3263.033073	9070.448322
18.534500	-0.005128	-0.001304	-0.015239	-0.001206	4286.443101	16214.256510	3254.163524	9122.261361
19.034500	-0.003263	-0.002443	-0.003711	-0.000628	4290.190535	16162.455289	3261.479255	9114.140374
19.535500	-0.002559	0.001554	-0.002790	0.002483	4283.194298	16189.156048	3260.000954	9070.542173
20.038500	-0.003072	-0.001097	0.003352	0.000565	4287.272175	16167.048083	3265.476086	9097.381943
20.535500	-0.001460	-0.001399	0.003597	-0.000076	4293.842561	16177.262219	3266.084507	9106.379722
21.036000	0.002351	-0.000214	-0.008707	0.000779	4302.511521	16187.219511	3257.179497	9094.385853
21.536000	-0.003452	-0.000455	0.001539	0.001121	4284.554463	16169.630182	3263.856528	9089.591031
22.036500	-0.001396	-0.000453	-0.013043	0.001073	4290.672564	16171.130907	3254.109283	9090.258942
22.537000	0.002426	0.001364	0.003360	0.001373	4300.982675	16216.952006	3264.928068	9086.057099
23.034500	-0.000899	0.000802	-0.015284	0.001670	4290.381597	16190.991859	3252.243741	9081.905282
23.534500	-0.002556	-0.001670	-0.012264	0.000346	4289.411611	16156.360195	3255.104411	9100.448903
24.035000	0.000501	0.001803	-0.009539	0.001694	4294.399690	16220.531377	3256.017120	9081.573251
24.538000	-0.003093	0.000108	-0.006655	0.000728	4286.737576	16198.489038	3258.583951	9095.092838
25.035500	0.003375	-0.000694	-0.007573	0.000780	4305.524399	16172.721079	3257.935250	9094.369882
25.535500	-0.003477	-0.002096	-0.010151	0.000056	4287.574851	16152.256809	3256.698423	9104.518905
26.036500	0.003256	0.001549	-0.008565	0.002387	4300.444765	16191.910945	3256.203372	9071.884640
26.536500	0.002930	-0.000848	0.001509	0.000951	4303.708490	16162.919977	3263.951721	9091.971161
27.037000	-0.001031	-0.000912	0.005512	-0.000826	4297.292506	16214.622668	3267.920665	9116.915943
27.537000	0.001876	0.001466	0.004253	-0.000977	4306.283856	16291.329268	3267.156046	9119.037860
28.037000	-0.002495	-0.001530	-0.009736	0.004210	4278.382607	16044.697815	3254.221224	9046.476438
28.535000	0.000589	-0.001639	0.003697	-0.001586	4304.288199	16215.635487	3267.192935	9127.626782
29.035000	-0.002750	-0.000386	0.000828	-0.001031	4292.861556	16236.745337	3264.840468	9119.802089
29.535500	0.002433	-0.000819	0.011479	-0.000956	4307.868533	16221.388207	3272.165667	9118.750861
30.036000	-0.005805	-0.001164	-0.015702	0.005349	4265.601875	16021.659649	3249.572095	9030.653304
30.536000	0.003470	0.000322	-0.012623	0.002100	4301.915457	16163.549792	3253.709424	9075.890028
31.036000	0.000071	-0.000520	0.007426	0.001385	4294.043851	16159.708394	3267.715563	9085.884947
31.536500	0.001389	-0.000355	0.004263	-0.001293	4305.782113	16245.633816	3267.380772	9123.494304
32.037000	-0.000037	-0.001351	-0.015296	0.003801	4286.687080	16062.273338	3250.842660	9052.160051
32.536500	0.001895	0.000562	-0.010246	-0.000558	4305.107342	16251.168567	3257.044558	9113.154722
33.038500	0.004174	0.000685	-0.009184	-0.000466	4311.574414	16252.101752	3257.691675	9111.861617
33.535000	0.000173	-0.000883	0.002012	0.002194	4291.982481	16124.463451	3263.447960	9074.582694
34.038000	-0.005144	0.000117	-0.000429	0.002916	4274.476226	16132.801896	3261.301196	9064.496507
34.535500	-0.003269	-0.000197	-0.004711	0.001574	4283.767831	16163.736231	3259.320545	9083.241432
35.035500	-0.001276	-0.000922	-0.016650	0.000838	4291.710882	16164.097500	3251.894594	9093.558666
35.536500	0.003978	-0.000050	-0.002094	0.001200	4306.064482	16179.467429	3261.336054	9088.479824
36.036500	0.001546	-0.001729	-0.010712	0.001171	4298.990872	16129.762323	3255.585484	9088.881159
36.536000	0.002251	-0.000926	-0.003677	0.000466	4303.137575	16175.167477	3260.762044	9098.762765
37.037000	0.001623	-0.000113	-0.002119	0.000922	4299.950137	16185.956166	3261.506900	9092.378514
37.537500	0.001202	-0.000763	-0.003596	0.001297	4297.612277	16155.053490	3260.256475	9087.120119
38.035000	-0.005054	-0.000103	-0.003173	0.000980	4280.320455	16184.489261	3260.755726	9091.560501
38.535500	0.000865	-0.001667	-0.000438	0.000192	4299.865896	16161.099566	3263.142690	9102.608153
39.035500	-0.000624	-0.000298	0.012468	0.001083	4292.897525	16175.505493	3271.430260	9090.116179
39.536000	0.001816	0.000237	-0.011284	0.001404	4299.100361	16181.951859	3255.052494	9085.623999
40.035500	-0.000623	0.000385	-0.016836	0.002105	4289.919777	16165.308752	3250.945444	9075.824902
40.536000	0.002709	-0.001455	-0.000734	0.000660	4303.916302	16153.390752	3262.623299	9096.050757
41.036500	-0.003691	-0.000830	-0.002428	0.000329	4286.160238	16182.212090	3261.699539	9100.694063
41.537000	0.001942	0.000582	0.003405	0.001337	4299.665940	16194.401618	3264.983738	9086.557310
42.037000	0.000558	0.002458	-0.006621	0.004092	4287.570948	16167.871991	3256.361825	9048.111709
42.534500	-0.004070	-0.000431	-0.025426	0.001466	4281.761404	16159.954124	3245.806376	9084.758189
43.035000	0.000629	0.000855	0.007641	0.002159	4293.415622	16177.839353	3267.329750	9075.067111
43.541000	0.004239	0.000533	0.000851	0.001964	4304.581537	16173.993562	3262.814286	9077.788354
44.035500	0.002386	-0.000381	-0.000751	0.003121	4295.738116	16111.690984	3260.945215	9061.636442
44.534500	-0.000214	-0.000956	0.003483	-0.001053	4300.354891	16220.169650	3266.677899	9120.117363
45.035500	0.001034	0.001313	-0.006095	0.001180	4297.467016	16221.273436	3258.656748	9088.767244
45.536000	-0.003730	0.000035	0.001628	0.001784	4281.825832	16164.423156	3263.465311	9080.308299
46.036500	-0.000763	-0.000906	-0.004914	0.004674	4282.046688	16049.463590	3257.110745	9040.021165
46.537000	0.000810	-0.000839	0.011176	-0.001149	4303.650484	16226.593476	3272.088273	9121.460464
47.037500	0.001641	0.000912	-0.003443	0.002201	4296.249740	16178.274708	3259.750838	9074.473110
47.537500	0.001443	-0.000875	-0.004271	0.002801	4293.918897	16106.480571	3258.793115	9066.108681
48.035000	0.003022	0.000614	0.004148	-0.000171	4307.292925	16241.006598	3266.528914	9107.716835
48.535500	-0.000693	-0.000396	-0.011962	-0.000977	4298.728019	16234.822807	3256.181666	9119.048178
49.035500	0.000328	0.001673	-0.002108	-0.000020	4298.915079	16268.551150	3262.152744	9105.591488
49.536000	0.003497	0.000905	-0.000372	0.002289	4301.438912	16175.430693	3261.764005	9073.250661
50.036000	0.002623	0.003410	-0.013806	0.002874	4297.158856	16233.458204	3252.423521	9065.087621
50.536500	0.004210	-0.000724	0.007327	-0.002089	4316.499103	16258.590709	3270.056240	9134.715192
51.036000	-0.068168	-0.035849	-0.006201	0.331298	3531.999854	8720.053697	3103.720909	5850.771539
51.537000	-0.039544	-0.028356	-0.029187	0.076888	3998.409168	13389.664331	3199.454463	8115.796372
52.037500	0.001519	-0.008806	-0.004656	-0.196122	5031.827211	23302.684892	3427.499935	12586.368810
52.534500	0.027486	-0.004497	0.012869	-0.166168	5013.479827	22143.000102	3414.527398	11947.909440
53.038000	0.017442	-0.012146	0.027887	-0.062294	4554.548778	17825.420629	3331.852932	10045.907191
53.535500	0.006377	-0.016877	0.023527	-0.002665	4324.685540	15794.216615	3281.964381	9142.843488
54.036000	0.017203	-0.013704	0.022767	0.009833	4319.688665	15524.102137	3272.515932	8968.785666
54.535500	0.029200	-0.010452	0.032634	0.013301	4345.377651	15517.910217	3277.040038	8921.357873
55.036000	0.045006	-0.007446	0.044524	0.038530	4317.022635	14897.387125	3267.682805	8587.559069
55.537000	0.064023	0.002085	0.053785	0.044653	4355.978284	14990.516187	3269.858867	8509.436251
56.036000	0.082744	0.010611	0.078249	0.093456	4266.862927	13935.406905	3253.390556	7924.558208
56.537500	0.105704	0.020256	0.086086	0.128932	4231.568395	13308.500710	3235.775276	7538.814195
57.037500	0.124224	0.029012	0.134073	0.151025	4221.679194	12999.112740	3252.245462	7314.035409
57.540500	0.146998	0.043840	0.146338	0.199552	4152.744522	12258.414468	3229.451367	6858.667675
58.035000	0.173994	0.060062	0.163243	0.234262	4132.879113	11875.824726	3218.937162	6562.796695
58.535500	0.195117	0.071768	0.206119	0.259902	4121.409731	11598.044007	3229.109140	6358.935771
59.036000	0.211754	0.086850	0.207518	0.300083	4063.520269	11119.605463	3206.776959	6062.704936
59.536000	0.234842	0.102457	0.231068	0.320432	4070.095743	11032.287971	3208.545949	5922.823638
60.036500	0.233724	0.106493	0.238897	0.342793	4015.063226	10703.665054	3200.620592	5776.483729
60.536500	0.250518	0.111702	0.241969	0.361494	4010.721162	10470.420281	3192.387487	5659.751162
61.035500	0.256169	0.118552	0.269552	0.368652	4007.306396	10465.180040	3203.206806	5616.386177
61.534500	0.272880	0.127433	0.274871	0.365780	4052.642059	10667.821718	3207.690718	5633.700375
62.034500	0.267474	0.126747	0.278492	0.358575	4056.909665	10782.579903	3213.747985	5677.640383
62.535000	0.265836	0.127874	0.254290	0.359082	4051.822472	10793.585372	3200.140345	5674.524871
63.035500	0.266406	0.128313	0.280332	0.356165	4060.104119	10853.443565	3216.167776	5692.502619
63.540500	0.270645	0.132297	0.273195	0.359627	4061.959802	10862.794170	3210.177608	5671.180237
64.038500	0.274661	0.134230	0.277457	0.361868	4066.208978	10857.281282	3211.308501	5657.465876
64.539000	0.276420	0.135767	0.298659	0.364404	4064.347613	10839.401197	3222.007083	5642.033643
65.036000	0.269899	0.135617	0.270472	0.367128	4042.443216	10788.220306	3204.536054	5625.556376
65.537000	0.280262	0.133879	0.285319	0.367815	4065.378570	10745.281344	3212.384930	5621.416169
66.036500	0.279326	0.137179	0.299250	0.376302	4043.036068	10654.257918	3215.471600	5570.818598
66.534000	0.280508	0.135897	0.302055	0.375941	4046.660326	10638.198226	3217.284468	5572.949299
67.040500	0.286972	0.139699	0.291611	0.381434	4048.947789	10608.822313	3208.291702	5540.696518
67.535500	0.283741	0.141007	0.294596	0.385425	4032.052717	10562.452754	3207.734974	5517.521560
68.035500	0.287010	0.141591	0.299247	0.389815	4029.456452	10497.151949	3207.879226	5492.270136
68.538500	0.286334	0.143262	0.294519	0.388501	4030.933171	10548.317350	3205.998879	5499.800672
69.035000	0.288641	0.143407	0.294533	0.390283	4032.151436	10520.214010	3205.030726	5489.592389
69.536500	0.290959	0.144631	0.294862	0.393019	4031.179720	10494.339466	3203.718314	5473.996367
70.035500	0.286611	0.143696	0.288387	0.387344	4034.261325	10575.730633	3203.284268	5506.449032
70.537000	0.296827	0.147900	0.301767	0.387621	4057.641701	10643.835040	3210.500676	5504.858519
71.037500	0.296642	0.149620	0.302884	0.388636	4054.788955	10656.118668	3210.557103	5499.022818
71.535000	0.292367	0.151539	0.306408	0.387620	4047.083609	10707.497259	3213.109423	5504.859000
72.035000	0.293791	0.147836	0.305839	0.385795	4054.766178	10674.591853	3213.820558	5515.381984
72.535000	0.295931	0.150668	0.307239	0.384659	4062.565747	10744.305824	3215.261231	5521.949339
73.035500	0.299076	0.151789	0.301741	0.383333	4073.310059	10787.625923	3212.894854	5529.641557
73.536000	0.293399	0.151549	0.305434	0.385018	4055.679246	10753.539314	3214.031685	5519.875761
74.036000	0.299179	0.153229	0.299907	0.385438	4068.485670	10775.840548	3210.680922	5517.443954
74.536500	0.296923	0.153173	0.291688	0.383493	4067.736342	10809.376556	3207.195822	5528.710622
75.036500	0.299155	0.153249	0.312996	0.383180	4073.869808	10816.308850	3219.420714	5530.530410
75.537000	0.298630	0.153984	0.301474	0.383224	4072.496549	10828.623971	3212.805669	5530.274304
76.034500	0.294093	0.155465	0.305535	0.385636	4055.858599	10812.033856	3213.738139	5516.298301
76.540500	0.300372	0.157158	0.310273	0.385875	4070.303061	10837.961539	3216.299857	5514.916699
77.034500	0.301783	0.155296	0.309492	0.383466	4079.546147	10847.765479	3217.234204	5528.872517
77.535500	0.299341	0.153637	0.294094	0.382479	4076.016259	10835.741534	3209.089233	5534.606637
78.035500	0.302180	0.156971	0.301540	0.387905	4069.772266	10798.462915	3210.214945	5503.225440
78.535500	0.300910	0.159135	0.312017	0.387326	4068.109820	10847.386576	3216.467933	5506.555517
79.036500	0.304369	0.160592	0.317972	0.390462	4068.885483	10817.409285	3218.088093	5488.568084
79.536500	0.297312	0.155799	0.299335	0.386109	4062.403737	10809.577936	3209.986845	5513.570170
80.036500	0.301857	0.156101	0.302693	0.389978	4064.017911	10746.326682	3209.701716	5491.333487
80.537000	0.304143	0.157009	0.320905	0.390769	4067.604816	10748.395112	3219.606519	5486.814926
81.037000	0.307010	0.158299	0.306207	0.392693	4069.869453	10737.192163	3210.147329	5475.849784
81.537500	0.297017	0.153372	0.311925	0.392301	4047.012263	10657.652077	3213.582389	5478.082096
82.035000	0.305108	0.160190	0.295812	0.396486	4056.250853	10703.732639	3202.354501	5454.378774
82.535500	0.304353	0.159253	0.313586	0.397850	4051.227495	10663.432172	3211.390473	5446.703671
83.035500	0.299329	0.156318	0.317798	0.397107	4041.155978	10625.236884	3214.186902	5450.881510
83.536000	0.296036	0.155573	0.302766	0.400804	4024.922930	10548.456969	3203.783450	5430.165853
84.036500	0.307607	0.156869	0.332769	0.402215	4048.603808	10546.473080	3219.849199	5422.304973
84.536500	0.306747	0.154872	0.320607	0.402340	4046.285761	10510.084690	3212.815137	5421.611194
85.037000	0.303195	0.155298	0.333743	0.403641	4034.929426	10495.113531	3219.586982	5414.387331
85.537000	0.304412	0.158190	0.323389	0.410142	4022.708591	10433.732310	3209.998413	5378.616802
86.037500	0.307660	0.156660	0.320838	0.409393	4031.937843	10420.508741	3208.995091	5382.708549
86.535000	0.303568	0.155527	0.302755	0.409324	4022.647819	10402.553400	3199.191195	5383.085611
87.035500	0.303947	0.158792	0.321745	0.414184	4012.402334	10375.713333	3206.846830	5356.643594
87.535500	0.307159	0.154847	0.315485	0.411509	4025.886493	10354.403731	3204.880983	5371.164115
88.036000	0.304295	0.156454	0.307463	0.417497	4005.680512	10281.371554	3197.351801	5338.789117
88.538500	0.300732	0.155917	0.290838	0.417142	3998.458725	10278.357818	3188.907431	5340.694034
89.036500	0.303706	0.156815	0.316824	0.418674	4001.695275	10267.849319	3201.720156	5332.473330
89.537000	0.301145	0.155434	0.303231	0.419839	3993.350039	10225.834021	3193.901714	5326.246819
90.037000	0.298572	0.154673	0.304587	0.420404	3986.372627	10204.031057	3194.313811	5323.228229
90.540000	0.301563	0.153637	0.301338	0.420442	3992.935354	10186.431382	3192.605224	5323.024342
91.035000	0.297900	0.154388	0.320466	0.421634	3982.168413	10179.228419	3202.088307	5316.679677
91.535000	0.298193	0.153425	0.302288	0.425606	3974.090081	10098.985148	3190.433518	5295.649075
92.035500	0.306275	0.155575	0.297592	0.427967	3986.680541	10095.565831	3186.843156	5283.237358
92.537500	0.299514	0.152979	0.304794	0.425673	3976.835116	10090.702881	3191.687782	5295.295147
93.036000	0.311941	0.156225	0.310340	0.429523	3995.834247	10080.964218	3192.564651	5275.099675
93.536500	0.299940	0.155501	0.301918	0.431692	3964.649460	10034.469011	3187.147220	5263.799287
94.039500	0.308546	0.152296	0.310158	0.428676	3990.149903	10031.443538	3192.909133	5279.525859
94.537000	0.305692	0.152578	0.302741	0.428777	3983.600714	10034.324778	3189.043867	5278.996891
95.034000	0.310141	0.154520	0.317478	0.432012	3986.284680	10013.648854	3194.984219	5262.134023
95.537500	0.307793	0.153903	0.328254	0.432511	3980.000815	9995.863656	3200.426748	5259.545645
96.035000	0.306859	0.154253	0.285904	0.435792	3970.771909	9949.329245	3177.215598	5242.592714
