sample name	sample
index	1454
start time	 05-10-2021  01:35:09 PM
880	0.368290
Peak Time (s)	92.538
Peak Height 	0.3683
calc peak height	90,93
Baseline Time (s)	11.04
Baseline Value 	-0.003981
subtract baseline	10,4
Abs	0.259428
Peak Time (s)	91.537
Peak Height 	0.2594
calc peak height	90,93
Baseline Time (s)	9.537
Baseline Value 	0.001859
subtract baseline	10,3
PK_550	0.137748
Peak Time (s)	91.037
Peak Height 	0.1377
calc peak height	90,93
Baseline Time (s)	10.037
Baseline Value 	4.7089E-4
subtract baseline	10,2
PK_880	0.237488
Peak Time (s)	91.037
Peak Height 	0.2375
calc peak height	90,93
Baseline Time (s)	10.537
Baseline Value 	0.001732
subtract baseline	10,1


Time (s)	A880-A510	A880-A775	A880-A975	A880	I510	I775	I975	I880	
0.039500	-0.000520	-0.000455	-0.005555	0.002073	6481.270298	43894.052406	3934.015900	22595.984929
0.536500	-0.001475	-0.000127	-0.006792	0.003732	6459.488829	43768.795171	3926.583786	22520.756859
1.037000	-0.001298	-0.000477	-0.005659	0.003275	6464.756660	43778.759348	3930.656942	22541.438581
1.542000	-0.002954	0.000222	-0.004967	0.004941	6437.219155	43687.957645	3928.160292	22466.098703
2.040500	0.000487	0.000155	-0.002620	0.000840	6500.051488	44068.252931	3944.807109	22652.123594
2.535000	0.002794	0.000460	0.001713	0.000858	6519.335311	44095.402412	3956.085261	22651.304077
3.035500	0.000684	-0.000037	-0.001343	-0.002197	6527.329401	44338.519808	3956.083540	22791.025435
3.535500	-0.002570	-0.000154	-0.006548	0.005311	6437.333832	43618.029714	3923.172464	22449.388373
4.039000	-0.000045	-0.000107	0.000267	0.001238	6492.239370	44005.769774	3951.298043	22633.980942
4.536500	-0.001300	-0.000694	-0.002304	0.000144	6490.887604	44053.662598	3947.441866	22683.849210
5.036500	-0.000059	-0.000121	-0.003077	0.000460	6498.654267	44078.072930	3944.605759	22669.441551
5.536500	-0.002129	0.000010	0.002047	0.004999	6443.558013	43662.707293	3946.129970	22463.481538
6.037500	0.000415	0.000332	-0.004475	0.000409	6503.069900	44125.861255	3941.110142	22671.783478
6.535000	-0.000473	-0.000246	-0.004554	-0.000048	6499.445444	44114.387784	3942.089416	22692.631006
7.035000	-0.001540	0.000651	-0.003316	-0.000018	6490.239217	44196.618862	3945.226884	22691.259272
7.535000	0.001122	-0.000494	0.000527	-0.000262	6514.678910	44111.156535	3955.912314	22702.411032
8.035500	0.000066	-0.000092	-0.001886	-0.000450	6507.360530	44167.131895	3950.083680	22711.011173
8.536000	-0.001802	0.000483	0.001472	0.000453	6484.093843	44135.945092	3956.515175	22669.754450
9.036000	0.001228	-0.000651	0.000759	-0.000610	6518.506978	44129.246607	3957.434872	22718.304798
9.536500	-0.000456	0.001140	0.000000	0.000564	6494.444222	44187.733642	3952.362594	22664.682435
10.036500	0.000195	0.000000	0.000046	-0.000352	6507.618936	44166.525683	3954.884945	22706.509820
10.537000	0.000000	-0.000301	-0.002336	-0.000223	6504.888428	44125.737493	3948.313933	22700.606587
11.040000	-0.001561	-0.000147	-0.002674	0.000000	6489.910354	44119.157606	3946.852449	22690.438524
11.535000	0.000072	0.000552	-0.001382	0.000214	6501.823621	44165.173805	3949.664060	22680.670077
12.034500	-0.000592	0.000590	-0.002773	-0.000027	6498.268090	44191.662656	3946.663649	22691.658865
12.535500	-0.000497	0.000145	0.000358	0.000242	6496.804612	44123.932573	3954.145045	22679.377003
13.035500	0.002293	-0.000554	-0.001284	-0.000721	6528.449243	44148.907826	3952.365228	22723.373468
13.535500	0.001242	-0.000141	-0.001446	-0.000261	6515.675824	44144.447637	3950.737855	22702.344615
14.036000	-0.000881	0.000205	-0.005975	0.002251	6476.769485	43939.511943	3932.476954	22587.904911
14.537000	-0.001842	0.000328	-0.001273	0.002264	6468.641103	43949.834057	3944.605536	22587.301011
15.039500	-0.000251	-0.000042	-0.001013	-0.000079	6501.570008	44136.666753	3951.394664	22694.047626
15.537500	-0.004469	-0.000197	-0.000922	0.005328	6421.544867	43612.452537	3937.573952	22448.631423
16.037000	-0.001280	0.000040	0.000925	-0.000270	6494.534837	44162.593611	3956.978965	22702.787582
16.535000	-0.002076	-0.000297	-0.001380	0.000059	6485.107507	44099.415362	3950.075865	22687.766521
17.035000	0.001417	0.001037	0.002898	-0.002348	6534.821007	44455.478809	3967.677100	22797.955318
17.536000	-0.000749	-0.000079	0.001991	0.002538	6475.480715	43885.679464	3952.408503	22574.891218
18.035500	0.000324	-0.000226	0.000440	0.000552	6501.103394	44059.410888	3953.547658	22665.253547
18.536000	-0.000456	0.000211	-0.001302	0.001159	6489.458020	44043.365844	3947.407300	22637.594467
19.039000	0.001122	0.000364	-0.002609	0.001052	6503.605043	44067.926910	3944.283518	22642.443767
19.536500	-0.000547	0.000909	-0.002519	0.001950	6482.068689	44034.520560	3942.184229	22601.571713
20.037500	0.000329	0.000232	-0.003013	0.001488	6493.277046	44014.125247	3942.100536	22622.590430
20.537000	-0.000656	0.000245	-0.004098	0.001204	6487.406235	44042.247154	3940.025158	22635.538041
21.037500	-0.001924	0.000538	-0.001501	0.001466	6474.620267	44045.228992	3946.090757	22623.626437
21.535500	-0.001523	-0.000099	-0.001494	0.000930	6482.441278	44035.670470	3947.504747	22648.006338
22.037500	-0.001327	-0.000392	-0.001477	0.000916	6484.199725	44009.238732	3947.585067	22648.641430
22.536000	-0.000264	-0.000025	-0.005598	0.000909	6493.167952	44044.703549	3936.911049	22648.987957
23.036000	0.000446	0.000209	-0.001303	0.001419	6494.838897	44018.582158	3946.727133	22625.746612
23.538000	-0.000277	0.000358	-0.002588	0.001290	6489.860106	44044.799680	3943.719646	22631.606105
24.036500	-0.001821	-0.000706	-0.000193	0.000362	6484.696873	44031.947360	3952.387313	22673.902661
24.537000	-0.000458	0.000088	-0.005039	0.001130	6489.680210	44034.444076	3937.781998	22638.903701
25.037000	-0.000326	0.000709	-0.004274	0.001576	6487.049605	44050.966589	3938.606348	22618.584171
25.537500	-0.001613	-0.000642	-0.002756	0.000102	6488.618175	44062.597349	3946.372581	22685.761528
26.038000	-0.002198	0.000710	-0.000904	0.001453	6472.437006	44062.754179	3947.678830	22624.198633
26.535500	-0.000288	0.000163	-0.000101	0.001377	6489.035330	44018.145101	3949.971498	22627.649696
27.035500	-0.000049	-0.000171	0.002138	-0.001927	6518.840041	44299.997235	3964.547447	22778.619400
27.536000	-0.003068	0.000612	-0.002127	0.005276	6433.505912	43693.100438	3934.598931	22450.971998
28.044500	-0.001120	0.000348	0.000435	-0.000585	6498.513947	44221.669646	3956.517051	22717.152707
28.536500	0.001170	0.000094	0.001911	-0.000087	6513.598841	44150.309728	3959.092524	22694.410818
29.036500	0.000456	0.000832	-0.000419	0.000288	6504.431301	44184.758120	3951.988659	22677.291571
29.537000	0.000137	0.000285	-0.002432	0.000023	6503.978027	44158.013854	3947.423309	22689.410033
30.037000	0.001997	0.000629	0.002783	0.000154	6518.545863	44178.180558	3960.752654	22683.388012
30.535000	0.000282	0.000240	0.001282	0.003045	6479.855043	43867.962985	3949.229722	22551.887090
31.035000	-0.001548	0.000322	-0.002250	0.002389	6470.048749	43937.495095	3941.744108	22581.636530
31.535000	-0.003560	0.000722	-0.001436	0.005390	6428.516350	43692.725545	3936.086475	22445.829955
32.036000	-0.000086	-0.000621	-0.000611	-0.000140	6503.467539	44087.520159	3952.608734	22696.839440
32.536000	-0.000199	0.000243	-0.001723	0.000788	6494.721354	44081.494188	3947.278145	22654.491932
33.036500	0.002246	0.000103	-0.000236	0.000508	6517.657548	44094.705160	3951.891057	22667.238774
33.536500	-0.000077	0.000012	0.002329	0.001309	6491.379465	44010.301337	3956.519909	22630.761084
34.036500	-0.000405	-0.000107	-0.000306	0.001934	6483.399259	43939.952168	3947.984323	22602.311425
34.537000	0.001851	0.001255	0.003614	0.003089	6492.625744	43959.566274	3955.218306	22549.898641
35.034500	0.000676	0.000909	0.000439	0.002502	6487.697696	43982.341590	3948.446014	22576.534042
35.535000	0.000941	0.001295	-0.000022	0.002507	6489.865047	44018.298086	3947.228794	22576.267016
36.035000	-0.000024	0.000404	0.001885	0.002040	6485.698135	43978.281380	3953.436544	22597.508210
36.535500	-0.001758	0.000035	-0.002437	0.001668	6474.314823	43978.602458	3943.130385	22614.427122
37.035500	-0.001314	0.000036	-0.002302	0.001765	6477.208084	43969.495715	3943.227677	22610.003345
37.536000	0.001189	-0.000179	0.003839	0.001451	6500.811143	43978.758557	3960.117415	22624.274856
38.036000	-0.000845	0.000535	0.002647	0.002151	6477.907016	43980.182669	3955.142273	22592.462759
38.536500	0.000899	-0.000142	0.001906	0.001672	6496.516857	43961.394302	3954.452707	22614.215805
39.039500	-0.001056	0.000196	0.002816	0.001740	6479.573958	43986.948172	3956.665141	22611.143972
39.537000	0.000389	-0.000165	0.002645	0.001487	6493.793611	43976.747989	3956.882723	22622.668189
40.034500	-0.001187	0.000511	0.001121	0.002100	6475.470635	43982.699692	3951.276026	22594.764619
40.535000	-0.001733	-0.000037	-0.001105	0.001405	6476.724078	43996.675757	3947.281829	22626.399813
41.035500	0.001329	-0.000525	-0.000287	0.001319	6503.097668	43958.642372	3949.638515	22630.293661
41.535500	-0.000603	0.000163	-0.003231	0.001862	6482.339645	43972.275350	3940.565653	22605.580499
42.035500	-0.000976	0.000419	-0.000465	0.001988	6478.168584	43984.601549	3947.426838	22599.853116
42.536500	-0.000055	-0.000291	-0.002555	0.001755	6487.821760	43939.562919	3942.597463	22610.451094
43.036000	-0.000288	-0.000184	0.001338	0.001411	6488.761460	43982.178662	3953.651647	22626.130381
43.536500	-0.000091	0.000190	0.000965	0.001392	6490.563682	44019.271482	3952.720296	22626.960515
44.037000	0.001036	-0.000069	-0.000115	-0.002667	6534.295202	44380.335703	3960.551442	22812.600676
44.537500	0.000236	0.000551	-0.000926	0.000556	6500.330794	44132.708552	3949.962564	22665.085634
45.037500	-0.001253	0.000430	0.001108	-0.000143	6493.688075	44187.476633	3957.123974	22696.950827
45.538000	0.000045	0.000141	0.001613	0.001093	6494.217981	44042.941000	3955.206136	22640.605030
46.035000	-0.001663	0.000340	0.003389	0.000182	6487.534549	44148.096223	3962.281219	22682.133982
46.535500	0.000258	0.000261	-0.001120	0.000165	6503.795562	44142.209413	3950.475724	22682.898333
47.044500	0.001176	0.000851	0.002234	0.000821	6506.003231	44135.975085	3957.551323	22652.976199
47.536000	-0.000043	0.000768	-0.002268	0.003239	6475.522761	43899.487546	3939.496368	22543.090670
48.036500	-0.000662	0.000833	-0.000692	0.001169	6487.647744	44101.324561	3948.973736	22637.130595
48.539500	-0.000302	0.000381	-0.001281	0.000452	6496.673927	44126.415922	3949.306427	22669.791179
49.037000	-0.001780	-0.000271	0.000636	-0.000369	6491.165872	44142.409567	3956.477752	22707.278410
49.534500	0.000740	0.001055	-0.002011	0.002188	6490.864234	44025.844411	3942.886500	22590.787957
50.037500	-0.000603	-0.000375	0.000520	-0.001654	6511.863913	44254.601878	3959.554059	22766.090850
50.535000	-0.000767	0.000187	0.001753	0.002666	6474.259782	43898.649100	3951.450109	22569.069204
51.035000	0.009771	0.000732	0.012427	0.083720	5931.137324	36968.000080	3781.469797	19213.261460
51.536000	-0.007842	-0.022381	0.001527	0.086135	5792.292706	35025.529613	3752.297690	19122.586836
52.035500	-0.017289	-0.070698	-0.042254	-0.240607	8958.733159	63856.337556	4612.958339	37370.810915
52.536000	-0.015395	-0.110861	-0.033085	-0.292576	9765.294023	65535.000000	4884.703101	41757.855827
53.036500	-0.008083	-0.056312	-0.021994	-0.218938	8785.933225	62843.363452	4607.133992	35691.070279
53.536500	-0.001265	-0.034080	-0.005650	-0.156765	8075.615035	57579.928618	4427.680580	31311.696857
54.037000	0.000572	-0.023809	0.003998	-0.097662	7430.111100	51768.944624	4254.136794	27691.404050
54.540500	-0.000853	-0.017668	0.001991	-0.102101	7462.001884	52973.150656	4262.214304	27946.532021
55.040500	0.006178	-0.021299	0.005136	-0.139788	7962.152379	57054.535122	4404.855983	30220.882028
55.535500	0.022348	-0.014362	0.019447	-0.127593	8009.166251	56403.310808	4412.620856	29463.250913
56.035500	0.035725	0.000704	0.044373	-0.039159	7190.385590	48093.096091	4195.311972	24561.733956
56.538500	0.049054	0.009138	0.061637	0.027780	6686.394181	42402.341677	4046.154125	21461.568708
57.035500	0.066012	0.020077	0.072266	0.074351	6433.550973	39293.875352	3948.387108	19569.926532
57.536000	0.078580	0.031255	0.090953	0.131476	6084.160241	35644.269135	3852.410272	17510.213927
58.039500	0.095378	0.039084	0.111046	0.155987	6027.232811	34411.804342	3841.911318	16706.165966
58.537500	0.111393	0.048243	0.124952	0.188507	5908.770513	32763.683450	3798.839025	15707.120272
59.037000	0.127671	0.060043	0.137556	0.211502	5861.833274	32004.750948	3775.586991	15044.508984
59.534500	0.140053	0.066620	0.152819	0.231304	5810.816626	31132.996595	3765.601645	14501.334396
60.035000	0.154799	0.074778	0.171037	0.266586	5674.089309	29426.106666	3728.987130	13592.873897
60.535500	0.159659	0.079211	0.184931	0.285320	5585.308694	28568.124526	3718.858359	13139.661381
61.035500	0.172892	0.089169	0.194642	0.305041	5544.752755	27998.433818	3698.270828	12683.237095
61.536000	0.181586	0.094119	0.201464	0.312427	5552.880000	27858.229503	3697.124684	12517.550561
62.039000	0.183742	0.097529	0.206317	0.313082	5562.238356	28016.795363	3705.690927	12502.999658
62.536500	0.183905	0.100777	0.202975	0.312087	5569.481487	28263.053352	3700.892434	12525.129436
63.036500	0.190274	0.104677	0.210537	0.311764	5611.696365	28510.454312	3717.115809	12532.308177
63.537000	0.194350	0.106901	0.214027	0.310286	5647.240163	28729.304822	3727.492149	12565.283645
64.038000	0.195796	0.109581	0.214456	0.311108	5651.261863	28839.922999	3726.668023	12546.939245
64.537500	0.199245	0.111096	0.219133	0.311820	5668.963725	28887.828128	3735.026289	12531.055590
65.035000	0.203469	0.114205	0.218117	0.314478	5679.156146	28914.845644	3727.279972	12472.053279
65.536000	0.207850	0.116690	0.225208	0.318047	5684.445864	28850.044886	3734.705476	12393.365727
66.035500	0.207177	0.118445	0.222609	0.321049	5660.565474	28775.751487	3722.923563	12327.686361
66.536000	0.207879	0.119724	0.225086	0.324351	5643.794121	28655.712063	3721.201670	12255.965812
67.036000	0.211497	0.120542	0.225624	0.324913	5663.513035	28670.838130	3721.150958	12243.804876
67.537000	0.210446	0.121520	0.227858	0.326293	5647.815525	28647.047212	3722.933099	12214.033088
68.037000	0.213618	0.122950	0.235365	0.327937	5657.673104	28634.364284	3735.270845	12178.678994
68.537000	0.218558	0.125726	0.229972	0.331381	5667.362496	28594.899040	3716.740446	12105.067787
69.034500	0.216397	0.125803	0.235283	0.331920	5649.901451	28567.601774	3726.698973	12093.584928
69.535500	0.221520	0.126735	0.233291	0.334269	5667.842401	28484.119582	3717.633927	12043.775561
70.035000	0.223187	0.128245	0.235884	0.337377	5658.505587	28390.317328	3716.564642	11978.269608
70.536000	0.221745	0.128185	0.239442	0.338505	5641.935524	28320.774122	3721.622185	11954.614715
71.036000	0.223124	0.128697	0.240219	0.339401	5645.042327	28298.359105	3721.373876	11935.865879
71.535500	0.225768	0.131655	0.240407	0.343187	5637.702899	28250.052093	3713.897282	11857.076412
72.039500	0.224758	0.131147	0.242600	0.341417	5642.585689	28323.681437	3722.135189	11893.822396
72.537000	0.227291	0.132299	0.240004	0.342320	5653.086319	28338.293413	3714.858981	11875.059995
73.041500	0.227461	0.132507	0.244373	0.343452	5646.886942	28284.281911	3721.587706	11851.593707
73.535000	0.230498	0.133547	0.241424	0.345482	5653.379460	28226.604500	3711.257877	11809.653400
74.034500	0.230474	0.134502	0.247103	0.345655	5652.110503	28272.209405	3722.689146	11806.097661
74.535000	0.228342	0.132905	0.239304	0.343705	5650.927121	28292.767628	3710.548928	11846.345057
75.035500	0.230298	0.134802	0.246100	0.344942	5655.576802	28331.342240	3722.082825	11820.796377
75.536000	0.230182	0.134529	0.246598	0.344441	5658.060318	28344.685085	3724.171131	11831.136203
76.035500	0.233571	0.136327	0.244251	0.345277	5674.614867	28401.037260	3717.534672	11813.888092
76.539500	0.228736	0.134535	0.248188	0.343422	5655.300213	28404.680041	3729.647846	11852.216739
77.041500	0.231608	0.136141	0.246095	0.344768	5665.176617	28419.945251	3722.438048	11824.391616
77.536500	0.231606	0.136867	0.251131	0.345631	5659.575626	28411.922976	3731.194160	11806.585416
78.042000	0.233262	0.135990	0.249316	0.344418	5678.198857	28431.649455	3729.927794	11831.619267
78.535000	0.232375	0.136876	0.248814	0.345074	5668.165285	28445.113699	3727.490497	11818.066862
79.035500	0.230879	0.137013	0.247345	0.345776	5653.934860	28411.933395	3722.941672	11803.592335
79.535000	0.234609	0.138342	0.253519	0.347681	5665.746741	28378.162571	3731.906861	11764.440833
80.036000	0.234643	0.137675	0.243927	0.347197	5669.108344	28367.508173	3712.884045	11774.378630
80.536000	0.232235	0.137789	0.256287	0.347285	5652.952521	28369.000641	3738.612365	11772.576622
81.039000	0.235840	0.137929	0.248964	0.347967	5671.876848	28337.257120	3721.745780	11758.573848
81.537000	0.233899	0.139579	0.251482	0.349696	5648.131047	28332.670863	3723.394119	11723.213048
82.041500	0.232104	0.140160	0.246328	0.350338	5632.479882	28329.076129	3711.355927	11710.114677
82.537500	0.237198	0.138779	0.249569	0.349821	5668.660506	28278.637278	3719.143109	11720.668105
83.034500	0.233238	0.140030	0.253689	0.350485	5638.810538	28312.925048	3726.366506	11707.130830
83.534500	0.235237	0.141634	0.249673	0.352484	5638.811427	28289.864726	3713.834245	11666.492594
84.035500	0.238759	0.141402	0.252554	0.353016	5658.071583	28245.265590	3718.705622	11655.700536
84.535500	0.237377	0.140205	0.257325	0.352590	5651.899084	28200.407449	3729.582331	11664.332084
85.036000	0.236689	0.139054	0.248637	0.352654	5647.056314	28129.838717	3711.341502	11663.048724
85.536000	0.237722	0.139986	0.254665	0.354198	5643.761116	28094.373057	3720.641861	11631.793717
86.036500	0.235620	0.138984	0.248790	0.354018	5631.429557	28046.826121	3708.846951	11635.436149
86.537000	0.236431	0.140504	0.251175	0.355824	5625.067478	28030.273781	3710.040502	11599.021264
87.037000	0.236608	0.139693	0.250762	0.356795	5619.997924	27927.502718	3707.190797	11579.488891
87.540000	0.237150	0.138846	0.257378	0.356628	5624.520675	27888.436391	3721.231346	11582.838458
88.035000	0.234069	0.138613	0.252715	0.357290	5600.719536	27837.104326	3710.192948	11569.565621
88.535000	0.236473	0.138208	0.258535	0.357888	5612.178295	27779.636702	3721.017672	11557.567001
89.035500	0.234899	0.138398	0.254295	0.359934	5589.252526	27673.713291	3708.002151	11516.688210
89.535500	0.234468	0.137183	0.252270	0.360156	5585.133739	27592.015402	3703.393078	11512.254114
90.036000	0.234868	0.136962	0.254677	0.360480	5585.615817	27561.119354	3707.665037	11505.813642
90.536000	0.234121	0.136606	0.255239	0.362299	5569.502881	27438.143923	3705.085054	11469.666563
91.036500	0.237488	0.137748	0.254637	0.365885	5568.133229	27300.651309	3696.545561	11398.850837
91.536500	0.235809	0.137470	0.259428	0.365403	5560.650468	27312.031395	3707.311311	11408.328642
92.037500	0.235879	0.136221	0.250030	0.365816	5558.513651	27218.991231	3687.384341	11400.208708
92.537500	0.236550	0.136962	0.252437	0.368290	5547.296944	27122.293198	3687.251589	11351.692025
93.034500	0.236417	0.135881	0.257720	0.368822	5543.166842	27032.658032	3696.842412	11341.293122
93.557500	0.238801	0.137342	0.252510	0.371168	5543.400297	26983.635787	3681.636560	11295.591984
94.036000	0.237858	0.136144	0.253398	0.372156	5531.452741	26862.894825	3681.436777	11276.414203
94.535500	0.234630	0.136245	0.258735	0.373424	5503.843693	26798.715843	3689.590991	11251.880800
95.036000	0.236049	0.134022	0.253953	0.372954	5515.408482	26702.578830	3680.952623	11260.956247
95.536500	0.236415	0.134333	0.253029	0.374460	5508.422028	26637.276340	3676.121148	11231.866836
96.037500	0.236499	0.134861	0.256111	0.376288	5497.769764	26566.443422	3678.611791	11196.707394
