sample name	sample
index	629
start time	 03-19-2021  02:55:52 PM


Wavelength (nm)	Absorbance
494.344910	-0.469835
494.563924	-0.469835
494.782919	-0.469835
495.001897	NaN
495.220856	-0.210512
495.439797	-0.176593
495.658719	-0.008346
495.877624	0.206818
496.096510	0.134179
496.315378	0.100003
496.534227	0.196091
496.753059	0.069222
496.971872	-0.013382
497.190667	0.081418
497.409444	0.083707
497.628203	0.081764
497.846943	0.081702
498.065665	0.081129
498.284369	0.082329
498.503055	0.082355
498.721723	0.083594
498.940372	0.084128
499.159003	0.084177
499.377616	0.084357
499.596210	0.083576
499.814787	0.083491
500.033345	0.084307
500.251885	0.084576
500.470406	0.085285
500.688910	0.085882
500.907395	0.085861
501.125862	0.085924
501.344311	0.087131
501.562742	0.088491
501.781154	0.089137
501.999548	0.089063
502.217924	0.088848
502.436282	0.088822
502.654621	0.088181
502.872942	0.088553
503.091245	0.088854
503.309530	0.087923
503.527797	0.087340
503.746045	0.086700
503.964275	0.086955
504.182487	0.087384
504.400681	0.087614
504.618856	0.087155
504.837013	0.086982
505.055152	0.087256
505.273273	0.086777
505.491376	0.087524
505.709460	0.088316
505.927526	0.087823
506.145574	0.088322
506.363604	0.088011
506.581615	0.088076
506.799608	0.087879
507.017583	0.087797
507.235540	0.089161
507.453478	0.088493
507.671399	0.088316
507.889301	0.088712
508.107185	0.087956
508.325050	0.087389
508.542898	0.088125
508.760727	0.088044
508.978538	0.086984
509.196330	0.086843
509.414105	0.087550
509.631861	0.087613
509.849599	0.087820
510.067319	0.088559
510.285021	0.088978
510.502704	0.089032
510.720369	0.089061
510.938016	0.090319
511.155645	0.089904
511.373255	0.090613
511.590848	0.090584
511.808422	0.090761
512.025977	0.090563
512.243515	0.090975
512.461034	0.091000
512.678536	0.091357
512.896018	0.091139
513.113483	0.091343
513.330930	0.090291
513.548358	0.089881
513.765768	0.089552
513.983160	0.089258
514.200533	0.089243
514.417889	0.089486
514.635226	0.089438
514.852545	0.089327
515.069845	0.089921
515.287128	0.090201
515.504392	0.090680
515.721638	0.090222
515.938866	0.091121
516.156075	0.091484
516.373267	0.091022
516.590440	0.091293
516.807594	0.091644
517.024731	0.091800
517.241850	0.091639
517.458950	0.091613
517.676032	0.092724
517.893095	0.092557
518.110141	0.092460
518.327168	0.092878
518.544177	0.093403
518.761168	0.093951
518.978141	0.093304
519.195095	0.094584
519.412031	0.094961
519.628949	0.094762
519.845849	0.094888
520.062731	0.095175
520.279594	0.095124
520.496439	0.094627
520.713266	0.094200
520.930074	0.094457
521.146865	0.093945
521.363637	0.093741
521.580391	0.093904
521.797127	0.093962
522.013844	0.094128
522.230543	0.094699
522.447224	0.094643
522.663887	0.095735
522.880532	0.096158
523.097158	0.096281
523.313766	0.096577
523.530356	0.096861
523.746928	0.096767
523.963481	0.096624
524.180017	0.096359
524.396534	0.097271
524.613032	0.096967
524.829513	0.096989
525.045975	0.097269
525.262420	0.097759
525.478845	0.098383
525.695253	0.098105
525.911643	0.098470
526.128014	0.099113
526.344367	0.099332
526.560702	0.099223
526.777018	0.099678
526.993316	0.100076
527.209597	0.099988
527.425858	0.099661
527.642102	0.100428
527.858328	0.100324
528.074535	0.100265
528.290724	0.100401
528.506894	0.100679
528.723047	0.100550
528.939181	0.100347
529.155297	0.100629
529.371395	0.101282
529.587475	0.101270
529.803536	0.101869
530.019579	0.101888
530.235604	0.101770
530.451611	0.101518
530.667600	0.101643
530.883570	0.101768
531.099522	0.101961
531.315456	0.101517
531.531372	0.101833
531.747269	0.101892
531.963148	0.102245
532.179009	0.102348
532.394852	0.102198
532.610676	0.101996
532.826482	0.102221
533.042271	0.102424
533.258040	0.102570
533.473792	0.102863
533.689525	0.103201
533.905240	0.103433
534.120937	0.103445
534.336616	0.104234
534.552277	0.105119
534.767919	0.105181
534.983543	0.105471
535.199149	0.106012
535.414736	0.106146
535.630306	0.106461
535.845857	0.106294
536.061390	0.107063
536.276904	0.107588
536.492401	0.107351
536.707879	0.107515
536.923339	0.107067
537.138781	0.106831
537.354204	0.107064
537.569610	0.106625
537.784997	0.107312
538.000366	0.106751
538.215716	0.106482
538.431049	0.106820
538.646363	0.107038
538.861659	0.107896
539.076937	0.108112
539.292196	0.108362
539.507438	0.108631
539.722661	0.108295
539.937866	0.109080
540.153052	0.109113
540.368221	0.108754
540.583371	0.108926
540.798503	0.108859
541.013617	0.109001
541.228712	0.108605
541.443789	0.108959
541.658848	0.108870
541.873889	0.108328
542.088912	0.108400
542.303916	0.108986
542.518902	0.109215
542.733870	0.109457
542.948820	0.109874
543.163752	0.110300
543.378665	0.109949
543.593560	0.110568
543.808437	0.111057
544.023295	0.111186
544.238136	0.111538
544.452958	0.112218
544.667762	0.112348
544.882548	0.112058
545.097315	0.112070
545.312064	0.112625
545.526795	0.112895
545.741508	0.112439
545.956203	0.112699
546.170879	0.112762
546.385537	0.112021
546.600177	0.111797
546.814799	0.111727
547.029402	0.112057
547.243988	0.112090
547.458555	0.112333
547.673103	0.113208
547.887634	0.113502
548.102146	0.113280
548.316640	0.113708
548.531116	0.114191
548.745574	0.115178
548.960013	0.115330
549.174435	0.115193
549.388838	0.115084
549.603222	0.114959
549.817589	0.115002
550.031937	0.115391
550.246267	0.115529
550.460579	0.115785
550.674873	0.115391
550.889148	0.115587
551.103405	0.116244
551.317644	0.116417
551.531865	0.116611
551.746068	0.116809
551.960252	0.116768
552.174418	0.116751
552.388566	0.116650
552.602696	0.117062
552.816807	0.116714
553.030900	0.116728
553.244975	0.116911
553.459032	0.117180
553.673070	0.117171
553.887091	0.117595
554.101093	0.117691
554.315077	0.118045
554.529042	0.118050
554.742990	0.118522
554.956919	0.118433
555.170830	0.118400
555.384722	0.118199
555.598597	0.118043
555.812453	0.118277
556.026291	0.118438
556.240111	0.118797
556.453913	0.118962
556.667696	0.119131
556.881461	0.119271
557.095208	0.119202
557.308937	0.119412
557.522647	0.119915
557.736339	0.119287
557.950013	0.119578
558.163669	0.119076
558.377307	0.118877
558.590926	0.118976
558.804527	0.119264
559.018110	0.119913
559.231675	0.120029
559.445221	0.120291
559.658749	0.120947
559.872259	0.120794
560.085751	0.121163
560.299225	0.121779
560.512680	0.121903
560.726117	0.121774
560.939536	0.121552
561.152937	0.121816
561.366319	0.121566
561.579683	0.122003
561.793029	0.122247
562.006357	0.122258
562.219667	0.122148
562.432958	0.122116
562.646231	0.122150
562.859486	0.122305
563.072723	0.122025
563.285941	0.122028
563.499141	0.121524
563.712323	0.121653
563.925487	0.121834
564.138632	0.121585
564.351760	0.121544
564.564869	0.121684
564.777960	0.121715
564.991032	0.122046
565.204087	0.122414
565.417123	0.122489
565.630141	0.122768
565.843140	0.122765
566.056122	0.123275
566.269085	0.123484
566.482030	0.123757
566.694957	0.123839
566.907866	0.124144
567.120756	0.123979
567.333628	0.124283
567.546482	0.124324
567.759318	0.124512
567.972135	0.124374
568.184935	0.124355
568.397716	0.124344
568.610478	0.124331
568.823223	0.124531
569.035949	0.124657
569.248657	0.124811
569.461347	0.124833
569.674019	0.124583
569.886672	0.124945
570.099308	0.125217
570.311925	0.125240
570.524523	0.125178
570.737104	0.124849
570.949666	0.125104
571.162210	0.125217
571.374736	0.125105
571.587244	0.125445
571.799733	0.125146
572.012205	0.125138
572.224658	0.125228
572.437092	0.125729
572.649509	0.125911
572.861907	0.126119
573.074287	0.126056
573.286649	0.126377
573.498993	0.126037
573.711318	0.126235
573.923625	0.126300
574.135914	0.126564
574.348185	0.126425
574.560438	0.126410
574.772672	0.126412
574.984888	0.126712
575.197086	0.126710
575.409266	0.127229
575.621427	0.127152
575.833570	0.127566
576.045695	0.127378
576.257802	0.127222
576.469890	0.127507
576.681961	0.127344
576.894013	0.127511
577.106046	0.127443
577.318062	0.127281
577.530059	0.127791
577.742039	0.127582
577.954000	0.127869
578.165942	0.128425
578.377867	0.128649
578.589773	0.129081
578.801661	0.128825
579.013531	0.129213
579.225382	0.129532
579.437216	0.129209
579.649031	0.129434
579.860828	0.129723
580.072606	0.129814
580.284367	0.129721
580.496109	0.129648
580.707833	0.129719
580.919539	0.129781
581.131227	0.130048
581.342896	0.130667
581.554547	0.130364
581.766180	0.130461
581.977795	0.130216
582.189391	0.130151
582.400969	0.130391
582.612529	0.130701
582.824071	0.130575
583.035595	0.130601
583.247100	0.130679
583.458587	0.131290
583.670056	0.131147
583.881506	0.131338
584.092939	0.131529
584.304353	0.131335
584.515749	0.131116
584.727127	0.130812
584.938486	0.130888
585.149828	0.130938
585.361151	0.130690
585.572456	0.130986
585.783742	0.131221
585.995011	0.131524
586.206261	0.131859
586.417493	0.131913
586.628706	0.132564
586.839902	0.132743
587.051079	0.132726
587.262238	0.132851
587.473379	0.132922
587.684502	0.132678
587.895606	0.132546
588.106692	0.132511
588.317760	0.133100
588.528810	0.133063
588.739841	0.133181
588.950855	0.132961
589.161850	0.132955
589.372827	0.132818
589.583785	0.133100
589.794726	0.133143
590.005648	0.133393
590.216552	0.133057
590.427437	0.133306
590.638305	0.133189
590.849154	0.133553
591.059985	0.133632
591.270798	0.133812
591.481592	0.134120
591.692369	0.134058
591.903127	0.134319
592.113867	0.134568
592.324588	0.134419
592.535292	0.134389
592.745977	0.134501
592.956644	0.134789
593.167293	0.134859
593.377923	0.134814
593.588536	0.135184
593.799130	0.134521
594.009706	0.134475
594.220263	0.134710
594.430803	0.134896
594.641324	0.134422
594.851827	0.134652
595.062312	0.134491
595.272778	0.134489
595.483227	0.134205
595.693657	0.134868
595.904069	0.134984
596.114462	0.135073
596.324838	0.135065
596.535195	0.135508
596.745534	0.135364
596.955855	0.135739
597.166157	0.135861
597.376441	0.136422
597.586707	0.136358
597.796955	0.136652
598.007185	0.136611
598.217396	0.136833
598.427589	0.137184
598.637764	0.137128
598.847921	0.137235
599.058060	0.137477
599.268180	0.137436
599.478282	0.137442
599.688366	0.137230
599.898431	0.137551
600.108479	0.137355
600.318508	0.137276
600.528519	0.137827
600.738511	0.137774
600.948486	0.137649
601.158442	0.137594
601.368380	0.137419
601.578300	0.137371
601.788202	0.137244
601.998085	0.137636
602.207950	0.137642
602.417797	0.137572
602.627626	0.137753
602.837436	0.137694
603.047228	0.137752
603.257002	0.138271
603.466758	0.138208
603.676496	0.138394
603.886215	0.138409
604.095916	0.138596
604.305599	0.138504
604.515264	0.138445
604.724910	0.138535
604.934538	0.138789
605.144148	0.138591
605.353740	0.139065
605.563314	0.139098
605.772869	0.139247
605.982406	0.139168
606.191925	0.139209
606.401425	0.139319
606.610908	0.139499
606.820372	0.139489
607.029818	0.140016
607.239246	0.139671
607.448655	0.139519
607.658047	0.139603
607.867420	0.139911
608.076775	0.140068
608.286111	0.140198
608.495430	0.140211
608.704730	0.140420
608.914012	0.140046
609.123275	0.140622
609.332521	0.140784
609.541748	0.140719
609.750957	0.140649
609.960148	0.140594
610.169321	0.140373
610.378475	0.140608
610.587611	0.140547
610.796729	0.140739
611.005829	0.140880
611.214910	0.141242
611.423974	0.141246
611.633019	0.141319
611.842045	0.141659
612.051054	0.142004
612.260044	0.141875
612.469017	0.142061
612.677970	0.142133
612.886906	0.141889
613.095824	0.141796
613.304723	0.141915
613.513604	0.141798
613.722467	0.141803
613.931311	0.141816
614.140138	0.141765
614.348946	0.141718
614.557736	0.141693
614.766507	0.141731
614.975261	0.141702
615.183996	0.141770
615.392713	0.142120
615.601412	0.142065
615.810092	0.141991
616.018754	0.142552
616.227399	0.142531
616.436024	0.142809
616.644632	0.142978
616.853222	0.142903
617.061793	0.143269
617.270346	0.143244
617.478880	0.143212
617.687397	0.143563
617.895895	0.143435
618.104375	0.143731
618.312837	0.143748
618.521281	0.144004
618.729706	0.144290
618.938113	0.144201
619.146502	0.144192
619.354873	0.144417
619.563226	0.144260
619.771560	0.144281
619.979876	0.144120
620.188174	0.144195
620.396453	0.144212
620.604715	0.144296
620.812958	0.144388
621.021183	0.144744
621.229390	0.144839
621.437578	0.144994
621.645748	0.145018
621.853900	0.145246
622.062034	0.145127
622.270150	0.145061
622.478247	0.144906
622.686326	0.144810
622.894387	0.144553
623.102430	0.144613
623.310454	0.144525
623.518461	0.144961
623.726449	0.144899
623.934418	0.145229
624.142370	0.145469
624.350303	0.145545
624.558218	0.145528
624.766115	0.145630
624.973994	0.145743
625.181855	0.145964
625.389697	0.145695
625.597521	0.145933
625.805327	0.145878
626.013114	0.145800
626.220883	0.145779
626.428634	0.145783
626.636367	0.146049
626.844082	0.146023
627.051778	0.146057
627.259457	0.146146
627.467117	0.146207
627.674758	0.146437
627.882382	0.146482
628.089987	0.146439
628.297574	0.146735
628.505143	0.146549
628.712694	0.146707
628.920226	0.146957
629.127740	0.147155
629.335236	0.147362
629.542714	0.147449
629.750174	0.147936
629.957615	0.148420
630.165038	0.148278
630.372443	0.148743
630.579829	0.148967
630.787198	0.148993
630.994548	0.148983
631.201880	0.148788
631.409194	0.148829
631.616489	0.148611
631.823766	0.148821
632.031025	0.149033
632.238266	0.148968
632.445489	0.148617
632.652693	0.148561
632.859879	0.148771
633.067047	0.148909
633.274197	0.148862
633.481329	0.148798
633.688442	0.148810
633.895537	0.148784
634.102614	0.148896
634.309672	0.149108
634.516713	0.149460
634.723735	0.149257
634.930739	0.149428
635.137724	0.149585
635.344692	0.149882
635.551641	0.149925
635.758572	0.150215
635.965485	0.150274
636.172379	0.150573
636.379256	0.150426
636.586114	0.150791
636.792954	0.151035
636.999775	0.151158
637.206579	0.151280
637.413364	0.151266
637.620131	0.151217
637.826880	0.151306
638.033610	0.151433
638.240323	0.151480
638.447017	0.151721
638.653692	0.151463
638.860350	0.151217
639.066990	0.151410
639.273611	0.151323
639.480214	0.151622
639.686798	0.151723
639.893365	0.151640
640.099913	0.151999
640.306443	0.151866
640.512955	0.152118
640.719449	0.152396
640.925924	0.152230
641.132381	0.152584
641.338820	0.152800
641.545241	0.152742
641.751644	0.152838
641.958028	0.152664
642.164394	0.152854
642.370742	0.152900
642.577071	0.153160
642.783383	0.153129
642.989676	0.153234
643.195951	0.153205
643.402207	0.153480
643.608446	0.153494
643.814666	0.153757
644.020868	0.153729
644.227052	0.153846
644.433218	0.153744
644.639365	0.153826
644.845494	0.153908
645.051605	0.153906
645.257698	0.153855
645.463772	0.154002
645.669828	0.154120
645.875866	0.154103
646.081886	0.154034
646.287888	0.154151
646.493871	0.154286
646.699836	0.154101
646.905783	0.154262
647.111712	0.154292
647.317622	0.154397
647.523514	0.154555
647.729388	0.154542
647.935244	0.154861
648.141082	0.155031
648.346901	0.155222
648.552702	0.155542
648.758485	0.155625
648.964250	0.156002
649.169996	0.156215
649.375724	0.156126
649.581434	0.156588
649.787126	0.156710
649.992800	0.156757
650.198455	0.156895
650.404092	0.157014
650.609711	0.157118
650.815311	0.157050
651.020894	0.157188
651.226458	0.157515
651.432004	0.157482
651.637532	0.157475
651.843041	0.157731
652.048532	0.157715
652.254006	0.157803
652.459460	0.157805
652.664897	0.157794
652.870315	0.157825
653.075716	0.157745
653.281097	0.157852
653.486461	0.157775
653.691807	0.157859
653.897134	0.158179
654.102443	0.158146
654.307734	0.158116
654.513006	0.158198
654.718261	0.158211
654.923497	0.158073
655.128715	0.158009
655.333915	0.158135
655.539096	0.158029
655.744259	0.158218
655.949404	0.158360
656.154531	0.158580
656.359640	0.158711
656.564730	0.158749
656.769802	0.159216
656.974856	0.159496
657.179892	0.159876
657.384909	0.159949
657.589908	0.159796
657.794889	0.159924
657.999852	0.160032
658.204797	0.160319
658.409723	0.160495
658.614631	0.160574
658.819521	0.160622
659.024393	0.160521
659.229246	0.160706
659.434081	0.160893
659.638898	0.161056
659.843697	0.161054
660.048478	0.161049
660.253240	0.161108
660.457984	0.161188
660.662710	0.161403
660.867417	0.161650
661.072107	0.161651
661.276778	0.161653
661.481431	0.161796
661.686066	0.162152
661.890682	0.162046
662.095281	0.162197
662.299861	0.162232
662.504422	0.162101
662.708966	0.162170
662.913491	0.162556
663.117999	0.162597
663.322488	0.162665
663.526958	0.162687
663.731411	0.162901
663.935845	0.163051
664.140261	0.163270
664.344659	0.163445
664.549038	0.163366
664.753400	0.163481
664.957743	0.163810
665.162068	0.163762
665.366375	0.163866
665.570663	0.164086
665.774933	0.164151
665.979185	0.164053
666.183419	0.164257
666.387635	0.164513
666.591832	0.164404
666.796011	0.164588
667.000172	0.164719
667.204315	0.164801
667.408439	0.164895
667.612545	0.164908
667.816634	0.165108
668.020703	0.164931
668.224755	0.165068
668.428788	0.165265
668.632803	0.165027
668.836800	0.165286
669.040779	0.165545
669.244739	0.165597
669.448681	0.165983
669.652605	0.166197
669.856511	0.166601
670.060399	0.166669
670.264268	0.166734
670.468119	0.166871
670.671952	0.166886
670.875767	0.166573
671.079563	0.166949
671.283341	0.166915
671.487101	0.166851
671.690843	0.166898
671.894567	0.167043
672.098272	0.167321
672.301959	0.167439
672.505628	0.167550
672.709278	0.167910
672.912911	0.167877
673.116525	0.167623
673.320121	0.167785
673.523699	0.168072
673.727258	0.168064
673.930799	0.167927
674.134322	0.168164
674.337827	0.168377
674.541314	0.168374
674.744782	0.168534
674.948232	0.168980
675.151664	0.169158
675.355078	0.169013
675.558474	0.169285
675.761851	0.169405
675.965210	0.169506
676.168551	0.169622
676.371873	0.169664
676.575178	0.169577
676.778464	0.169466
676.981732	0.169483
677.184981	0.169670
677.388213	0.169651
677.591426	0.169909
677.794621	0.170104
677.997798	0.170119
678.200956	0.170369
678.404097	0.170549
678.607219	0.170744
678.810323	0.170820
679.013408	0.170823
679.216476	0.170904
679.419525	0.170897
679.622556	0.170958
679.825569	0.171044
680.028563	0.171138
680.231540	0.171130
680.434498	0.171238
680.637438	0.171503
680.840359	0.171598
681.043263	0.171705
681.246148	0.171997
681.449015	0.172158
681.651864	0.172448
681.854694	0.172552
682.057506	0.172615
682.260301	0.172753
682.463076	0.172842
682.665834	0.173159
682.868573	0.173440
683.071295	0.173444
683.273998	0.173447
683.476682	0.173446
683.679349	0.173575
683.881997	0.173838
684.084627	0.174044
684.287239	0.174103
684.489833	0.174043
684.692408	0.173893
684.894965	0.173748
685.097504	0.173728
685.300025	0.173765
685.502527	0.173908
685.705012	0.173911
685.907478	0.173973
686.109925	0.173929
686.312355	0.174003
686.514766	0.174298
686.717159	0.174409
686.919534	0.174562
687.121891	0.174738
687.324230	0.174757
687.526550	0.174846
687.728852	0.174848
687.931136	0.174923
688.133401	0.174997
688.335649	0.175150
688.537878	0.175028
688.740089	0.175046
688.942281	0.175070
689.144456	0.175100
689.346612	0.175229
689.548750	0.175173
689.750870	0.175257
689.952971	0.175248
690.155055	0.175066
690.357120	0.175371
690.559167	0.175375
690.761195	0.175279
690.963206	0.175444
691.165198	0.175307
691.367172	0.175501
691.569128	0.175589
691.771065	0.175952
691.972984	0.176213
692.174885	0.176504
692.376768	0.176704
692.578633	0.176963
692.780479	0.177016
692.982308	0.177388
693.184118	0.177706
693.385909	0.177836
693.587683	0.177786
693.789438	0.177843
693.991175	0.177805
694.192894	0.178006
694.394595	0.177961
694.596277	0.178107
694.797941	0.178213
694.999587	0.178045
695.201215	0.178189
695.402824	0.178117
695.604416	0.178170
695.805989	0.178222
696.007543	0.178102
696.209080	0.178170
696.410598	0.178237
696.612099	0.178081
696.813580	0.178239
697.015044	0.178303
697.216490	0.178438
697.417917	0.178492
697.619326	0.178656
697.820717	0.178764
698.022089	0.178890
698.223444	0.178953
698.424780	0.179220
698.626098	0.179197
698.827397	0.179072
699.028679	0.179066
699.229942	0.179280
699.431187	0.179318
699.632414	0.179359
699.833622	0.179345
700.034813	0.179375
700.235985	0.179374
700.437139	0.179478
700.638274	0.179839
700.839392	0.180008
701.040491	0.179937
701.241572	0.179986
701.442635	0.180113
701.643679	0.180402
701.844706	0.180556
702.045714	0.180515
702.246704	0.180551
702.447675	0.180400
702.648629	0.180516
702.849564	0.180516
703.050481	0.180439
703.251380	0.180427
703.452260	0.180492
703.653122	0.180452
703.853966	0.180487
704.054792	0.180721
704.255600	0.180713
704.456389	0.180856
704.657160	0.180908
704.857913	0.180951
705.058648	0.181081
705.259365	0.180849
705.460063	0.180539
705.660743	0.180431
705.861405	0.180297
706.062048	0.180333
706.262674	0.180138
706.463281	0.179836
706.663870	0.179810
706.864441	0.179602
707.064993	0.179648
707.265527	0.179862
707.466043	0.180074
707.666541	0.180014
707.867021	0.180046
708.067482	0.179847
708.267925	0.180068
708.468350	0.180257
708.668757	0.180422
708.869145	0.180687
709.069516	0.180916
709.269868	0.180856
709.470201	0.180941
709.670517	0.181029
709.870814	0.181340
710.071093	0.181266
710.271354	0.181209
710.471597	0.181377
710.671821	0.181280
710.872028	0.180903
711.072216	0.180967
711.272385	0.181006
711.472537	0.180843
711.672670	0.180706
711.872785	0.180774
712.072882	0.180985
712.272961	0.180768
712.473021	0.180696
712.673063	0.181017
712.873087	0.180836
713.073093	0.180913
713.273081	0.181043
713.473050	0.181146
713.673001	0.181202
713.872934	0.181011
714.072849	0.181197
714.272745	0.181282
714.472623	0.181227
714.672483	0.181346
714.872325	0.181189
715.072148	0.181187
715.271954	0.181122
715.471741	0.181049
715.671509	0.181067
715.871260	0.180908
716.070992	0.180754
716.270707	0.180650
716.470403	0.180494
716.670080	0.180457
716.869740	0.180250
717.069381	0.180077
717.269004	0.180186
717.468609	0.180208
717.668195	0.180305
717.867764	0.180416
718.067314	0.180240
718.266846	0.180380
718.466360	0.180347
718.665855	0.180428
718.865332	0.180715
719.064791	0.180638
719.264232	0.180587
719.463655	0.180473
719.663059	0.180167
719.862445	0.180249
720.061813	0.180260
720.261163	0.180140
720.460494	0.180130
720.659807	0.179808
720.859102	0.179814
721.058379	0.179542
721.257638	0.179530
721.456878	0.179641
721.656100	0.179647
721.855304	0.179318
722.054490	0.179273
722.253657	0.178966
722.452806	0.178970
722.651937	0.178802
722.851050	0.178804
723.050145	0.178522
723.249221	0.178319
723.448279	0.178299
723.647319	0.178491
723.846340	0.178430
724.045344	0.178429
724.244329	0.178147
724.443296	0.178132
724.642245	0.178094
724.841175	0.178199
725.040088	0.178123
725.238982	0.178016
725.437857	0.177943
725.636715	0.177923
725.835554	0.178101
726.034376	0.178319
726.233179	0.177983
726.431963	0.178100
726.630730	0.178159
726.829478	0.178474
727.028208	0.178510
727.226920	0.178373
727.425614	0.178552
727.624289	0.178386
727.822946	0.178525
728.021585	0.178728
728.220206	0.178548
728.418808	0.178312
728.617392	0.178004
728.815958	0.178018
729.014506	0.178103
729.213036	0.177965
729.411547	0.178038
729.610040	0.177878
729.808515	0.177725
730.006972	0.177469
730.205410	0.177503
730.403831	0.177359
730.602233	0.177026
730.800616	0.176761
730.998982	0.176823
731.197329	0.176665
731.395658	0.176618
731.593969	0.176709
731.792262	0.176573
731.990536	0.176596
732.188793	0.176608
732.387031	0.176397
732.585250	0.176309
732.783452	0.176065
732.981635	0.175939
733.179800	0.175615
733.377947	0.175418
733.576076	0.175422
733.774186	0.175101
733.972278	0.175041
734.170352	0.175209
734.368408	0.175347
734.566446	0.175197
734.764465	0.175054
734.962466	0.174950
735.160449	0.174659
735.358413	0.174674
735.556360	0.174789
735.754288	0.174633
735.952198	0.174296
736.150090	0.173852
736.347963	0.173660
736.545818	0.173631
736.743655	0.173528
736.941474	0.173563
737.139275	0.173509
737.337057	0.173160
737.534821	0.172936
737.732567	0.173014
737.930295	0.173128
738.128005	0.173027
738.325696	0.172823
738.523369	0.172864
738.721024	0.172761
738.918660	0.172506
739.116279	0.172346
739.313879	0.172537
739.511461	0.172427
739.709024	0.172351
739.906570	0.172396
740.104097	0.172613
740.301606	0.172320
740.499097	0.172530
740.696569	0.172559
740.894024	0.172782
741.091460	0.172515
741.288878	0.172424
741.486277	0.172318
741.683659	0.172214
741.881022	0.171797
742.078367	0.171906
742.275694	0.171621
742.473002	0.171556
742.670293	0.171304
742.867565	0.171392
743.064819	0.171274
743.262054	0.171257
743.459272	0.171148
743.656471	0.171055
743.853652	0.170944
744.050815	0.170886
744.247959	0.170640
744.445085	0.170424
744.642194	0.169868
744.839283	0.169712
745.036355	0.169529
745.233408	0.169427
745.430444	0.169344
745.627461	0.169042
745.824459	0.168760
746.021440	0.168742
746.218402	0.168796
746.415346	0.168939
746.612272	0.168683
746.809180	0.168504
747.006069	0.168266
747.202940	0.168277
747.399793	0.168287
747.596628	0.168027
747.793444	0.167679
747.990243	0.167553
748.187023	0.167304
748.383784	0.167547
748.580528	0.167507
748.777253	0.167432
748.973960	0.167321
749.170649	0.167194
749.367320	0.167498
749.563973	0.167615
749.760607	0.167419
749.957223	0.167533
750.153821	0.167271
750.350400	0.167210
750.546962	0.166952
750.743505	0.166737
750.940030	0.166701
751.136536	0.166518
751.333025	0.166429
751.529495	0.166278
751.725947	0.166314
751.922381	0.166307
752.118796	0.166287
752.315194	0.166438
752.511573	0.166526
752.707934	0.166402
752.904276	0.166346
753.100601	0.166297
753.296907	0.166172
753.493195	0.165825
753.689465	0.165807
753.885716	0.165511
754.081949	0.165671
754.278164	0.165677
754.474361	0.165619
754.670540	0.165545
754.866700	0.165423
755.062843	0.165507
755.258967	0.165664
755.455072	0.165629
755.651160	0.165428
755.847229	0.165039
756.043280	0.164775
756.239313	0.164825
756.435328	0.164772
756.631324	0.164763
756.827302	0.164681
757.023262	0.164516
757.219204	0.164240
757.415127	0.164291
757.611033	0.164279
757.806920	0.164128
758.002788	0.163844
758.198639	0.163627
758.394471	0.163497
758.590286	0.163540
758.786081	0.163455
758.981859	0.163734
759.177619	0.163700
759.373360	0.163460
759.569083	0.163790
759.764788	0.163873
759.960474	0.163788
760.156143	0.163776
760.351793	0.163569
760.547425	0.163431
760.743038	0.162966
760.938634	0.163033
761.134211	0.163164
761.329770	0.162699
761.525311	0.162762
761.720833	0.162736
761.916338	0.162550
762.111824	0.162413
762.307292	0.162401
762.502741	0.162347
762.698173	0.162171
762.893586	0.162151
763.088981	0.162205
763.284358	0.161956
763.479716	0.161889
763.675057	0.161935
763.870379	0.161921
764.065683	0.161604
764.260968	0.161398
764.456236	0.161267
764.651485	0.161028
764.846716	0.160990
765.041929	0.160855
765.237123	0.160738
765.432299	0.160743
765.627457	0.160753
765.822597	0.160971
766.017719	0.161153
766.212822	0.160956
766.407907	0.161095
766.602974	0.160886
766.798023	0.160895
766.993054	0.160833
767.188066	0.160741
767.383060	0.160585
767.578036	0.160538
767.772993	0.160193
767.967933	0.160486
768.162854	0.160347
768.357757	0.160432
768.552642	0.160345
768.747508	0.160235
768.942356	0.160178
769.137186	0.160294
769.331998	0.160348
769.526792	0.160723
769.721567	0.160806
769.916324	0.160838
770.111063	0.161030
770.305784	0.161197
770.500486	0.161357
770.695171	0.161611
770.889837	0.161717
771.084484	0.161932
771.279114	0.161745
771.473725	0.161481
771.668318	0.161348
771.862893	0.161050
772.057450	0.160778
772.251988	0.160648
772.446509	0.160181
772.641011	0.160125
772.835494	0.159833
773.029960	0.159948
773.224407	0.160006
773.418836	0.160011
773.613247	0.160062
773.807640	0.160102
774.002014	0.160231
774.196370	0.160228
774.390708	0.159978
774.585028	0.160207
774.779330	0.160015
774.973613	0.159870
775.167878	0.159918
775.362125	0.159797
775.556354	0.159596
775.750564	0.159630
775.944756	0.160029
776.138930	0.160261
776.333086	0.159924
776.527223	0.160280
776.721343	0.160462
776.915444	0.160454
777.109526	0.160471
777.303591	0.160809
777.497637	0.160641
777.691666	0.160547
777.885676	0.160244
778.079667	0.160347
778.273641	0.160185
778.467596	0.160039
778.661533	0.160050
778.855452	0.159935
779.049352	0.159677
779.243235	0.159797
779.437099	0.159680
779.630945	0.159870
779.824773	0.160026
780.018582	0.160019
780.212373	0.160000
780.406146	0.159998
780.599901	0.160098
780.793638	0.160436
780.987356	0.160375
781.181056	0.160508
781.374738	0.160501
781.568402	0.160487
781.762047	0.160386
781.955674	0.160474
782.149283	0.160478
782.342874	0.160623
782.536447	0.160499
782.730001	0.160750
782.923537	0.160697
783.117055	0.160847
783.310555	0.160731
783.504036	0.160820
783.697499	0.161087
783.890944	0.161025
784.084371	0.160964
784.277780	0.161125
784.471170	0.161048
784.664542	0.161222
784.857896	0.161249
785.051231	0.161337
785.244549	0.161268
785.437848	0.161096
785.631129	0.161231
785.824392	0.161345
786.017636	0.161305
786.210863	0.161378
786.404071	0.161151
786.597260	0.161176
786.790432	0.161047
786.983585	0.161210
787.176721	0.161154
787.369838	0.161261
787.562936	0.161422
787.756017	0.161466
787.949079	0.161318
788.142123	0.161510
788.335149	0.161710
788.528156	0.161925
788.721146	0.161965
788.914117	0.162166
789.107070	0.162054
789.300005	0.162141
789.492921	0.162320
789.685819	0.162497
789.878699	0.162598
790.071561	0.162434
790.264405	0.162644
790.457230	0.162739
790.650037	0.162756
790.842826	0.163065
791.035597	0.163211
791.228349	0.163347
791.421084	0.163448
791.613800	0.163530
791.806497	0.163663
791.999177	0.163696
792.191838	0.163888
792.384481	0.163885
792.577106	0.163885
792.769713	0.163984
792.962301	0.164096
793.154871	0.164241
793.347423	0.164261
793.539957	0.164416
793.732473	0.164187
793.924970	0.164172
794.117449	0.164510
794.309910	0.164735
794.502353	0.164589
794.694777	0.164475
794.887183	0.164596
795.079571	0.164881
795.271941	0.164873
795.464293	0.165310
795.656626	0.165316
795.848941	0.165353
796.041238	0.165442
796.233516	0.165607
796.425777	0.165913
796.618019	0.165975
796.810243	0.165703
797.002449	0.165838
797.194636	0.165745
797.386805	0.165876
797.578956	0.166107
797.771089	0.166156
797.963204	0.166394
798.155300	0.166284
798.347378	0.166452
798.539438	0.166823
798.731480	0.166886
798.923503	0.167284
799.115509	0.167284
799.307496	0.167424
799.499465	0.167513
799.691415	0.167489
799.883348	0.167667
800.075262	0.167744
800.267158	0.167904
800.459035	0.168172
800.650895	0.168253
800.842736	0.168762
801.034559	0.168795
801.226364	0.169239
801.418150	0.169252
801.609919	0.169429
801.801669	0.169639
801.993401	0.169763
802.185114	0.169923
802.376810	0.169799
802.568487	0.169777
802.760146	0.169812
802.951787	0.169792
803.143409	0.170332
803.335014	0.170465
803.526600	0.170605
803.718168	0.170774
803.909717	0.170754
804.101249	0.171105
804.292762	0.171139
804.484257	0.171423
804.675734	0.171588
804.867192	0.171442
805.058632	0.171618
805.250054	0.171754
805.441458	0.171724
805.632844	0.171968
805.824211	0.171988
806.015561	0.172335
806.206891	0.172343
806.398204	0.172285
806.589499	0.172378
806.780775	0.172696
806.972033	0.172826
807.163273	0.173044
807.354495	0.173089
807.545698	0.173236
807.736883	0.173339
807.928050	0.173752
808.119199	0.173977
808.310329	0.174403
808.501441	0.174408
808.692535	0.174564
808.883611	0.174818
809.074669	0.175085
809.265708	0.175542
809.456729	0.175845
809.647732	0.175701
809.838717	0.175936
810.029683	0.175930
810.220632	0.176147
810.411562	0.176263
810.602474	0.176609
810.793367	0.176892
810.984242	0.176649
811.175100	0.176573
811.365938	0.177056
811.556759	0.177055
811.747562	0.177136
811.938346	0.177437
812.129112	0.177765
812.319860	0.177824
812.510589	0.177788
812.701300	0.178422
812.891994	0.178893
813.082668	0.179000
813.273325	0.179407
813.463964	0.179917
813.654584	0.180027
813.845186	0.180262
814.035769	0.180168
814.226335	0.180439
814.416882	0.180513
814.607411	0.180558
814.797922	0.180808
814.988415	0.180995
815.178889	0.181097
815.369345	0.181143
815.559783	0.181311
815.750203	0.181925
815.940605	0.182125
816.130988	0.182213
816.321353	0.182780
816.511700	0.183009
816.702028	0.183160
816.892339	0.183276
817.082631	0.183645
817.272905	0.183823
817.463161	0.183787
817.653398	0.184181
817.843617	0.184399
818.033819	0.184211
818.224001	0.184344
818.414166	0.184478
818.604312	0.184673
818.794440	0.184783
818.984550	0.184761
819.174642	0.185027
819.364716	0.185134
819.554771	0.185591
819.744808	0.186017
819.934827	0.186137
820.124827	0.186331
820.314810	0.186753
820.504774	0.186969
820.694720	0.187414
820.884647	0.187687
821.074557	0.187759
821.264448	0.187644
821.454321	0.187527
821.644176	0.187746
821.834012	0.187952
822.023831	0.187804
822.213631	0.187940
822.403413	0.188109
822.593176	0.188298
822.782922	0.188706
822.972649	0.189006
823.162358	0.189164
823.352049	0.189511
823.541721	0.189548
823.731376	0.189886
823.921012	0.190242
824.110629	0.190628
824.300229	0.190861
824.489811	0.190853
824.679374	0.191004
824.868919	0.191692
825.058445	0.191741
825.247954	0.192106
825.437444	0.192366
825.626916	0.192512
825.816370	0.192711
826.005806	0.192957
826.195223	0.193228
826.384622	0.193385
826.574003	0.193339
826.763366	0.193404
826.952711	0.193717
827.142037	0.194076
827.331345	0.194492
827.520635	0.194486
827.709906	0.194444
827.899160	0.194855
828.088395	0.195141
828.277612	0.195470
828.466810	0.196150
828.655991	0.196582
828.845153	0.196507
829.034297	0.196682
829.223423	0.197120
829.412531	0.197685
829.601620	0.197958
829.790691	0.198292
829.979744	0.198624
830.168779	0.198587
830.357795	0.198624
830.546793	0.199059
830.735773	0.199441
830.924735	0.199519
831.113679	0.199700
831.302604	0.199954
831.491511	0.200159
831.680400	0.200385
831.869271	0.200786
832.058123	0.201315
832.246957	0.201320
832.435773	0.201324
832.624571	0.201609
832.813351	0.201960
833.002112	0.202167
833.190855	0.202625
833.379580	0.202842
833.568287	0.202893
833.756975	0.203047
833.945645	0.203520
834.134297	0.203607
834.322931	0.203767
834.511547	0.203729
834.700144	0.204001
834.888723	0.203986
835.077284	0.203986
835.265826	0.204149
835.454351	0.204365
835.642857	0.204740
835.831345	0.205287
836.019815	0.205686
836.208266	0.206092
836.396699	0.206230
836.585114	0.206717
836.773511	0.207382
836.961890	0.207688
837.150250	0.207801
837.338592	0.207998
837.526916	0.208281
837.715222	0.208487
837.903510	0.208708
838.091779	0.209158
838.280030	0.209302
838.468263	0.209455
838.656477	0.209918
838.844674	0.210054
839.032852	0.210320
839.221012	0.210401
839.409153	0.210512
839.597277	0.210921
839.785382	0.211289
839.973469	0.211516
840.161538	0.211625
840.349589	0.211925
840.537621	0.212460
840.725635	0.212702
840.913631	0.213290
841.101609	0.213815
841.289568	0.214020
841.477509	0.214191
841.665432	0.214583
841.853337	0.214591
842.041224	0.214771
842.229092	0.214966
842.416942	0.215323
842.604774	0.215240
842.792588	0.215447
842.980383	0.215569
843.168160	0.215653
843.355919	0.215919
843.543660	0.216440
843.731382	0.216819
843.919087	0.217203
844.106773	0.217426
844.294441	0.217927
844.482090	0.218064
844.669722	0.218175
844.857335	0.218248
845.044930	0.218898
845.232507	0.219315
845.420065	0.219593
845.607605	0.219744
845.795127	0.220043
845.982631	0.220241
846.170117	0.220694
846.357584	0.221320
846.545033	0.221709
846.732464	0.221302
846.919877	0.221269
847.107272	0.221304
847.294648	0.221481
847.482006	0.221862
847.669346	0.222013
847.856667	0.222320
848.043971	0.222537
848.231256	0.222669
848.418523	0.223210
848.605771	0.223710
848.793002	0.223929
848.980214	0.224256
849.167408	0.224622
849.354584	0.225174
849.541742	0.225144
849.728881	0.225345
849.916002	0.225685
850.103105	0.225617
850.290190	0.225867
850.477256	0.226525
850.664304	0.226801
850.851334	0.226923
851.038346	0.227007
851.225340	0.227520
851.412315	0.227653
851.599272	0.227999
851.786211	0.228633
851.973132	0.228898
852.160034	0.229285
852.346918	0.229484
852.533784	0.229416
852.720632	0.229508
852.907462	0.229699
853.094273	0.230150
853.281066	0.230676
853.467841	0.230472
853.654598	0.230537
853.841336	0.230436
854.028056	0.230589
854.214758	0.230985
854.401442	0.231452
854.588107	0.231676
854.774755	0.231798
854.961384	0.231993
855.147995	0.232855
855.334587	0.233201
855.521162	0.233283
855.707718	0.233890
855.894256	0.234048
856.080775	0.234222
856.267277	0.234483
856.453760	0.234752
856.640225	0.234747
856.826672	0.234654
857.013101	0.234987
857.199511	0.235289
857.385903	0.235081
857.572277	0.235086
857.758633	0.235524
857.944970	0.235966
858.131290	0.236176
858.317591	0.236343
858.503873	0.236564
858.690138	0.236739
858.876384	0.236896
859.062612	0.237075
859.248822	0.237447
859.435014	0.237405
859.621188	0.237721
859.807343	0.238267
859.993480	0.238728
860.179599	0.239175
860.365699	0.239200
860.551781	0.239645
860.737846	0.240338
860.923891	0.240728
861.109919	0.240934
861.295929	0.240887
861.481920	0.241087
861.667893	0.241190
861.853848	0.241635
862.039784	0.241875
862.225702	0.241967
862.411603	0.242177
862.597484	0.242467
862.783348	0.242681
862.969193	0.242956
863.155021	0.242910
863.340830	0.243165
863.526620	0.242962
863.712393	0.243433
863.898147	0.244271
864.083883	0.244402
864.269601	0.244547
864.455301	0.245105
864.640982	0.245286
864.826645	0.245463
865.012290	0.245988
865.197917	0.246246
865.383526	0.246306
865.569116	0.246295
865.754688	0.246279
865.940242	0.246449
866.125777	0.246513
866.311295	0.246267
866.496794	0.246484
866.682275	0.246616
866.867737	0.246634
867.053182	0.247053
867.238608	0.246917
867.424016	0.247488
867.609406	0.247822
867.794778	0.248033
867.980131	0.248682
868.165466	0.248891
868.350783	0.249107
868.536082	0.249444
868.721362	0.249697
868.906625	0.249701
869.091869	0.249598
869.277094	0.249615
869.462302	0.249522
869.647491	0.249653
869.832662	0.249745
870.017815	0.249489
870.202950	0.249782
870.388066	0.249598
870.573165	0.249974
870.758245	0.250217
870.943306	0.250409
871.128350	0.250847
871.313375	0.250851
871.498382	0.251154
871.683371	0.251778
871.868342	0.251735
872.053294	0.251780
872.238229	0.251731
872.423144	0.251820
872.608042	0.252255
872.792922	0.252397
872.977783	0.252932
873.162626	0.253067
873.347451	0.252916
873.532258	0.253316
873.717046	0.253828
873.901816	0.254118
874.086568	0.254552
874.271302	0.254383
874.456017	0.254658
874.640715	0.254960
874.825394	0.255011
875.010055	0.255193
875.194697	0.255309
875.379322	0.255370
875.563928	0.255482
875.748516	0.255666
875.933085	0.256182
876.117637	0.255908
876.302170	0.255408
876.486685	0.255666
876.671182	0.255802
876.855661	0.255855
877.040121	0.255700
877.224563	0.256003
877.408987	0.255969
877.593393	0.255715
877.777780	0.255991
877.962150	0.256160
878.146501	0.256478
878.330833	0.256725
878.515148	0.256748
878.699444	0.256806
878.883722	0.257044
879.067982	0.256817
879.252224	0.257228
879.436447	0.257278
879.620653	0.257484
879.804840	0.257332
879.989008	0.257455
880.173159	0.257464
880.357291	0.257925
880.541405	0.257908
880.725501	0.258147
880.909579	0.258441
881.093638	0.258416
881.277680	0.258690
881.461703	0.258799
881.645707	0.258881
881.829694	0.259009
882.013662	0.259268
882.197612	0.259172
882.381544	0.259405
882.565458	0.259191
882.749353	0.259856
882.933230	0.259674
883.117089	0.259833
883.300930	0.259697
883.484753	0.259672
883.668557	0.259148
883.852343	0.259074
884.036111	0.258905
884.219861	0.258713
884.403592	0.258386
884.587305	0.258613
884.771000	0.258245
884.954677	0.258101
885.138335	0.258181
885.321976	0.258611
885.505598	0.258694
885.689201	0.258990
885.872787	0.259073
886.056354	0.258793
886.239904	0.258872
886.423434	0.258591
886.606947	0.258530
886.790442	0.258764
886.973918	0.258557
887.157376	0.258570
887.340816	0.258505
887.524237	0.258969
887.707641	0.259298
887.891026	0.258999
888.074393	0.259682
888.257741	0.259621
888.441072	0.259655
888.624384	0.259923
888.807678	0.260535
888.990954	0.260281
889.174211	0.260158
889.357451	0.259764
889.540672	0.259967
889.723875	0.259651
889.907059	0.259915
890.090226	0.259537
890.273374	0.259431
890.456504	0.259140
890.639616	0.259727
890.822709	0.259617
891.005785	0.260014
891.188842	0.259780
891.371881	0.260336
891.554901	0.260624
891.737904	0.260911
891.920888	0.260977
892.103854	0.260639
892.286802	0.260204
892.469731	0.259924
892.652643	0.259543
892.835536	0.259494
893.018410	0.259208
893.201267	0.259259
893.384106	0.259179
893.566926	0.258833
893.749728	0.259046
893.932511	0.259218
894.115277	0.259223
894.298024	0.259231
894.480753	0.259406
894.663464	0.259205
894.846157	0.259053
895.028831	0.259040
895.211487	0.258914
895.394125	0.258933
895.576745	0.258815
895.759346	0.258939
895.941930	0.258937
896.124495	0.258357
896.307041	0.257919
896.489570	0.257220
896.672080	0.256886
896.854573	0.256916
897.037046	0.256501
897.219502	0.255795
897.401940	0.255552
897.584359	0.255173
897.766760	0.255286
897.949143	0.255280
898.131507	0.255564
898.313854	0.255313
898.496182	0.255619
898.678492	0.255502
898.860783	0.255418
899.043057	0.255047
899.225312	0.255194
899.407549	0.255446
899.589768	0.255616
899.771968	0.255484
899.954151	0.255211
900.136315	0.254760
900.318461	0.254578
900.500588	0.254303
900.682698	0.254467
900.864789	0.254153
901.046862	0.253854
901.228917	0.253449
901.410953	0.253178
901.592971	0.253353
901.774972	0.253434
901.956953	0.253266
902.138917	0.253365
902.320862	0.252774
902.502790	0.253160
902.684699	0.252930
902.866589	0.253133
903.048462	0.252873
903.230316	0.252769
903.412152	0.252386
903.593970	0.252402
903.775770	0.252552
903.957551	0.253107
904.139314	0.252659
904.321059	0.252327
904.502786	0.252118
904.684494	0.251593
904.866185	0.251557
905.047857	0.251312
905.229510	0.251038
905.411146	0.250719
905.592763	0.250198
905.774363	0.249598
905.955943	0.249735
906.137506	0.249243
906.319051	0.249514
906.500577	0.248790
906.682085	0.248503
906.863575	0.248037
907.045046	0.247735
907.226500	0.247343
907.407935	0.247174
907.589352	0.246988
907.770750	0.246885
907.952131	0.246741
908.133493	0.246238
908.314837	0.245992
908.496163	0.245678
908.677470	0.245207
908.858760	0.245118
909.040031	0.244776
909.221284	0.244295
909.402518	0.243636
909.583735	0.243281
909.764933	0.243708
909.946113	0.243014
910.127275	0.242834
910.308418	0.242941
910.489544	0.242310
910.670651	0.241824
910.851740	0.241551
911.032810	0.241257
911.213863	0.240519
911.394897	0.239580
911.575913	0.239686
911.756911	0.239579
911.937890	0.238567
912.118851	0.238609
912.299794	0.238253
912.480719	0.237460
912.661626	0.237385
912.842514	0.237274
913.023384	0.237041
913.204236	0.236500
913.385070	0.236434
913.565886	0.236683
913.746683	0.236033
913.927462	0.236044
914.108223	0.236273
914.288965	0.235875
914.469690	0.235278
914.650396	0.235168
914.831084	0.235076
915.011754	0.234074
915.192405	0.232822
915.373038	0.232553
915.553653	0.232304
915.734250	0.231607
915.914829	0.231100
916.095389	0.231138
916.275931	0.230917
916.456455	0.230760
916.636961	0.230534
916.817448	0.230810
916.997917	0.230317
917.178368	0.229888
917.358801	0.229593
917.539216	0.229186
917.719612	0.228829
917.899990	0.228445
918.080350	0.227732
918.260692	0.227288
918.441015	0.226918
918.621320	0.226266
918.801607	0.225715
918.981876	0.224989
919.162127	0.224886
919.342359	0.224386
919.522573	0.223936
919.702769	0.223744
919.882947	0.223330
920.063106	0.222692
920.243247	0.222397
920.423370	0.221967
920.603475	0.221525
920.783562	0.220774
920.963630	0.220002
921.143680	0.219362
921.323712	0.218572
921.503725	0.218091
921.683721	0.217515
921.863698	0.216409
922.043657	0.215921
922.223598	0.215488
922.403520	0.214945
922.583424	0.214928
922.763311	0.214440
922.943178	0.214273
923.123028	0.214204
923.302859	0.214625
923.482673	0.214977
923.662467	0.214947
923.842244	0.214720
924.022003	0.214551
924.201743	0.213782
924.381465	0.213245
924.561169	0.212908
924.740854	0.211794
924.920522	0.210585
925.100171	0.210106
925.279802	0.209437
925.459414	0.209170
925.639009	0.208508
925.818585	0.208374
925.998143	0.207531
926.177683	0.206604
926.357205	0.206969
926.536708	0.206801
926.716193	0.206255
926.895660	0.205293
927.075109	0.204700
927.254539	0.204260
927.433951	0.203486
927.613345	0.203642
927.792721	0.203374
927.972079	0.202124
928.151418	0.201825
928.330739	0.201323
928.510042	0.201451
928.689327	0.200560
928.868593	0.200077
929.047841	0.199887
929.227071	0.199721
929.406283	0.198643
929.585476	0.197856
929.764652	0.196693
929.943809	0.196019
930.122948	0.194983
930.302068	0.194997
930.481171	0.195052
930.660255	0.193567
930.839321	0.192243
931.018369	0.191938
931.197398	0.191706
931.376409	0.191417
931.555402	0.191226
931.734377	0.190565
931.913334	0.189519
932.092272	0.188844
932.271192	0.188492
932.450094	0.187709
932.628978	0.187558
932.807844	0.186500
932.986691	0.185565
933.165520	0.185426
933.344331	0.185592
933.523123	0.185188
933.701898	0.183618
933.880654	0.183294
934.059392	0.183217
934.238111	0.182594
934.416813	0.182207
934.595496	0.182055
934.774161	0.180439
934.952808	0.179637
935.131437	0.178738
935.310047	0.178988
935.488639	0.178288
935.667213	0.177731
935.845769	0.176431
936.024306	0.175694
936.202825	0.175636
936.381326	0.175252
936.559809	0.174611
936.738274	0.174483
936.916720	0.173463
937.095148	0.172737
937.273558	0.171787
937.451950	0.171113
937.630323	0.171617
937.808678	0.170215
937.987015	0.169392
938.165334	0.169048
938.343635	0.167927
938.521917	0.167356
938.700181	0.167752
938.878427	0.167511
939.056655	0.167318
939.234864	0.165795
939.413055	0.165922
939.591228	0.165646
939.769383	0.163784
939.947519	0.162965
940.125638	0.162578
940.303738	0.161540
940.481820	0.161042
940.659883	0.160721
940.837929	0.160242
941.015956	0.159330
941.193965	0.158406
941.371955	0.158587
941.549928	0.157631
941.727882	0.156267
941.905818	0.156290
942.083736	0.154591
942.261636	0.153452
942.439517	0.153329
942.617380	0.151631
942.795225	0.151709
942.973052	0.150514
943.150860	0.150915
943.328651	0.151061
943.506423	0.149906
943.684176	0.149206
943.861912	0.148555
944.039629	0.147571
944.217328	0.149473
944.395009	0.148052
944.572672	0.146850
944.750317	0.146648
944.927943	0.144728
945.105551	0.142166
945.283141	0.142797
945.460712	0.141814
945.638265	0.141082
945.815801	0.138751
945.993317	0.137835
946.170816	0.137887
946.348297	0.135263
946.525759	0.136124
946.703203	0.136128
946.880629	0.134274
947.058036	0.133450
947.235425	0.132513
947.412797	0.132198
947.590149	0.132075
947.767484	0.131419
947.944800	0.132491
948.122099	0.131982
948.299379	0.131112
948.476640	0.130910
948.653884	0.130379
948.831109	0.128908
949.008316	0.126928
949.185505	0.127176
949.362676	0.126888
949.539828	0.125371
949.716962	0.122964
949.894078	0.120969
950.071176	0.120805
950.248256	0.120498
950.425317	0.120925
950.602360	0.118355
950.779385	0.116909
950.956391	0.114930
951.133380	0.112818
951.310350	0.113179
951.487302	0.114452
951.664235	0.113620
951.841151	0.111926
952.018048	0.111539
952.194927	0.114180
952.371788	0.113200
952.548631	0.114632
952.725455	0.114743
952.902261	0.114238
953.079049	0.113554
953.255819	0.112970
953.432570	0.115596
953.609303	0.113269
953.786018	0.112485
953.962715	0.111124
954.139394	0.109891
954.316054	0.109939
954.492696	0.109566
954.669320	0.109246
954.845926	0.108884
955.022513	0.106094
955.199083	0.108221
955.375634	0.107687
955.552166	0.108276
955.728681	0.107763
955.905177	0.107754
956.081655	0.107458
956.258115	0.107740
956.434557	0.107841
956.610980	0.106753
956.787385	0.103971
956.963772	0.103134
957.140141	0.102251
957.316492	0.100786
957.492824	0.099451
957.669138	0.098811
957.845434	0.098108
958.021712	0.097670
958.197971	0.098199
958.374212	0.099214
958.550435	0.099165
958.726640	0.097313
958.902826	0.097628
959.078995	0.098241
959.255145	0.097393
959.431277	0.096055
959.607390	0.094175
959.783486	0.094663
959.959563	0.093537
960.135622	0.091067
960.311662	0.091154
960.487685	0.090301
960.663689	0.088154
960.839675	0.087881
961.015643	0.089364
961.191593	0.090340
961.367524	0.089256
961.543437	0.090496
961.719332	0.091622
961.895209	0.092471
962.071067	0.092178
962.246907	0.094049
962.422730	0.092925
962.598533	0.092542
962.774319	0.092551
962.950086	0.090304
963.125835	0.090382
963.301566	0.090231
963.477279	0.089874
963.652973	0.089419
963.828650	0.089282
964.004308	0.089368
964.179947	0.089225
964.355569	0.086924
964.531172	0.087323
964.706757	0.084640
964.882324	0.083977
965.057873	0.084028
965.233403	0.084397
965.408916	0.084742
965.584410	0.084310
965.759885	0.085171
965.935343	0.084319
966.110782	0.085311
966.286203	0.084743
966.461606	0.086442
966.636991	0.085037
966.812357	0.084999
966.987705	0.082347
967.163035	0.083878
967.338347	0.079281
967.513641	0.079593
967.688916	0.078371
967.864173	0.079635
968.039412	0.078635
968.214632	0.079736
968.389835	0.080010
968.565019	0.080758
968.740185	0.079075
968.915333	0.081138
969.090462	0.082406
969.265573	0.083118
969.440667	0.084988
969.615741	0.084975
969.790798	0.084810
969.965836	0.086123
970.140856	0.086669
970.315858	0.087526
970.490842	0.087452
970.665808	0.087193
970.840755	0.087151
971.015684	0.084900
971.190595	0.083869
971.365487	0.082230
971.540362	0.080130
971.715218	0.079876
971.890056	0.079860
972.064875	0.077815
972.239677	0.078434
972.414460	0.081012
972.589225	0.081745
972.763972	0.081195
972.938700	0.082506
973.113411	0.082231
973.288103	0.082087
973.462777	0.081636
973.637432	0.085401
973.812070	0.084598
973.986689	0.082579
974.161290	0.081851
974.335873	0.082201
974.510437	0.082735
974.684984	0.084318
974.859512	0.086197
975.034022	0.087369
975.208513	0.085316
975.382987	0.083672
975.557442	0.084972
975.731879	0.085332
975.906298	0.086778
976.080698	0.086776
976.255080	0.085375
976.429445	0.082060
976.603790	0.080098
976.778118	0.081504
976.952427	0.083032
977.126719	0.081077
977.300992	0.081481
977.475246	0.079290
977.649483	0.076289
977.823701	0.077190
977.997901	0.079083
978.172083	0.079587
978.346247	0.078399
978.520392	0.079452
978.694519	0.079248
978.868628	0.079268
979.042719	0.080652
979.216791	0.083113
979.390845	0.082414
979.564882	0.082905
979.738899	0.083538
979.912899	0.081974
980.086880	0.082109
980.260843	0.084411
980.434788	0.083785
980.608715	0.083127
980.782623	0.083105
980.956514	0.084072
981.130386	0.083182
981.304240	0.081833
981.478075	0.082812
981.651892	0.083490
981.825692	0.081958
981.999472	0.081387
982.173235	0.083047
982.346980	0.083310
982.520706	0.083319
982.694414	0.083473
982.868104	0.084714
983.041775	0.084988
983.215428	0.084494
983.389064	0.085251
983.562680	0.085985
983.736279	0.086427
983.909860	0.087299
984.083422	0.086417
984.256966	0.086229
984.430491	0.085435
984.603999	0.086733
984.777488	0.085200
984.950959	0.085403
985.124412	0.085189
985.297847	0.082239
985.471263	0.083207
985.644661	0.082849
985.818041	0.083205
985.991403	0.082235
986.164747	0.083955
986.338072	0.086105
986.511379	0.084345
986.684668	0.084412
986.857938	0.087597
987.031191	0.086581
987.204425	0.086394
987.377641	0.086661
987.550839	0.088197
987.724018	0.085650
987.897179	0.083944
988.070322	0.085524
988.243447	0.086469
988.416554	0.083673
988.589642	0.083459
988.762712	0.084361
988.935764	0.084885
989.108798	0.083996
989.281813	0.085584
989.454811	0.084684
989.627790	0.083724
989.800751	0.083069
989.973693	0.083343
990.146617	0.083962
990.319524	0.084634
990.492412	0.084044
990.665281	0.084775
990.838133	0.082224
991.010966	0.083532
991.183781	0.084423
991.356578	0.083616
991.529356	0.083467
991.702117	0.081461
991.874859	0.078075
992.047583	0.078509
992.220288	0.079098
992.392976	0.080499
992.565645	0.080270
992.738296	0.080931
992.910929	0.082375
993.083543	0.082964
993.256139	0.084649
993.428718	0.088420
993.601277	0.087784
993.773819	0.087039
993.946342	0.085599
994.118848	0.084627
994.291335	0.082126
994.463803	0.081776
994.636254	0.083105
994.808686	0.083425
994.981100	0.082611
995.153496	0.082723
995.325874	0.083033
995.498233	0.083517
995.670574	0.083180
995.842897	0.084752
996.015202	0.084946
996.187488	0.084451
996.359757	0.084353
996.532007	0.082648
996.704239	0.084012
996.876452	0.084974
997.048648	0.087166
997.220825	0.087803
997.392984	0.086728
997.565124	0.086593
997.737247	0.086063
997.909351	0.083889
998.081437	0.084098
998.253505	0.082965
998.425554	0.080677
998.597586	0.078517
998.769599	0.079996
998.941594	0.080592
999.113571	0.080428
999.285529	0.080559
999.457469	0.081848
999.629391	0.081973
999.801295	0.082308
999.973181	0.082609
1000.145048	0.083822
1000.316897	0.084235
1000.488728	0.083836
1000.660541	0.082178
1000.832335	0.083110
1001.004111	0.083912
1001.175869	0.084296
1001.347609	0.083550
1001.519331	0.085288
1001.691034	0.084277
1001.862719	0.084627
1002.034386	0.083962
1002.206035	0.085111
1002.377665	0.084865
1002.549277	0.084940
1002.720871	0.085722
1002.892447	0.084819
1003.064004	0.085119
1003.235544	0.085785
1003.407065	0.085195
1003.578568	0.084935
1003.750052	0.084995
1003.921519	0.084822
1004.092967	0.084566
1004.264397	0.083876
1004.435809	0.084332
1004.607202	0.083103
1004.778577	0.083413
1004.949934	0.082610
1005.121273	0.084879
1005.292594	0.085265
1005.463896	0.084851
1005.635180	0.084504
1005.806446	0.085737
1005.977694	0.085912
1006.148923	0.086420
1006.320135	0.086763
1006.491328	0.087107
1006.662503	0.086653
1006.833659	0.088726
1007.004798	0.088005
1007.175918	0.087874
1007.347020	0.087622
1007.518103	0.087946
1007.689169	0.087805
1007.860216	0.085840
1008.031245	0.085737
1008.202256	0.085890
1008.373248	0.083656
1008.544223	0.085760
1008.715179	0.085960
1008.886117	0.085913
1009.057036	0.086758
1009.227938	0.087460
1009.398821	0.089273
1009.569686	0.089841
1009.740533	0.088643
1009.911361	0.089597
1010.082172	0.087556
1010.252964	0.087418
1010.423738	0.087654
1010.594493	0.087424
1010.765231	0.084561
1010.935950	0.083710
1011.106651	0.083972
1011.277334	0.082707
1011.447998	0.081703
1011.618645	0.081842
1011.789273	0.081233
1011.959882	0.080549
1012.130474	0.080758
1012.301048	0.082990
1012.471603	0.082637
1012.642140	0.080982
1012.812658	0.082197
1012.983159	0.082386
1013.153641	0.080956
1013.324105	0.081017
1013.494551	0.080149
1013.664979	0.079710
1013.835388	0.079551
1014.005779	0.080476
1014.176152	0.080914
1014.346507	0.080978
1014.516843	0.082848
1014.687162	0.083422
1014.857462	0.084854
1015.027744	0.086076
1015.198007	0.086432
1015.368252	0.086262
1015.538480	0.085440
1015.708689	0.085764
1015.878879	0.085090
1016.049052	0.081905
1016.219206	0.083208
1016.389342	0.081245
1016.559460	0.081479
1016.729559	0.080842
1016.899641	0.080414
1017.069704	0.081293
1017.239749	0.080282
1017.409775	0.080643
1017.579784	0.081292
1017.749774	0.082205
1017.919746	0.083554
1018.089700	0.083710
1018.259635	0.084240
1018.429553	0.085687
1018.599452	0.086221
1018.769333	0.086504
1018.939195	0.087954
1019.109040	0.087975
1019.278866	0.086368
1019.448674	0.087273
1019.618464	0.087346
1019.788235	0.087270
1019.957989	0.087478
1020.127724	0.085410
1020.297441	0.085923
1020.467139	0.086713
1020.636820	0.087164
1020.806482	0.089040
1020.976126	0.088768
1021.145752	0.088976
1021.315359	0.088539
1021.484948	0.087578
1021.654519	0.089959
1021.824072	0.091087
1021.993607	0.089927
1022.163123	0.091106
1022.332621	0.090322
1022.502101	0.088983
1022.671563	0.088551
1022.841007	0.086581
1023.010432	0.085724
1023.179839	0.084283
1023.349228	0.083682
1023.518598	0.084016
1023.687951	0.082760
1023.857285	0.083091
1024.026601	0.082624
1024.195899	0.081804
1024.365178	0.083816
1024.534439	0.085163
1024.703682	0.085529
1024.872907	0.084834
1025.042114	0.083433
1025.211302	0.084388
1025.380472	0.083626
1025.549624	0.084900
1025.718758	0.084676
1025.887873	0.085278
1026.056970	0.084375
1026.226049	0.085678
1026.395110	0.085485
1026.564153	0.084671
1026.733177	0.083149
1026.902183	0.082455
1027.071171	0.082865
1027.240141	0.083137
1027.409092	0.082873
1027.578026	0.084418
1027.746940	0.083238
1027.915837	0.083645
1028.084716	0.084757
1028.253576	0.086755
1028.422418	0.086753
1028.591242	0.087698
1028.760048	0.088126
1028.928835	0.087985
1029.097604	0.085341
1029.266355	0.085868
1029.435088	0.086614
1029.603803	0.086617
1029.772499	0.086301
1029.941177	0.086591
1030.109837	0.085748
1030.278478	0.085683
1030.447102	0.085207
1030.615707	0.086630
1030.784294	0.085313
1030.952863	0.085453
1031.121413	0.085376
1031.289945	0.084469
1031.458460	0.085732
1031.626955	0.084078
1031.795433	0.083437
1031.963892	0.083838
1032.132334	0.086342
1032.300756	0.087222
1032.469161	0.088204
1032.637548	0.087077
1032.805916	0.089097
1032.974266	0.088326
1033.142598	0.087470
1033.310911	0.088275
1033.479207	0.089136
1033.647484	0.084691
1033.815743	0.083945
1033.983983	0.082303
1034.152206	0.084278
1034.320410	0.081915
1034.488596	0.081829
1034.656764	0.083614
1034.824914	0.083438
1034.993045	0.080472
1035.161158	0.081750
1035.329253	0.081296
1035.497330	0.082345
1035.665388	0.080392
1035.833428	0.081185
1036.001450	0.081107
1036.169454	0.079426
1036.337440	0.079056
1036.505407	0.082099
1036.673356	0.082632
1036.841287	0.082905
1037.009200	0.081240
1037.177094	0.081411
1037.344970	0.079684
1037.512828	0.079637
1037.680668	0.082159
1037.848489	0.082402
1038.016293	0.080569
1038.184078	0.081555
1038.351845	0.082269
1038.519593	0.084238
1038.687324	0.084984
1038.855036	0.086631
1039.022730	0.085733
1039.190406	0.084602
1039.358063	0.083656
1039.525702	0.084573
1039.693323	0.083140
1039.860926	0.084118
1040.028511	0.083199
1040.196077	0.082921
1040.363625	0.082908
1040.531155	0.084104
1040.698667	0.084791
1040.866161	0.088216
1041.033636	0.086791
1041.201093	0.086528
1041.368532	0.087424
1041.535952	0.087466
1041.703355	0.088278
1041.870739	0.088521
1042.038105	0.089312
1042.205452	0.087713
1042.372782	0.084412
1042.540093	0.086620
1042.707386	0.088201
1042.874661	0.086671
1043.041918	0.085943
1043.209156	0.088154
1043.376376	0.087948
1043.543578	0.089323
1043.710762	0.089189
1043.877927	0.090485
1044.045074	0.089469
1044.212203	0.089340
1044.379314	0.088989
1044.546407	0.089489
1044.713481	0.086801
1044.880537	0.086774
1045.047575	0.085504
1045.214595	0.085923
1045.381596	0.084663
1045.548579	0.085661
1045.715544	0.083606
1045.882491	0.084776
1046.049420	0.085218
1046.216330	0.085480
1046.383222	0.083887
1046.550096	0.083808
1046.716951	0.083127
1046.883789	0.083044
1047.050608	0.081198
1047.217409	0.081319
1047.384192	0.078380
1047.550956	0.076513
1047.717703	0.077931
1047.884431	0.079971
1048.051140	0.079860
1048.217832	0.081901
1048.384505	0.082715
1048.551161	0.084202
1048.717798	0.083871
1048.884416	0.086915
1049.051017	0.088425
1049.217599	0.086918
1049.384163	0.085708
1049.550709	0.085223
1049.717237	0.083812
1049.883746	0.083611
1050.050237	0.083269
1050.216710	0.084995
1050.383165	0.084709
1050.549601	0.084737
1050.716019	0.086356
1050.882420	0.087106
1051.048801	0.088637
1051.215165	0.088709
1051.381510	0.090832
1051.547837	0.091514
1051.714146	0.091514
1051.880437	0.089878
1052.046709	0.089393
1052.212964	0.089689
1052.379200	0.090408
1052.545417	0.088578
1052.711617	0.089762
1052.877798	0.089042
1053.043961	0.089322
1053.210106	0.090234
1053.376233	0.091982
1053.542341	0.091494
1053.708432	0.092699
1053.874504	0.090670
1054.040557	0.090072
1054.206593	0.089460
1054.372610	0.088721
1054.538609	0.086019
1054.704590	0.084836
1054.870553	0.083602
1055.036497	0.084365
1055.202424	0.081915
1055.368331	0.082910
1055.534221	0.084347
1055.700093	0.084990
1055.865946	0.083305
1056.031781	0.086343
1056.197598	0.084989
1056.363397	0.086350
1056.529177	0.086887
1056.694939	0.087553
1056.860683	0.088875
1057.026409	0.087711
1057.192116	0.087635
1057.357806	0.089206
1057.523477	0.089832
1057.689130	0.092108
1057.854764	0.092824
1058.020381	0.091757
1058.185979	0.090170
1058.351559	0.089532
1058.517120	0.090265
1058.682664	0.090401
1058.848189	0.090398
1059.013696	0.090016
1059.179185	0.088712
1059.344656	0.085931
1059.510108	0.088048
1059.675542	0.089829
1059.840958	0.091574
1060.006356	0.090282
1060.171735	0.090289
1060.337096	0.091360
1060.502439	0.090801
1060.667764	0.093392
1060.833071	0.094281
1060.998359	0.093861
1061.163629	0.091981
1061.328881	0.090378
1061.494115	0.092044
1061.659330	0.091996
1061.824527	0.090571
1061.989706	0.088172
1062.154867	0.086855
1062.320010	0.087793
1062.485134	0.087546
1062.650240	0.087364
1062.815328	0.086246
1062.980398	0.087667
1063.145449	0.088008
1063.310482	0.087054
1063.475497	0.089406
1063.640494	0.089411
1063.805473	0.090342
1063.970433	0.090910
1064.135375	0.092752
1064.300299	0.094885
1064.465204	0.093489
1064.630092	0.091918
1064.794961	0.093232
1064.959812	0.091919
1065.124645	0.092798
1065.289459	0.092822
1065.454256	0.090360
1065.619034	0.089977
1065.783793	0.085848
1065.948535	0.086127
1066.113258	0.086479
1066.277964	0.086872
1066.442651	0.087872
1066.607319	0.087415
1066.771970	0.087082
1066.936602	0.088275
1067.101216	0.089573
1067.265812	0.091922
1067.430389	0.090675
1067.594949	0.090735
1067.759490	0.090382
1067.924013	0.088253
1068.088518	0.087950
1068.253004	0.087453
1068.417472	0.085961
1068.581922	0.083491
1068.746354	0.083547
1068.910768	0.082277
1069.075163	0.081686
1069.239540	0.081346
1069.403899	0.083426
1069.568240	0.084163
1069.732562	0.082450
1069.896866	0.082685
1070.061152	0.085857
1070.225420	0.086171
1070.389670	0.087349
1070.553901	0.089857
1070.718114	0.089188
1070.882309	0.087916
1071.046486	0.088596
1071.210644	0.088441
1071.374784	0.091459
1071.538906	0.088566
1071.703010	0.089602
1071.867096	0.091476
1072.031163	0.091358
1072.195212	0.090709
1072.359243	0.091944
1072.523256	0.089735
1072.687250	0.091279
1072.851226	0.090241
1073.015184	0.089597
1073.179124	0.088945
1073.343045	0.088312
1073.506949	0.089491
1073.670834	0.093587
1073.834701	0.094464
1073.998549	0.097318
1074.162380	0.098483
1074.326192	0.096535
1074.489986	0.097739
1074.653761	0.096415
1074.817519	0.095585
1074.981258	0.093234
1075.144979	0.090536
1075.308682	0.086917
1075.472367	0.086202
1075.636033	0.085527
1075.799681	0.089302
1075.963311	0.089228
1076.126923	0.090636
1076.290516	0.094934
1076.454092	0.094915
1076.617649	0.095452
1076.781187	0.096715
1076.944708	0.094943
1077.108210	0.095149
1077.271695	0.091540
1077.435160	0.092701
1077.598608	0.094599
1077.762038	0.091600
1077.925449	0.092960
1078.088842	0.094143
1078.252217	0.096326
1078.415573	0.095944
1078.578912	0.095348
1078.742232	0.098165
1078.905534	0.097873
1079.068817	0.096770
1079.232083	0.097935
1079.395330	0.095712
1079.558559	0.094572
1079.721770	0.093041
1079.884962	0.094485
1080.048136	0.095308
1080.211293	0.092925
1080.374430	0.092645
1080.537550	0.090598
1080.700651	0.088689
1080.863735	0.088885
1081.026800	0.091722
1081.189846	0.093743
1081.352875	0.095751
1081.515885	0.097370
1081.678877	0.098757
1081.841851	0.098258
1082.004807	0.100700
1082.167744	0.101447
1082.330663	0.100257
1082.493564	0.097393
1082.656447	0.097656
1082.819312	0.094623
1082.982158	0.092098
1083.144986	0.091147
1083.307796	0.092901
1083.470587	0.090037
1083.633361	0.090241
1083.796116	0.092598
1083.958853	0.092408
1084.121571	0.091376
1084.284272	0.090066
1084.446954	0.092156
1084.609618	0.093622
1084.772264	0.092763
1084.934892	0.095356
1085.097501	0.094624
1085.260092	0.096352
1085.422665	0.098263
1085.585220	0.097829
1085.747756	0.101471
1085.910274	0.099687
1086.072774	0.099688
1086.235256	0.101318
1086.397720	0.099073
1086.560165	0.100089
1086.722592	0.099280
1086.885001	0.099792
1087.047392	0.100797
1087.209764	0.098770
1087.372119	0.100470
1087.534455	0.101365
1087.696772	0.100333
1087.859072	0.103436
1088.021353	0.103910
1088.183616	0.104275
1088.345861	0.103880
1088.508088	0.106617
1088.670296	0.106221
1088.832486	0.104455
1088.994658	0.102272
1089.156812	0.101543
1089.318948	0.101127
1089.481065	0.100073
1089.643164	0.096632
1089.805245	0.097016
1089.967308	0.093128
1090.129352	0.095652
1090.291378	0.094631
1090.453386	0.095044
1090.615376	0.095687
1090.777347	0.093464
1090.939301	0.093097
1091.101236	0.095647
1091.263153	0.092478
1091.425051	0.090809
1091.586932	0.089870
1091.748794	0.092574
1091.910638	0.093579
1092.072463	0.095938
1092.234271	0.098034
1092.396060	0.101595
1092.557831	0.102546
1092.719584	0.105976
1092.881319	0.109538
1093.043035	0.109931
1093.204733	0.109116
1093.366413	0.111703
1093.528075	0.108682
1093.689718	0.109869
1093.851343	0.108604
1094.012950	0.107801
1094.174539	0.106420
1094.336110	0.107538
1094.497662	0.106046
1094.659196	0.104940
1094.820712	0.101136
1094.982210	0.102991
1095.143689	0.101671
1095.305151	0.098062
1095.466594	0.099001
1095.628018	0.100489
1095.789425	0.101557
1095.950813	0.102451
1096.112183	0.103746
1096.273535	0.103276
1096.434869	0.102389
1096.596184	0.103288
1096.757482	0.106647
1096.918761	0.103982
1097.080021	0.100585
1097.241264	0.102551
1097.402488	0.105456
1097.563694	0.105073
1097.724882	0.108345
1097.886052	0.106336
1098.047203	0.106503
1098.208336	0.102095
1098.369451	0.107801
1098.530548	0.111245
1098.691627	0.102979
1098.852687	0.099597
1099.013729	0.100942
1099.174753	0.100109
1099.335758	0.104214
1099.496746	0.099787
1099.657715	0.106046
1099.818666	0.101738
1099.979599	0.103016
1100.140513	0.104603
1100.301409	0.104449
1100.462287	0.103577
1100.623147	0.104688
1100.783989	0.103607
1100.944812	0.106148
1101.105617	0.105751
1101.266404	0.107514
1101.427173	0.103305
1101.587923	0.101754
1101.748656	0.103385
1101.909370	0.104142
1102.070066	0.107697
1102.230743	0.107117
1102.391403	0.108040
1102.552044	0.105625
1102.712667	0.103941
1102.873271	0.105326
1103.033858	0.107904
1103.194426	0.107415
1103.354976	0.105878
1103.515508	0.101110
1103.676021	0.105566
1103.836517	0.103717
1103.996994	0.105205
1104.157453	0.103832
1104.317893	0.105074
1104.478316	0.107581
1104.638720	0.107168
1104.799106	0.106254
1104.959474	0.106363
1105.119823	0.100795
1105.280155	0.099982
1105.440468	0.095313
1105.600763	0.100513
1105.761039	0.100659
1105.921298	0.099959
1106.081538	0.100017
1106.241760	0.105602
1106.401964	0.107855
1106.562149	0.108540
1106.722316	0.114198
1106.882465	0.116996
1107.042596	0.116353
1107.202709	0.116260
1107.362803	0.112905
1107.522879	0.112762
1107.682937	0.107952
1107.842977	0.109872
1108.002999	0.112235
1108.163002	0.106473
1108.322987	0.106712
1108.482954	0.103641
1108.642902	0.105422
1108.802833	0.109297
1108.962745	0.107257
1109.122639	0.112038
1109.282515	0.108480
1109.442372	0.107389
1109.602211	0.113192
1109.762032	0.113070
1109.921835	0.116748
1110.081620	0.111495
1110.241386	0.107038
1110.401134	0.110789
1110.560864	0.108635
1110.720576	0.111987
1110.880269	0.109188
1111.039945	0.104920
1111.199602	0.107022
1111.359240	0.106166
1111.518861	0.105379
1111.678463	0.107198
1111.838047	0.103810
1111.997613	0.099626
1112.157161	0.093824
1112.316690	0.094458
1112.476202	0.098134
1112.635695	0.098807
1112.795169	0.098731
1112.954626	0.104315
1113.114064	0.103677
1113.273484	0.106589
1113.432886	0.109073
1113.592270	0.115377
1113.751635	0.116122
1113.910983	0.118680
1114.070312	0.114221
1114.229622	0.111896
1114.388915	0.108824
1114.548189	0.111525
1114.707445	0.111256
1114.866683	0.110907
1115.025903	0.106012
1115.185104	0.110655
1115.344287	0.103033
1115.503452	0.104846
1115.662599	0.100143
1115.821727	0.102907
1115.980838	0.103502
1116.139930	0.102656
1116.299004	0.102337
1116.458059	0.101047
1116.617097	0.096477
1116.776116	0.098585
1116.935117	0.099076
1117.094099	0.101748
1117.253064	0.098835
1117.412010	0.097460
1117.570938	0.101886
1117.729848	0.101052
1117.888740	0.101089
1118.047613	0.100541
1118.206468	0.102426
1118.365305	0.100726
1118.524124	0.101863
1118.682924	0.104599
1118.841707	0.105735
1119.000471	0.103824
1119.159216	0.102928
1119.317944	0.105884
1119.476653	0.102172
1119.635344	0.101451
1119.794017	0.105861
1119.952672	0.108409
1120.111308	0.107449
1120.269927	0.107276
1120.428527	0.106500
1120.587108	0.105935
1120.745672	0.106296
1120.904217	0.116052
1121.062744	0.119783
1121.221253	0.120198
1121.379744	0.121166
1121.538216	0.124056
1121.696671	0.124826
1121.855107	0.125410
1122.013524	0.132612
1122.171924	0.129988
1122.330305	0.123947
1122.488668	0.117515
1122.647013	0.114550
1122.805340	0.110173
1122.963648	0.110730
1123.121938	0.107565
1123.280210	0.102906
1123.438464	0.099734
1123.596700	0.103263
1123.754917	0.107028
1123.913116	0.113804
1124.071297	0.113998
1124.229459	0.116241
1124.387604	0.112620
1124.545730	0.124306
1124.703838	0.128710
1124.861928	0.128464
1125.019999	0.129940
1125.178052	0.123554
1125.336088	0.115754
1125.494104	0.115598
1125.652103	0.112633
1125.810083	0.112030
1125.968045	0.105612
1126.125989	0.106982
1126.283915	0.101281
1126.441823	0.098658
1126.599712	0.103413
1126.757583	0.108784
1126.915436	0.109724
1127.073270	0.116447
1127.231087	0.121935
1127.388885	0.118913
1127.546665	0.116822
1127.704426	0.121881
1127.862170	0.120622
1128.019895	0.121993
1128.177602	0.125235
1128.335291	0.124556
1128.492961	0.117253
1128.650614	0.115476
1128.808248	0.118609
1128.965864	0.117024
1129.123461	0.118038
1129.281041	0.119781
1129.438602	0.118927
1129.596145	0.110588
1129.753670	0.108536
1129.911176	0.114943
1130.068665	0.114417
1130.226135	0.116166
1130.383587	0.118561
1130.541020	0.121646
1130.698436	0.119962
1130.855833	0.119143
1131.013212	0.119226
1131.170573	0.122045
1131.327915	0.122641
1131.485239	0.123333
1131.642545	0.122008
1131.799833	0.125883
1131.957103	0.121660
1132.114354	0.124845
1132.271588	0.126530
1132.428803	0.131895
1132.585999	0.133994
1132.743178	0.134739
1132.900338	0.128795
1133.057480	0.126131
1133.214604	0.116841
1133.371710	0.122572
1133.528797	0.122169
1133.685866	0.123140
1133.842917	0.119891
1133.999950	0.119928
1134.156964	0.117873
1134.313960	0.116845
1134.470938	0.116973
1134.627898	0.123907
1134.784840	0.123400
1134.941763	0.116536
1135.098668	0.112715
1135.255555	0.112752
1135.412424	0.107692
1135.569274	0.106358
1135.726107	0.111566
1135.882921	0.111851
1136.039716	0.105412
1136.196494	0.104910
1136.353253	0.108610
1136.509995	0.104974
1136.666717	0.106948
1136.823422	0.109373
1136.980109	0.115850
1137.136777	0.116594
1137.293427	0.121759
1137.450059	0.125884
1137.606672	0.124489
1137.763267	0.123161
1137.919844	0.124577
1138.076403	0.128737
1138.232944	0.126851
1138.389466	0.118004
1138.545971	0.116320
1138.702457	0.102865
1138.858924	0.103106
1139.015374	0.101378
1139.171805	0.102582
1139.328218	0.106366
1139.484613	0.106361
1139.640990	0.110888
1139.797348	0.108462
1139.953688	0.113257
1140.110010	0.120324
1140.266314	0.121661
1140.422600	0.115943
1140.578867	0.119783
1140.735116	0.124015
1140.891347	0.125630
1141.047559	0.118846
1141.203754	0.122355
1141.359930	0.116786
1141.516088	0.120012
1141.672228	0.117290
1141.828349	0.125291
1141.984452	0.128022
1142.140537	0.126581
1142.296604	0.124991
1142.452653	0.118730
1142.608683	0.116829
1142.764695	0.118412
1142.920689	0.116818
1143.076665	0.117707
1143.232622	0.112862
1143.388562	0.106221
1143.544483	0.102632
1143.700385	0.101019
1143.856270	0.110367
1144.012136	0.122117
1144.167985	0.122951
1144.323814	0.127014
1144.479626	0.125514
1144.635420	0.128127
1144.791195	0.128718
1144.946952	0.128239
1145.102691	0.130717
1145.258411	0.133622
1145.414113	0.131861
1145.569798	0.125143
1145.725463	0.122144
1145.881111	0.123763
1146.036741	0.125236
1146.192352	0.128906
1146.347945	0.137067
1146.503519	0.131890
1146.659076	0.139447
1146.814614	0.129786
1146.970134	0.142957
1147.125636	0.143270
1147.281120	0.149322
1147.436585	0.153940
1147.592032	0.152822
1147.747461	0.151414
1147.902872	0.164620
1148.058265	0.158413
1148.213639	0.163577
1148.368995	0.147447
1148.524333	0.146493
1148.679653	0.140508
1148.834954	0.127097
1148.990237	0.125682
1149.145502	0.113699
1149.300749	0.102519
1149.455977	0.100922
1149.611188	0.099786
1149.766380	0.106512
1149.921553	0.095483
1150.076709	0.097736
1150.231846	0.103092
1150.386966	0.103767
1150.542066	0.114613
1150.697149	0.121305
1150.852214	0.117723
1151.007260	0.120597
1151.162288	0.123886
1151.317298	0.135476
1151.472289	0.139901
1151.627263	0.145405
1151.782218	0.137297
1151.937155	0.138277
1152.092073	0.131202
1152.246974	0.130886
1152.401856	0.133383
1152.556720	0.129079
1152.711566	0.125458
1152.866393	0.122467
1153.021203	0.118657
1153.175994	0.129907
1153.330767	0.122013
1153.485521	0.123313
1153.640258	0.124333
1153.794976	0.111951
1153.949676	0.117566
1154.104358	0.116849
1154.259021	0.117808
1154.413667	0.107578
1154.568294	0.097259
1154.722903	0.102109
1154.877493	0.091690
1155.032066	0.093608
1155.186620	0.106275
1155.341156	0.099703
1155.495674	0.105279
1155.650173	0.100081
1155.804654	0.113339
1155.959118	0.119436
1156.113562	0.122615
1156.267989	0.141081
1156.422397	0.146162
1156.576788	0.142790
1156.731160	0.144152
1156.885513	0.140364
1157.039849	0.131814
1157.194166	0.134735
1157.348465	0.133641
1157.502746	0.137358
1157.657009	0.123576
1157.811253	0.122475
1157.965479	0.123750
1158.119687	0.128648
1158.273877	0.130851
1158.428048	0.137383
1158.582201	0.140865
1158.736337	0.142270
1158.890453	0.130929
1159.044552	0.131190
1159.198632	0.122502
1159.352694	0.127177
1159.506738	0.117966
1159.660764	0.114126
1159.814771	0.118346
1159.968761	0.100257
1160.122732	0.101912
1160.276685	0.109227
1160.430619	0.107796
1160.584535	0.105927
1160.738434	0.102308
1160.892313	0.104803
1161.046175	0.110157
1161.200019	0.109353
1161.353844	0.119723
1161.507651	0.114220
1161.661440	0.104247
1161.815210	0.112802
1161.968962	0.119437
1162.122697	0.126636
1162.276412	0.130383
1162.430110	0.125247
1162.583789	0.125597
1162.737451	0.129206
1162.891094	0.138914
1163.044718	0.160529
1163.198325	0.155729
1163.351913	0.149556
1163.505483	0.139163
1163.659035	0.138526
1163.812569	0.140995
1163.966084	0.147292
1164.119581	0.144291
1164.273060	0.129304
1164.426521	0.109211
1164.579964	0.117293
1164.733388	0.123207
1164.886794	0.121337
1165.040182	0.122446
1165.193551	0.116895
1165.346903	0.114028
1165.500236	0.118698
1165.653551	0.126170
1165.806848	0.129754
1165.960126	0.121783
1166.113386	0.120030
1166.266628	0.114316
1166.419852	0.108810
1166.573058	0.118165
1166.726245	0.122415
1166.879414	0.118345
1167.032565	0.112256
1167.185698	0.122774
1167.338812	0.117420
1167.491909	0.115617
1167.644987	0.109481
1167.798046	0.123913
1167.951088	0.118279
1168.104111	0.111054
1168.257117	0.109928
1168.410103	0.101106
1168.563072	0.096127
1168.716023	0.102200
1168.868955	0.104145
1169.021869	0.112144
1169.174765	0.118771
1169.327642	0.130987
1169.480501	0.129103
1169.633343	0.107215
1169.786165	0.113447
1169.938970	0.110095
1170.091757	0.112175
1170.244525	0.102001
1170.397275	0.115093
1170.550007	0.098139
1170.702720	0.089229
1170.855415	0.085115
1171.008092	0.109230
1171.160751	0.121976
1171.313392	0.122329
1171.466014	0.061868
1171.618619	0.146561
1171.771205	0.146561
1171.923772	0.146561
