sample name	sample
index	899
start time	 04-08-2021  03:27:52 PM
880	0.522343
Peak Time (s)	120.535
Peak Height 	0.5223
calc peak height	120,123
Baseline Time (s)	9.537
Baseline Value 	-0.002076
subtract baseline	10,4
Abs	0.353379
Peak Time (s)	122.037
Peak Height 	0.3534
calc peak height	120,123
Baseline Time (s)	11.036
Baseline Value 	1.055E-4
subtract baseline	10,3
PK_550	0.198178
Peak Time (s)	122.037
Peak Height 	0.1982
calc peak height	120,123
Baseline Time (s)	9.036
Baseline Value 	6.8534E-4
subtract baseline	10,2
PK_880	0.333787
Peak Time (s)	120.038
Peak Height 	0.3338
calc peak height	120,123
Baseline Time (s)	10.536
Baseline Value 	4.146E-4
subtract baseline	10,1


Time (s)	A880-A510	A880-A775	A880-A975	A880	I510	I775	I975	I880	
0.035500	-0.001762	-0.001495	-0.002084	0.001365	6876.523784	42359.155796	3938.433849	22774.141418
0.535000	-0.006404	-0.001717	-0.001853	0.005311	6799.281920	41982.929912	3929.671816	22594.656448
1.036000	-0.000838	-0.000600	0.000450	0.003150	6868.708503	42278.404056	3940.206522	22692.730333
1.536000	0.000352	0.000295	0.009030	0.001289	6896.469432	42528.765578	3965.279015	22777.615701
2.036500	0.000256	-0.000210	0.002297	0.001254	6895.908597	42485.924596	3949.125286	22779.206994
2.536500	-0.000906	-0.000234	0.002465	0.002318	6875.647673	42387.059860	3946.985512	22730.660593
3.037000	0.001331	-0.001540	0.002081	-0.002574	6940.912483	42713.912245	3957.805054	22954.945064
3.537000	0.000132	0.000312	-0.003895	0.000063	6905.660738	42642.048160	3937.227662	22833.709694
4.035000	-0.000745	-0.002194	0.000277	0.000276	6895.701180	42394.555428	3946.637569	22823.971934
4.535000	-0.000799	-0.000265	-0.003814	0.000786	6890.557612	42523.580781	3935.711336	22800.628673
5.038000	0.000922	-0.000320	0.003121	0.000060	6912.914245	42584.669636	3953.965626	22833.839281
5.536000	-0.000213	-0.000975	0.006014	-0.000197	6904.878405	42548.365035	3961.565816	22845.633388
6.038500	-0.000760	-0.000045	0.002899	0.000573	6892.851350	42563.033555	3952.201594	22810.366585
6.536000	-0.001049	-0.001109	0.003974	0.000167	6893.918968	42503.038836	3955.761366	22828.948952
7.036000	-0.000805	0.000077	0.005610	0.000836	6890.040899	42550.118850	3958.092731	22798.322062
7.537000	-0.000353	-0.000076	-0.004911	0.000120	6900.706997	42601.562170	3934.694570	22831.132986
8.037000	-0.000717	-0.001042	0.002928	-0.000324	6901.433746	42553.872246	3954.426938	22851.467883
8.537000	0.000576	-0.000634	0.004440	-0.000498	6914.866620	42606.891804	3958.486874	22859.435491
9.035500	-0.001835	0.000000	-0.000217	-0.000052	6888.748571	42624.134531	3946.239966	22839.003496
9.537500	-0.000086	0.000109	0.001659	0.000000	6904.238565	42629.297684	3950.602090	22836.610970
10.035500	-0.000154	-0.000371	0.001538	-0.000155	6905.035771	42599.584305	3950.683528	22843.704734
10.535500	0.000000	-0.000139	-0.001355	0.000262	6902.633977	42582.834979	3942.780566	22824.612289
11.035500	0.000205	0.000344	0.000000	0.000382	6903.407614	42615.947112	3945.722382	22819.114454
11.536000	0.001041	0.000546	-0.000211	0.000898	6906.339660	42587.278156	3943.989747	22795.486569
12.036500	-0.001473	-0.000367	0.002448	-0.000619	6897.230174	42642.410162	3953.980878	22865.022006
12.537000	-0.001407	-0.001683	0.005022	0.002189	6872.263935	42267.451304	3953.418503	22736.526134
13.034500	0.000235	0.000294	0.001959	-0.000235	6909.323832	42667.665605	3951.883104	22847.370301
13.537500	-0.000824	-0.000288	-0.004737	-0.000346	6900.653735	42624.634632	3936.203460	22852.459400
14.038000	0.000608	-0.000926	-0.000694	0.002005	6892.267984	42352.685040	3940.210809	22744.933280
14.535000	-0.002662	-0.000238	0.003789	0.003696	6847.284998	42261.891450	3946.857562	22667.936075
15.041000	-0.001127	-0.000706	0.002608	-0.000318	6897.637448	42583.984816	3953.642851	22851.187230
15.536000	-0.000068	-0.001004	0.003235	-0.000636	6910.230575	42585.861001	3955.916222	22865.805300
16.036000	0.001778	-0.001006	0.005503	-0.000734	6928.078736	42594.517411	3961.630350	22870.273749
16.536000	-0.004538	-0.000972	0.000827	0.004061	6827.130648	42162.538276	3938.942343	22651.343815
17.036500	0.002320	0.000114	0.002486	-0.002963	6953.659122	42901.238304	3959.723408	22972.883373
17.539500	0.000635	-0.000147	0.002325	0.000574	6905.591764	42553.639993	3950.822685	22810.322516
18.037500	0.000861	0.000133	0.004515	0.001865	6895.850641	42461.506995	3952.976885	22751.292205
18.538000	-0.001986	-0.000262	-0.000877	0.002317	6865.847754	42384.585465	3939.034678	22730.671630
19.035000	-0.000089	-0.000368	0.002368	0.001344	6891.946434	42463.393215	3949.082080	22775.117263
19.535500	-0.001562	-0.000251	0.002356	0.001187	6879.964983	42488.383794	3949.428369	22782.298593
20.035500	-0.000522	0.000157	0.000050	0.001813	6883.727882	42468.484151	3942.435103	22753.698594
20.536000	-0.000186	-0.000304	0.001587	0.002346	6881.933960	42378.181250	3944.823497	22729.364089
21.036000	-0.000179	-0.000434	0.001191	0.001016	6894.110426	42487.273104	3947.052456	22790.110080
21.536500	-0.000561	-0.000296	0.003218	0.001681	6884.571333	42439.323499	3950.310730	22759.724647
22.037000	0.001714	0.000151	0.000066	0.001638	6905.725364	42483.773036	3942.887481	22761.658320
22.536500	-0.002901	-0.000544	0.001072	0.002082	6859.697587	42380.392210	3944.225886	22741.409033
23.037500	-0.000577	-0.000190	-0.000404	0.000983	6890.788300	42512.404859	3943.328429	22791.617993
23.535000	0.002428	0.000777	0.003127	0.001821	6910.593382	42524.242401	3949.758047	22753.335882
24.035000	0.000833	0.000131	0.001215	0.001734	6896.795874	42473.275946	3945.395028	22757.303426
24.535000	0.000347	0.000510	0.004743	0.003088	6880.026942	42384.692015	3950.591728	22695.556921
25.036000	0.001118	0.000940	0.005342	0.002231	6894.860149	42501.749142	3954.088997	22734.631505
25.536000	-0.000854	-0.000200	0.003280	0.001008	6888.032297	42509.283675	3952.071457	22790.483140
26.036500	0.001264	-0.000197	-0.000834	0.001122	6906.327703	42499.133590	3941.974394	22785.236446
26.536500	-0.000278	0.000284	0.000298	0.002919	6875.887106	42379.524869	3940.395030	22703.271969
27.037000	0.000026	0.000396	0.002873	-0.001220	6916.446258	42767.189233	3956.450933	22892.619115
27.537000	-0.000126	0.000874	0.002725	-0.000440	6907.906599	42739.550399	3954.217550	22856.796758
28.037500	-0.004052	-0.000510	-0.004062	0.005022	6822.868181	42117.487361	3925.171362	22607.726300
28.535000	-0.000848	0.000399	-0.001567	-0.000320	6900.202982	42685.029695	3943.660448	22851.274796
29.035500	0.001110	0.000200	0.004442	-0.000107	6916.181478	42647.384808	3957.549086	22841.518148
29.535500	-0.000309	0.000518	0.002673	0.000048	6901.762560	42662.244820	3952.918203	22834.402304
30.036000	-0.000964	-0.000160	0.001409	0.005618	6845.271110	42095.372108	3936.635096	22580.772012
30.536000	-0.001358	0.000548	0.002312	0.003975	6856.535891	42307.691638	3942.671775	22655.238863
31.036500	-0.000911	-0.000492	-0.000388	0.002402	6874.834953	42356.021502	3939.994948	22726.824379
31.539500	0.000463	-0.000142	0.006440	0.000069	6908.637845	42600.147597	3961.955896	22833.460416
32.037000	-0.001586	-0.000273	0.007902	0.004068	6853.643718	42225.056114	3955.827553	22651.033292
32.540000	-0.002967	-0.001097	-0.000540	0.004997	6832.827937	42066.821531	3933.498385	22608.865154
33.037500	-0.000432	0.000089	0.000631	-0.000670	6907.208754	42688.750406	3949.742951	22867.343686
33.535000	0.002143	0.000436	0.005602	-0.001786	6941.138626	42822.794021	3964.423404	22918.665510
34.035500	-0.004424	-0.000193	0.001056	0.004337	6825.684957	42207.951377	3938.830092	22638.816915
34.535500	0.000424	0.000409	0.001241	0.002437	6886.653850	42434.641311	3943.781633	22725.222347
35.036000	0.000009	-0.000390	0.001868	0.001685	6889.727105	42430.331161	3947.070118	22759.524068
35.536000	0.001640	0.000485	0.004459	0.002389	6898.188846	42445.981627	3951.587079	22727.422772
36.036500	-0.000300	0.000605	0.003607	0.004255	6863.580993	42287.606454	3945.090138	22642.552657
36.537000	-0.000679	-0.000020	0.003295	0.001533	6884.843969	42477.846859	3950.848075	22766.458044
37.040000	0.000305	0.000184	0.003959	0.001713	6892.171885	42480.036157	3952.008799	22758.261796
37.535000	-0.002959	-0.000587	0.009418	0.001224	6866.939977	42454.399394	3966.380300	22780.582073
38.035500	-0.001489	-0.000731	0.002534	0.002889	6865.172043	42290.192416	3945.785264	22704.619735
38.535500	-0.002387	-0.001387	0.004032	0.000460	6879.068714	42451.112334	3955.196892	22815.549000
39.035500	-0.000946	0.000018	0.003691	0.001385	6883.767359	42494.760011	3952.153585	22773.243569
39.536000	-0.002296	-0.000570	0.003706	0.001372	6871.606704	42442.435673	3952.219840	22773.817026
40.036500	-0.000641	0.000692	0.001863	0.002003	6880.911798	42499.881654	3946.300232	22745.011940
40.536500	0.000896	0.000116	0.006737	0.001968	6895.239261	42450.675442	3958.082368	22746.629614
41.037000	0.000227	-0.000246	0.002682	0.001514	6893.271766	42459.004658	3949.425735	22767.336250
41.537000	-0.000052	0.000064	0.004867	0.001543	6890.461414	42484.576985	3954.599816	22766.014955
42.037000	0.000783	0.000172	0.003440	0.001726	6896.418690	42477.768361	3950.733345	22757.673270
42.535000	-0.000625	0.000231	0.003264	0.003156	6870.590570	42353.223667	3946.892041	22692.477688
43.035000	0.000578	-0.000443	0.006361	0.001557	6896.081477	42437.210904	3958.166216	22765.375204
43.535500	0.001257	0.000383	0.004240	0.001897	6899.180177	42481.434104	3952.242906	22749.861058
44.035500	0.002129	0.000111	0.005451	-0.002398	6946.664664	42849.129702	3965.539872	22946.829790
44.536000	-0.002946	-0.000369	0.001685	0.004266	6839.596500	42198.457693	3940.491049	22642.050734
45.036500	0.000993	-0.000111	0.007209	-0.000291	6916.792216	42635.759944	3964.692524	22849.934254
45.536500	0.001576	0.000230	0.001993	0.000130	6918.279015	42628.548320	3951.090599	22830.663790
46.037000	0.000101	0.000058	0.005340	-0.000255	6908.290207	42647.993143	3960.076308	22848.324127
46.537000	-0.003048	-0.000001	0.000245	0.005836	6824.580233	42089.994921	3933.373448	22570.901869
47.034500	0.001743	0.000395	0.007436	0.000525	6916.194077	42607.526526	3963.264332	22812.576610
47.535000	-0.000347	-0.000794	0.004687	0.001680	6886.521584	42394.139666	3953.836763	22759.740228
48.035500	-0.002695	0.000035	-0.002492	0.005190	6833.542679	42151.587722	3928.457746	22600.150914
48.535500	-0.003713	-0.000548	-0.000808	0.004971	6826.365262	42118.646628	3932.929625	22610.058962
49.035500	-0.003200	0.000120	0.001300	-0.000092	6876.691772	42638.696409	3949.961359	22840.815372
49.536500	0.001403	0.000377	0.004370	-0.001951	6935.836308	42832.538304	3961.834488	22926.254789
50.036500	-0.001530	0.000029	0.004547	0.004057	6854.243932	42253.387843	3947.804457	22651.538346
50.536500	-0.001567	-0.000972	-0.000619	0.010780	6793.660918	41560.860407	3919.776773	22348.601907
51.040000	-0.047576	-0.014245	0.013952	0.265049	4866.050045	23812.027614	3491.423115	13743.173559
51.537500	-0.084742	-0.021445	-0.011631	0.208772	4953.070089	26305.526710	3534.010204	15239.177934
52.034500	-0.073527	-0.024421	-0.027809	-0.123093	7385.386075	52733.306514	4200.976904	29359.504238
52.535000	-0.058883	-0.061441	-0.004681	-0.246754	9055.541708	63720.610293	4720.163511	38065.729463
53.035500	-0.028055	-0.050575	0.010460	-0.234056	9316.599516	63464.852413	4730.379143	37053.308205
53.535500	-0.012239	-0.036337	0.014647	-0.211255	9214.718102	62283.702107	4653.998015	35308.010598
54.036000	-0.014584	-0.012731	0.011782	-0.128876	8101.166320	54776.181334	4343.164018	29713.782833
54.536000	-0.001676	-0.015738	0.019079	-0.149429	8515.196549	56912.181572	4438.088094	31011.799646
55.036500	0.013642	-0.003125	0.030107	-0.106670	8173.305279	53294.681207	4330.413349	28378.700944
55.539500	0.036943	0.008553	0.047893	-0.067822	7988.992730	50242.868322	4263.165106	26201.178582
56.037000	0.048179	0.017876	0.053156	-0.020003	7580.443776	46232.837293	4136.850034	23774.897706
56.534000	0.063602	0.025969	0.073864	0.003187	7498.036308	44754.784994	4129.856854	22691.044104
57.035000	0.077961	0.035478	0.092096	0.024809	7422.320277	43605.469577	4120.372256	21731.342610
57.535500	0.093187	0.044931	0.099514	0.062185	7199.023620	41075.007484	4039.686567	20180.951826
58.035500	0.109059	0.053634	0.120323	0.092631	7058.205431	39214.233661	4014.892731	19013.033429
58.535000	0.122207	0.063601	0.132484	0.126263	6868.089909	37292.113370	3961.590535	17814.567375
59.036000	0.135375	0.072560	0.153323	0.160168	6684.551542	35376.175315	3930.420512	16696.766249
59.536500	0.150977	0.081878	0.164196	0.198709	6491.477146	33267.346328	3867.432281	15527.702925
60.039000	0.153727	0.085795	0.179841	0.235204	6225.357195	31077.761555	3822.547102	14512.361174
60.537000	0.164624	0.092946	0.192373	0.266372	6075.163060	29565.552333	3784.214843	13710.287252
61.036500	0.175565	0.099656	0.203354	0.300268	5913.324935	27951.704985	3739.276386	12900.906652
61.534500	0.176201	0.104233	0.211566	0.306455	5875.460965	27859.294085	3743.152256	12759.875768
62.037500	0.189219	0.111817	0.219299	0.367632	5566.479825	24969.837372	3646.670677	11468.331223
62.535000	0.203886	0.119988	0.222552	0.365699	5669.131566	25487.629941	3655.521447	11506.409118
63.038500	0.210255	0.122914	0.223834	0.372096	5668.958587	25308.426041	3646.792620	11381.026322
63.548000	0.219785	0.127367	0.224619	0.375658	5706.836885	25354.314103	3642.094363	11311.997778
64.039000	0.224169	0.130097	0.234393	0.377321	5724.277377	25409.333791	3655.897413	11279.961608
64.536500	0.231237	0.135222	0.236350	0.377607	5768.227875	25660.810781	3658.774247	11274.467172
65.040000	0.235201	0.137613	0.241820	0.374646	5813.816510	25942.133407	3673.452738	11331.543929
65.537000	0.239496	0.139920	0.236085	0.372510	5856.813968	26178.377909	3667.152499	11372.978129
66.037500	0.245710	0.142590	0.245648	0.371673	5904.691845	26366.551788	3685.506628	11389.264172
66.535000	0.248318	0.144242	0.239227	0.378676	5874.757142	26080.024278	3661.897651	11253.948696
67.035000	0.251766	0.147448	0.254142	0.375931	5917.017821	26398.834723	3693.105768	11306.717394
67.535000	0.255320	0.149273	0.258430	0.377527	5930.509343	26411.196079	3697.975939	11275.991659
68.036000	0.259625	0.152260	0.259862	0.381516	5932.693344	26357.182287	3693.349945	11199.686010
68.536000	0.257754	0.151801	0.262984	0.388458	5872.407770	25962.028838	3686.489225	11068.556040
69.036500	0.266600	0.153644	0.258523	0.385597	5952.755597	26212.424564	3683.633960	11122.347241
69.536500	0.271265	0.156581	0.266569	0.391394	5944.900987	26059.864642	3687.652497	11013.736922
70.036500	0.269549	0.157323	0.276439	0.394159	5913.966652	25952.552311	3700.480560	10962.430082
70.537000	0.270964	0.158416	0.264274	0.403140	5862.457599	25538.880523	3662.907651	10798.024531
71.037500	0.276960	0.161330	0.274556	0.401865	5911.946834	25757.655263	3683.217266	10821.174071
71.534500	0.278986	0.162451	0.274550	0.405010	5904.270984	25651.663315	3677.624770	10764.222778
72.035500	0.280183	0.163516	0.281271	0.409866	5879.331772	25454.553531	3680.928127	10677.120709
72.535500	0.278100	0.163264	0.281755	0.415310	5828.685391	25161.565355	3672.173376	10580.620672
73.036000	0.286860	0.165877	0.290371	0.412505	5906.868090	25440.175767	3692.486072	10630.194571
73.536000	0.289194	0.167467	0.283456	0.414767	5907.361829	25405.390678	3676.122129	10590.186493
74.039500	0.287627	0.167900	0.288292	0.417116	5880.647815	25306.655893	3680.523019	10548.874389
74.536500	0.290933	0.169389	0.290425	0.423814	5857.710781	25040.336542	3672.465270	10432.278146
75.034500	0.291778	0.172348	0.294042	0.419558	5892.283555	25410.086763	3686.415137	10506.161734
75.537500	0.299887	0.173373	0.297646	0.420803	5939.437153	25398.671941	3690.642838	10484.460999
76.034500	0.295200	0.172461	0.292703	0.422556	5895.166736	25261.481105	3678.698944	10454.028938
76.537500	0.297974	0.172755	0.295185	0.421609	5920.665845	25325.255697	3684.792275	10470.455819
77.035500	0.299959	0.175568	0.298103	0.424510	5914.368787	25320.716718	3684.822398	10420.255131
77.535500	0.303376	0.176464	0.298488	0.425966	5927.873599	25291.990028	3682.914631	10395.196404
78.036000	0.300378	0.176546	0.301021	0.432062	5865.779675	24984.967962	3676.598916	10291.137196
78.536500	0.304449	0.179981	0.303379	0.431660	5896.158265	25180.368316	3681.487420	10297.964865
79.036500	0.309710	0.180279	0.307048	0.433837	5917.282453	25084.455334	3684.142455	10261.117751
79.536500	0.308298	0.180310	0.305836	0.436204	5891.422810	24965.836745	3677.788870	10221.278274
80.034500	0.310480	0.180487	0.305503	0.440111	5879.685832	24777.736877	3670.327750	10155.979789
80.534000	0.315650	0.182893	0.310548	0.442305	5899.955996	24788.328360	3675.334358	10119.558825
81.035000	0.314887	0.182529	0.307809	0.443448	5886.957176	24712.779214	3668.523214	10100.663621
81.535000	0.317912	0.183710	0.311585	0.446436	5887.214149	24622.510920	3669.902880	10051.511815
82.035500	0.319220	0.183910	0.311734	0.448604	5881.364287	24524.603210	3666.376605	10016.048228
82.535000	0.312861	0.184613	0.305436	0.456992	5782.887610	24146.537726	3641.222967	9880.502844
83.036000	0.317088	0.185357	0.312585	0.452898	5838.043401	24383.777943	3660.403944	9946.328883
83.536500	0.321675	0.187428	0.320578	0.457401	5838.601568	24264.167172	3666.457372	9873.952666
84.036500	0.319060	0.186394	0.318032	0.458256	5815.468037	24171.758946	3660.556836	9860.295037
84.536500	0.319043	0.186820	0.322330	0.460625	5799.671611	24077.110664	3663.898803	9822.598870
85.037000	0.322705	0.189455	0.318119	0.464200	5800.251222	24031.502885	3650.502445	9766.107538
85.539500	0.325863	0.189823	0.314624	0.466295	5807.274090	23947.860713	3641.028675	9733.198371
86.035000	0.322379	0.189335	0.320578	0.467452	5776.712936	23868.591313	3649.151629	9715.109656
86.534500	0.325208	0.189917	0.320173	0.473548	5755.387853	23604.908151	3638.167402	9620.535860
87.035500	0.323085	0.189472	0.319489	0.471276	5756.353640	23691.929284	3640.833781	9655.623500
87.535500	0.326047	0.189632	0.323180	0.473171	5763.303186	23609.285795	3643.863353	9626.336519
88.036000	0.324949	0.190402	0.319580	0.475971	5738.001266	23513.030880	3633.126006	9583.310362
88.536500	0.325899	0.190072	0.330117	0.477446	5734.615552	23427.858283	3648.376562	9560.759215
89.037000	0.326628	0.191404	0.334614	0.480263	5721.171907	23358.018883	3651.238661	9517.892005
89.537000	0.327837	0.190206	0.318137	0.480696	5726.163050	23281.591009	3622.928258	9511.322878
90.040000	0.328043	0.192783	0.330330	0.485338	5697.762430	23185.201364	3635.432874	9441.348238
90.535000	0.327311	0.192279	0.333115	0.486517	5685.617338	23107.018246	3638.120064	9423.696478
91.035000	0.329490	0.192300	0.327583	0.489160	5682.679956	22985.843120	3624.542411	9384.304299
91.535500	0.332006	0.192831	0.328841	0.490886	5687.685428	22930.827021	3623.772904	9358.708662
92.036000	0.328076	0.192281	0.334111	0.491579	5658.504302	22873.781823	3631.335068	9348.452460
92.538500	0.328226	0.190933	0.328025	0.491919	5657.310544	22796.554999	3620.738977	9343.431824
93.036500	0.329449	0.193810	0.334985	0.494668	5647.750108	22802.414233	3627.663939	9302.962159
93.536500	0.326746	0.192760	0.332330	0.495136	5627.997103	22733.220779	3622.521721	9296.105490
94.037000	0.329550	0.192807	0.334205	0.497430	5631.160578	22631.219790	3621.835683	9262.569954
94.537000	0.325911	0.193009	0.336710	0.503677	5570.412095	22359.441348	3615.727033	9172.136213
95.037500	0.329326	0.191521	0.336807	0.498458	5623.387937	22526.717269	3624.418971	9247.588838
95.535000	0.328822	0.194184	0.336007	0.501470	5601.687151	22511.016833	3618.175296	9203.928429
96.035000	0.331119	0.194020	0.327900	0.503110	5605.729306	22430.048295	3602.456439	9180.288667
96.535500	0.326668	0.193402	0.332671	0.508749	5544.322605	22151.676398	3601.074225	9099.665426
97.038500	0.329458	0.194811	0.335596	0.505547	5580.617411	22356.413733	3610.894422	9145.316508
97.536500	0.332105	0.193818	0.337697	0.505490	5597.156643	22314.666485	3614.385013	9146.127181
98.036500	0.328838	0.194282	0.334016	0.507187	5566.869707	22259.842739	3605.715694	9121.885864
98.537000	0.326808	0.192415	0.326016	0.510946	5531.977211	22011.559974	3587.128265	9068.530833
99.037000	0.327388	0.195231	0.343187	0.509236	5545.727089	22211.028832	3617.220293	9092.750009
99.537500	0.327654	0.195433	0.333222	0.509825	5543.779507	22193.894597	3600.238668	9084.391957
100.035000	0.332041	0.195576	0.340801	0.512203	5555.891050	22095.181454	3608.555777	9050.783711
100.535000	0.326818	0.193296	0.335064	0.515176	5506.829396	21865.274884	3594.683148	9009.031923
101.035500	0.330095	0.194212	0.332934	0.511762	5546.812840	22054.577177	3596.710448	9057.001560
101.538500	0.329157	0.192919	0.336499	0.511894	5540.378031	21992.106526	3602.161842	9055.143271
102.036000	0.330366	0.195162	0.344849	0.514106	5534.358402	21993.475377	3612.015107	9024.030995
102.536500	0.326462	0.196164	0.343995	0.520179	5475.249292	21772.611535	3600.905099	8939.407209
103.036500	0.329255	0.195262	0.343548	0.514631	5524.572465	21974.815001	3609.068558	9016.660429
103.537000	0.331250	0.194927	0.348120	0.515379	5532.031363	21927.517201	3615.252415	9006.192672
104.037000	0.332380	0.196133	0.341463	0.517187	5527.977992	21901.263057	3601.638388	8980.955836
104.534500	0.332959	0.195876	0.342320	0.517271	5530.930641	21886.394273	3602.868915	8979.777006
105.035000	0.329264	0.195317	0.335861	0.516901	5511.110935	21878.163532	3593.221217	8984.936073
105.535500	0.329800	0.196550	0.345199	0.518290	5506.047952	21871.385303	3605.844091	8965.601873
106.036000	0.331958	0.197221	0.338383	0.518836	5515.619209	21876.793380	3594.144443	8958.015085
106.536000	0.333171	0.197081	0.340742	0.519357	5519.744370	21848.066783	3597.047338	8950.793299
107.036000	0.331045	0.197419	0.343410	0.519289	5507.505155	21865.704232	3601.389478	8951.730161
107.536500	0.332735	0.196336	0.343350	0.519198	5518.092646	21822.616441	3601.438605	8952.994961
108.037000	0.329843	0.196213	0.339316	0.519244	5500.655365	21815.258112	3594.972477	8952.358365
108.537000	0.333151	0.197438	0.344676	0.520178	5514.734896	21827.894732	3601.990909	8939.425799
109.037000	0.332564	0.197460	0.352260	0.520144	5511.448642	21830.324944	3614.237370	8939.891779
109.535000	0.332502	0.197034	0.338818	0.519798	5513.133075	21826.818632	3593.315583	8944.676824
110.035000	0.331304	0.197352	0.342106	0.519897	5505.439092	21836.388525	3598.353519	8943.315737
110.535500	0.330729	0.197270	0.344758	0.519375	5505.121000	21855.483596	3603.402731	8950.539569
111.035500	0.331466	0.197481	0.339292	0.520215	5504.519156	21828.179207	3593.406196	8938.916896
111.536000	0.330958	0.195586	0.345269	0.518399	5512.273812	21824.746833	3605.781726	8964.090019
112.036000	0.333559	0.197968	0.341351	0.519553	5520.890449	21878.116034	3597.701823	8948.081291
112.536500	0.330818	0.195837	0.340672	0.518012	5513.745591	21852.442137	3599.068786	8969.470601
113.037000	0.329790	0.196295	0.341640	0.518394	5505.377924	21855.767705	3599.998398	8964.162936
113.537000	0.337046	0.198686	0.342117	0.520149	5538.179948	21883.428346	3597.969446	8939.818984
114.035000	0.331884	0.198740	0.340558	0.520194	5507.118979	21883.823875	3595.434322	8939.204919
114.535000	0.326750	0.197086	0.351393	0.524702	5450.570215	21617.358625	3605.494497	8877.151381
115.035000	0.333687	0.198505	0.343711	0.519850	5519.882516	21888.576357	3600.977225	8943.963523
115.538500	0.332550	0.196389	0.348954	0.518580	5520.672113	21851.740253	3611.418702	8961.569204
116.036000	0.333691	0.196742	0.346825	0.519047	5524.694010	21846.795124	3607.236978	8955.088573
116.536000	0.327654	0.195958	0.336591	0.519710	5484.992936	21783.975105	3589.957538	8945.894820
117.036500	0.331788	0.196405	0.344453	0.517155	5524.627012	21914.484795	3606.466111	8981.391524
117.537000	0.331644	0.197887	0.344414	0.518996	5512.805249	21898.853720	3603.459158	8955.799859
118.037000	0.332149	0.198439	0.349507	0.519808	5510.984894	21887.545832	3610.329879	8944.550245
118.537500	0.330946	0.196867	0.347502	0.517043	5520.272102	21939.574673	3611.556790	8982.960531
119.034500	0.331056	0.197932	0.343110	0.517890	5515.882457	21949.057169	3603.142098	8971.158877
119.535000	0.331609	0.197158	0.348487	0.518434	5515.939524	21891.582274	3610.901032	8963.607405
120.038000	0.333787	0.198102	0.346984	0.518803	5526.722375	21916.645675	3607.884611	8958.473213
120.535500	0.332038	0.196781	0.341398	0.522343	5495.310211	21705.756593	3593.370426	8909.537629
121.036000	0.332003	0.196368	0.347029	0.516055	5532.488292	21960.947189	3612.388663	8996.739865
121.536500	0.330138	0.197510	0.341944	0.517986	5509.859567	21926.460070	3601.131478	8969.828562
122.036500	0.331439	0.198178	0.353379	0.517088	5522.949002	21994.940671	3621.042284	8982.333680
122.536500	0.329865	0.197171	0.349137	0.520532	5493.174135	21800.949250	3608.566742	8934.520071
123.037000	0.331358	0.196680	0.347923	0.514885	5535.636253	22025.846221	3615.735743	9013.110885
123.540000	0.330812	0.196841	0.350993	0.518055	5513.453488	21894.284821	3615.573004	8968.869711
124.038000	0.332166	0.196744	0.348242	0.515496	5536.820820	22001.866374	3615.260298	9004.559143
124.534500	0.329273	0.195806	0.339425	0.518904	5499.293570	21812.353360	3595.682407	8957.078467
125.035500	0.328471	0.195482	0.350628	0.513440	5527.007264	22036.690757	3622.512701	9033.380808
125.536000	0.331764	0.196109	0.342166	0.516584	5527.896518	21926.528845	3603.720997	8989.358621
126.036500	0.330797	0.197525	0.346984	0.515586	5528.083380	22032.184993	3613.075148	9003.303547
