sample name	sample
index	211
start time	 02-22-2021  09:54:42 AM


Wavelength (nm)	Absorbance
494.344910	-0.013796
494.563924	-0.013796
494.782919	-0.013796
495.001897	-0.096462
495.220856	-0.023878
495.439797	-0.027939
495.658719	-0.034860
495.877624	-0.031576
496.096510	-0.025502
496.315378	-0.016681
496.534227	-0.029559
496.753059	-0.031425
496.971872	-0.025406
497.190667	0.069168
497.409444	0.119298
497.628203	0.132807
497.846943	0.138614
498.065665	0.142199
498.284369	0.143743
498.503055	0.146158
498.721723	0.147619
498.940372	0.149665
499.159003	0.150658
499.377616	0.149312
499.596210	0.149220
499.814787	0.148503
500.033345	0.148373
500.251885	0.149490
500.470406	0.149176
500.688910	0.149151
500.907395	0.148500
501.125862	0.149257
501.344311	0.150415
501.562742	0.151458
501.781154	0.152939
501.999548	0.153876
502.217924	0.153029
502.436282	0.153366
502.654621	0.154963
502.872942	0.155045
503.091245	0.154206
503.309530	0.154453
503.527797	0.154069
503.746045	0.153873
503.964275	0.154690
504.182487	0.155585
504.400681	0.155860
504.618856	0.155873
504.837013	0.156831
505.055152	0.157872
505.273273	0.157151
505.491376	0.158027
505.709460	0.158794
505.927526	0.158369
506.145574	0.158593
506.363604	0.159642
506.581615	0.158806
506.799608	0.158681
507.017583	0.158772
507.235540	0.159567
507.453478	0.159897
507.671399	0.158837
507.889301	0.158564
508.107185	0.158384
508.325050	0.157552
508.542898	0.158290
508.760727	0.158759
508.978538	0.159394
509.196330	0.158876
509.414105	0.157873
509.631861	0.158455
509.849599	0.158979
510.067319	0.158958
510.285021	0.159915
510.502704	0.158819
510.720369	0.157906
510.938016	0.157187
511.155645	0.157284
511.373255	0.157829
511.590848	0.158059
511.808422	0.157866
512.025977	0.158470
512.243515	0.158293
512.461034	0.159455
512.678536	0.161673
512.896018	0.162616
513.113483	0.162105
513.330930	0.162591
513.548358	0.163522
513.765768	0.165062
513.983160	0.165544
514.200533	0.165079
514.417889	0.165402
514.635226	0.164061
514.852545	0.163841
515.069845	0.164954
515.287128	0.164908
515.504392	0.165063
515.721638	0.164009
515.938866	0.163330
516.156075	0.164064
516.373267	0.164238
516.590440	0.165015
516.807594	0.166270
517.024731	0.166318
517.241850	0.166613
517.458950	0.166396
517.676032	0.166586
517.893095	0.166939
518.110141	0.166755
518.327168	0.167602
518.544177	0.167809
518.761168	0.167752
518.978141	0.168688
519.195095	0.169027
519.412031	0.169260
519.628949	0.170675
519.845849	0.171614
520.062731	0.172770
520.279594	0.172685
520.496439	0.173159
520.713266	0.172756
520.930074	0.172939
521.146865	0.173587
521.363637	0.174080
521.580391	0.173664
521.797127	0.174415
522.013844	0.174397
522.230543	0.174300
522.447224	0.174715
522.663887	0.175865
522.880532	0.176244
523.097158	0.176030
523.313766	0.176189
523.530356	0.176492
523.746928	0.176739
523.963481	0.176762
524.180017	0.177405
524.396534	0.177294
524.613032	0.177005
524.829513	0.177174
525.045975	0.178055
525.262420	0.179477
525.478845	0.180038
525.695253	0.180533
525.911643	0.181201
526.128014	0.181408
526.344367	0.181818
526.560702	0.182523
526.777018	0.182635
526.993316	0.182252
527.209597	0.181155
527.425858	0.181307
527.642102	0.180295
527.858328	0.180800
528.074535	0.181347
528.290724	0.181489
528.506894	0.182109
528.723047	0.182554
528.939181	0.183605
529.155297	0.184439
529.371395	0.184802
529.587475	0.186210
529.803536	0.186839
530.019579	0.186711
530.235604	0.187859
530.451611	0.187650
530.667600	0.187298
530.883570	0.186632
531.099522	0.186887
531.315456	0.186795
531.531372	0.186626
531.747269	0.186793
531.963148	0.187121
532.179009	0.186811
532.394852	0.187611
532.610676	0.189331
532.826482	0.190341
533.042271	0.191381
533.258040	0.192607
533.473792	0.193120
533.689525	0.193076
533.905240	0.193468
534.120937	0.193999
534.336616	0.194150
534.552277	0.193908
534.767919	0.194087
534.983543	0.193528
535.199149	0.193210
535.414736	0.193803
535.630306	0.193598
535.845857	0.194524
536.061390	0.194566
536.276904	0.195236
536.492401	0.195073
536.707879	0.195055
536.923339	0.195533
537.138781	0.195802
537.354204	0.195924
537.569610	0.196746
537.784997	0.196951
538.000366	0.197227
538.215716	0.196988
538.431049	0.197928
538.646363	0.198432
538.861659	0.199202
539.076937	0.199660
539.292196	0.199838
539.507438	0.200027
539.722661	0.200183
539.937866	0.200865
540.153052	0.201130
540.368221	0.200994
540.583371	0.201476
540.798503	0.201917
541.013617	0.202070
541.228712	0.202757
541.443789	0.203363
541.658848	0.203702
541.873889	0.203870
542.088912	0.204062
542.303916	0.204416
542.518902	0.204895
542.733870	0.204974
542.948820	0.205001
543.163752	0.205335
543.378665	0.205871
543.593560	0.206313
543.808437	0.206320
544.023295	0.206876
544.238136	0.207624
544.452958	0.207845
544.667762	0.208003
544.882548	0.209077
545.097315	0.209071
545.312064	0.208893
545.526795	0.208932
545.741508	0.209381
545.956203	0.209627
546.170879	0.209605
546.385537	0.209597
546.600177	0.210015
546.814799	0.209390
547.029402	0.209798
547.243988	0.210288
547.458555	0.210899
547.673103	0.211193
547.887634	0.211807
548.102146	0.212254
548.316640	0.212614
548.531116	0.212463
548.745574	0.213369
548.960013	0.213328
549.174435	0.213544
549.388838	0.213917
549.603222	0.214666
549.817589	0.214701
550.031937	0.214869
550.246267	0.214873
550.460579	0.215091
550.674873	0.215487
550.889148	0.216114
551.103405	0.216159
551.317644	0.216453
551.531865	0.216370
551.746068	0.216538
551.960252	0.216850
552.174418	0.217291
552.388566	0.217727
552.602696	0.217371
552.816807	0.217260
553.030900	0.217682
553.244975	0.217547
553.459032	0.217572
553.673070	0.217879
553.887091	0.217726
554.101093	0.218430
554.315077	0.218430
554.529042	0.219149
554.742990	0.219333
554.956919	0.219574
555.170830	0.219990
555.384722	0.220374
555.598597	0.220828
555.812453	0.221419
556.026291	0.221174
556.240111	0.221647
556.453913	0.221779
556.667696	0.221942
556.881461	0.221988
557.095208	0.221977
557.308937	0.222195
557.522647	0.221706
557.736339	0.222024
557.950013	0.222317
558.163669	0.222754
558.377307	0.223298
558.590926	0.223822
558.804527	0.223947
559.018110	0.224136
559.231675	0.224526
559.445221	0.224835
559.658749	0.224938
559.872259	0.225230
560.085751	0.225431
560.299225	0.225223
560.512680	0.225356
560.726117	0.225606
560.939536	0.225685
561.152937	0.225648
561.366319	0.225978
561.579683	0.225863
561.793029	0.225947
562.006357	0.225671
562.219667	0.226053
562.432958	0.226083
562.646231	0.226660
562.859486	0.226719
563.072723	0.227001
563.285941	0.227662
563.499141	0.228106
563.712323	0.228510
563.925487	0.229014
564.138632	0.228697
564.351760	0.229362
564.564869	0.229468
564.777960	0.229951
564.991032	0.230151
565.204087	0.229888
565.417123	0.230361
565.630141	0.230553
565.843140	0.230731
566.056122	0.231281
566.269085	0.230944
566.482030	0.230836
566.694957	0.231363
566.907866	0.231662
567.120756	0.231732
567.333628	0.231526
567.546482	0.231700
567.759318	0.231770
567.972135	0.231846
568.184935	0.232074
568.397716	0.232543
568.610478	0.232704
568.823223	0.232560
569.035949	0.232652
569.248657	0.233168
569.461347	0.232952
569.674019	0.233245
569.886672	0.233239
570.099308	0.233582
570.311925	0.233411
570.524523	0.233281
570.737104	0.233536
570.949666	0.233974
571.162210	0.234090
571.374736	0.234456
571.587244	0.234765
571.799733	0.235111
572.012205	0.235030
572.224658	0.235639
572.437092	0.235778
572.649509	0.236203
572.861907	0.236134
573.074287	0.236270
573.286649	0.236655
573.498993	0.236742
573.711318	0.237193
573.923625	0.237785
574.135914	0.237604
574.348185	0.237502
574.560438	0.237680
574.772672	0.238286
574.984888	0.238044
575.197086	0.238229
575.409266	0.238692
575.621427	0.238851
575.833570	0.238716
576.045695	0.239124
576.257802	0.239499
576.469890	0.239314
576.681961	0.239521
576.894013	0.240151
577.106046	0.240101
577.318062	0.239957
577.530059	0.240011
577.742039	0.240437
577.954000	0.240297
578.165942	0.240863
578.377867	0.241376
578.589773	0.241081
578.801661	0.241174
579.013531	0.241530
579.225382	0.241564
579.437216	0.241744
579.649031	0.241609
579.860828	0.242112
580.072606	0.242112
580.284367	0.242203
580.496109	0.242623
580.707833	0.242680
580.919539	0.242989
581.131227	0.243275
581.342896	0.243710
581.554547	0.244078
581.766180	0.244280
581.977795	0.244616
582.189391	0.244746
582.400969	0.244773
582.612529	0.245091
582.824071	0.245063
583.035595	0.245321
583.247100	0.245342
583.458587	0.245624
583.670056	0.246093
583.881506	0.245962
584.092939	0.246806
584.304353	0.247328
584.515749	0.247504
584.727127	0.247609
584.938486	0.247855
585.149828	0.247839
585.361151	0.248120
585.572456	0.248027
585.783742	0.248308
585.995011	0.247740
586.206261	0.248081
586.417493	0.248496
586.628706	0.248761
586.839902	0.248784
587.051079	0.249274
587.262238	0.249424
587.473379	0.249950
587.684502	0.250117
587.895606	0.250395
588.106692	0.250780
588.317760	0.250794
588.528810	0.250956
588.739841	0.251087
588.950855	0.251049
589.161850	0.251282
589.372827	0.251116
589.583785	0.251304
589.794726	0.251846
590.005648	0.251603
590.216552	0.251820
590.427437	0.252235
590.638305	0.252569
590.849154	0.252969
591.059985	0.252854
591.270798	0.252932
591.481592	0.253176
591.692369	0.253010
591.903127	0.253239
592.113867	0.252974
592.324588	0.252856
592.535292	0.252892
592.745977	0.252978
592.956644	0.253435
593.167293	0.253883
593.377923	0.253736
593.588536	0.254128
593.799130	0.253834
594.009706	0.254117
594.220263	0.254512
594.430803	0.254980
594.641324	0.255333
594.851827	0.255346
595.062312	0.255334
595.272778	0.255670
595.483227	0.255569
595.693657	0.256335
595.904069	0.256362
596.114462	0.256960
596.324838	0.256844
596.535195	0.256758
596.745534	0.256857
596.955855	0.257314
597.166157	0.257750
597.376441	0.258338
597.586707	0.258363
597.796955	0.258664
598.007185	0.257999
598.217396	0.258298
598.427589	0.258715
598.637764	0.258813
598.847921	0.258713
599.058060	0.258425
599.268180	0.258599
599.478282	0.258786
599.688366	0.259173
599.898431	0.259646
600.108479	0.259654
600.318508	0.259673
600.528519	0.260020
600.738511	0.260218
600.948486	0.260762
601.158442	0.260756
601.368380	0.261186
601.578300	0.261387
601.788202	0.261717
601.998085	0.262158
602.207950	0.262282
602.417797	0.262384
602.627626	0.262459
602.837436	0.262773
603.047228	0.262736
603.257002	0.262899
603.466758	0.262789
603.676496	0.263053
603.886215	0.262929
604.095916	0.263196
604.305599	0.263530
604.515264	0.263767
604.724910	0.263795
604.934538	0.264085
605.144148	0.263780
605.353740	0.263969
605.563314	0.263860
605.772869	0.264198
605.982406	0.264316
606.191925	0.264335
606.401425	0.264581
606.610908	0.264630
606.820372	0.264900
607.029818	0.265218
607.239246	0.265547
607.448655	0.265720
607.658047	0.265549
607.867420	0.266056
608.076775	0.266209
608.286111	0.266315
608.495430	0.266232
608.704730	0.266251
608.914012	0.266626
609.123275	0.267021
609.332521	0.267102
609.541748	0.267246
609.750957	0.267385
609.960148	0.267704
610.169321	0.267418
610.378475	0.267661
610.587611	0.267726
610.796729	0.267719
611.005829	0.267425
611.214910	0.267483
611.423974	0.267769
611.633019	0.267405
611.842045	0.267243
612.051054	0.267779
612.260044	0.267779
612.469017	0.267927
612.677970	0.268171
612.886906	0.268383
613.095824	0.268708
613.304723	0.268935
613.513604	0.269064
613.722467	0.269230
613.931311	0.269272
614.140138	0.269690
614.348946	0.269844
614.557736	0.269759
614.766507	0.270416
614.975261	0.270589
615.183996	0.270568
615.392713	0.271143
615.601412	0.271397
615.810092	0.271571
616.018754	0.271643
616.227399	0.271929
616.436024	0.272444
616.644632	0.272482
616.853222	0.272671
617.061793	0.273086
617.270346	0.273000
617.478880	0.273048
617.687397	0.273202
617.895895	0.273513
618.104375	0.273425
618.312837	0.273124
618.521281	0.273119
618.729706	0.273180
618.938113	0.273245
619.146502	0.273347
619.354873	0.273644
619.563226	0.273769
619.771560	0.273974
619.979876	0.274034
620.188174	0.274147
620.396453	0.274358
620.604715	0.274526
620.812958	0.274682
621.021183	0.275027
621.229390	0.275337
621.437578	0.275303
621.645748	0.275222
621.853900	0.275355
622.062034	0.275865
622.270150	0.275922
622.478247	0.275937
622.686326	0.276069
622.894387	0.276036
623.102430	0.276075
623.310454	0.276229
623.518461	0.276457
623.726449	0.276759
623.934418	0.276939
624.142370	0.276929
624.350303	0.277343
624.558218	0.277405
624.766115	0.277554
624.973994	0.277545
625.181855	0.277836
625.389697	0.277862
625.597521	0.277951
625.805327	0.277992
626.013114	0.278213
626.220883	0.278497
626.428634	0.278543
626.636367	0.278705
626.844082	0.278934
627.051778	0.278918
627.259457	0.279237
627.467117	0.279455
627.674758	0.279559
627.882382	0.279676
628.089987	0.279693
628.297574	0.280031
628.505143	0.280030
628.712694	0.280333
628.920226	0.280620
629.127740	0.280582
629.335236	0.280693
629.542714	0.280867
629.750174	0.281062
629.957615	0.281060
630.165038	0.281234
630.372443	0.281355
630.579829	0.281407
630.787198	0.281590
630.994548	0.281814
631.201880	0.282058
631.409194	0.282162
631.616489	0.282136
631.823766	0.282181
632.031025	0.282286
632.238266	0.282662
632.445489	0.282677
632.652693	0.282722
632.859879	0.282956
633.067047	0.283297
633.274197	0.283428
633.481329	0.283829
633.688442	0.284265
633.895537	0.284368
634.102614	0.284356
634.309672	0.284707
634.516713	0.284964
634.723735	0.285148
634.930739	0.285061
635.137724	0.285147
635.344692	0.285111
635.551641	0.285134
635.758572	0.285535
635.965485	0.285708
636.172379	0.285817
636.379256	0.286073
636.586114	0.286314
636.792954	0.286482
636.999775	0.286849
637.206579	0.287048
637.413364	0.287342
637.620131	0.287485
637.826880	0.287759
638.033610	0.287749
638.240323	0.287811
638.447017	0.287823
638.653692	0.288160
638.860350	0.288110
639.066990	0.288350
639.273611	0.288384
639.480214	0.288581
639.686798	0.288757
639.893365	0.288984
640.099913	0.289276
640.306443	0.289574
640.512955	0.289553
640.719449	0.289677
640.925924	0.289818
641.132381	0.289948
641.338820	0.290224
641.545241	0.290395
641.751644	0.290760
641.958028	0.290811
642.164394	0.290846
642.370742	0.291077
642.577071	0.291398
642.783383	0.291565
642.989676	0.291806
643.195951	0.291876
643.402207	0.292001
643.608446	0.292101
643.814666	0.292469
644.020868	0.292824
644.227052	0.292980
644.433218	0.293140
644.639365	0.293228
644.845494	0.293289
645.051605	0.293567
645.257698	0.293753
645.463772	0.293983
645.669828	0.293944
645.875866	0.293912
646.081886	0.294183
646.287888	0.294154
646.493871	0.294463
646.699836	0.294716
646.905783	0.294711
647.111712	0.295106
647.317622	0.295086
647.523514	0.295341
647.729388	0.295705
647.935244	0.295882
648.141082	0.296468
648.346901	0.296615
648.552702	0.296784
648.758485	0.297245
648.964250	0.297394
649.169996	0.297767
649.375724	0.297817
649.581434	0.297837
649.787126	0.297810
649.992800	0.297824
650.198455	0.297882
650.404092	0.298260
650.609711	0.297906
650.815311	0.297812
651.020894	0.297716
651.226458	0.297905
651.432004	0.298253
651.637532	0.298467
651.843041	0.298474
652.048532	0.298569
652.254006	0.298575
652.459460	0.298796
652.664897	0.299138
652.870315	0.299587
653.075716	0.299673
653.281097	0.300028
653.486461	0.300221
653.691807	0.300548
653.897134	0.300969
654.102443	0.301245
654.307734	0.301552
654.513006	0.301615
654.718261	0.301747
654.923497	0.302168
655.128715	0.302027
655.333915	0.302249
655.539096	0.302525
655.744259	0.302605
655.949404	0.302792
656.154531	0.303081
656.359640	0.303645
656.564730	0.303777
656.769802	0.303988
656.974856	0.304163
657.179892	0.304405
657.384909	0.304399
657.589908	0.304690
657.794889	0.304507
657.999852	0.304803
658.204797	0.304877
658.409723	0.305278
658.614631	0.305245
658.819521	0.305492
659.024393	0.305858
659.229246	0.306229
659.434081	0.306470
659.638898	0.307001
659.843697	0.306991
660.048478	0.306890
660.253240	0.306762
660.457984	0.307387
660.662710	0.307407
660.867417	0.307703
661.072107	0.307834
661.276778	0.308201
661.481431	0.308513
661.686066	0.308717
661.890682	0.309009
662.095281	0.309459
662.299861	0.309627
662.504422	0.310361
662.708966	0.310284
662.913491	0.310680
663.117999	0.310592
663.322488	0.310479
663.526958	0.310884
663.731411	0.311055
663.935845	0.311410
664.140261	0.311507
664.344659	0.311310
664.549038	0.311611
664.753400	0.311648
664.957743	0.311951
665.162068	0.312321
665.366375	0.312271
665.570663	0.312503
665.774933	0.312616
665.979185	0.312741
666.183419	0.313293
666.387635	0.313645
666.591832	0.313763
666.796011	0.314262
667.000172	0.314517
667.204315	0.314752
667.408439	0.315062
667.612545	0.315006
667.816634	0.315265
668.020703	0.315092
668.224755	0.315397
668.428788	0.315618
668.632803	0.315604
668.836800	0.315831
669.040779	0.315875
669.244739	0.315817
669.448681	0.316048
669.652605	0.316323
669.856511	0.316574
670.060399	0.316344
670.264268	0.316758
670.468119	0.316885
670.671952	0.317119
670.875767	0.317440
671.079563	0.317866
671.283341	0.318036
671.487101	0.318071
671.690843	0.318362
671.894567	0.318566
672.098272	0.318909
672.301959	0.318842
672.505628	0.318940
672.709278	0.319294
672.912911	0.319420
673.116525	0.319561
673.320121	0.319660
673.523699	0.320153
673.727258	0.320594
673.930799	0.320557
674.134322	0.321151
674.337827	0.321113
674.541314	0.321418
674.744782	0.321470
674.948232	0.321781
675.151664	0.322362
675.355078	0.322170
675.558474	0.322289
675.761851	0.322644
675.965210	0.322815
676.168551	0.323221
676.371873	0.323298
676.575178	0.323757
676.778464	0.324310
676.981732	0.324329
677.184981	0.324691
677.388213	0.324785
677.591426	0.324822
677.794621	0.325199
677.997798	0.325630
678.200956	0.325915
678.404097	0.326110
678.607219	0.326021
678.810323	0.326178
679.013408	0.326352
679.216476	0.326778
679.419525	0.327050
679.622556	0.326963
679.825569	0.327128
680.028563	0.327155
680.231540	0.327346
680.434498	0.327643
680.637438	0.327741
680.840359	0.327873
681.043263	0.328050
681.246148	0.328223
681.449015	0.328432
681.651864	0.328701
681.854694	0.328936
682.057506	0.329166
682.260301	0.329280
682.463076	0.329470
682.665834	0.329742
682.868573	0.330175
683.071295	0.330307
683.273998	0.330568
683.476682	0.330510
683.679349	0.330783
683.881997	0.330902
684.084627	0.331214
684.287239	0.331660
684.489833	0.331697
684.692408	0.331817
684.894965	0.331793
685.097504	0.331977
685.300025	0.332564
685.502527	0.332675
685.705012	0.332977
685.907478	0.333102
686.109925	0.333070
686.312355	0.333353
686.514766	0.333343
686.717159	0.333971
686.919534	0.334262
687.121891	0.333981
687.324230	0.334286
687.526550	0.334471
687.728852	0.334640
687.931136	0.335078
688.133401	0.335295
688.335649	0.335502
688.537878	0.335478
688.740089	0.335841
688.942281	0.336394
689.144456	0.336513
689.346612	0.336560
689.548750	0.337015
689.750870	0.337314
689.952971	0.337448
690.155055	0.337685
690.357120	0.337810
690.559167	0.337913
690.761195	0.337889
690.963206	0.338231
691.165198	0.338443
691.367172	0.338444
691.569128	0.338537
691.771065	0.338849
691.972984	0.339037
692.174885	0.339393
692.376768	0.339417
692.578633	0.339667
692.780479	0.339829
692.982308	0.340209
693.184118	0.340203
693.385909	0.340230
693.587683	0.340574
693.789438	0.340729
693.991175	0.340948
694.192894	0.340904
694.394595	0.341011
694.596277	0.340726
694.797941	0.340824
694.999587	0.341223
695.201215	0.341141
695.402824	0.340966
695.604416	0.341335
695.805989	0.341356
696.007543	0.341522
696.209080	0.341617
696.410598	0.342008
696.612099	0.342020
696.813580	0.342056
697.015044	0.342466
697.216490	0.342723
697.417917	0.342353
697.619326	0.342674
697.820717	0.342742
698.022089	0.342730
698.223444	0.342684
698.424780	0.342797
698.626098	0.342700
698.827397	0.342541
699.028679	0.342485
699.229942	0.342857
699.431187	0.342897
699.632414	0.343349
699.833622	0.343580
700.034813	0.343910
700.235985	0.344070
700.437139	0.344434
700.638274	0.344795
700.839392	0.345279
701.040491	0.345470
701.241572	0.345498
701.442635	0.345540
701.643679	0.345740
701.844706	0.346065
702.045714	0.346203
702.246704	0.346267
702.447675	0.346300
702.648629	0.346306
702.849564	0.346133
703.050481	0.346336
703.251380	0.346574
703.452260	0.346469
703.653122	0.346368
703.853966	0.346273
704.054792	0.346329
704.255600	0.346387
704.456389	0.346182
704.657160	0.346287
704.857913	0.346058
705.058648	0.345656
705.259365	0.345557
705.460063	0.345513
705.660743	0.345737
705.861405	0.345677
706.062048	0.345723
706.262674	0.345799
706.463281	0.345893
706.663870	0.346126
706.864441	0.346276
707.064993	0.346631
707.265527	0.346926
707.466043	0.346883
707.666541	0.347312
707.867021	0.347437
708.067482	0.347471
708.267925	0.347703
708.468350	0.347859
708.668757	0.348030
708.869145	0.348088
709.069516	0.348101
709.269868	0.348182
709.470201	0.348125
709.670517	0.348368
709.870814	0.348629
710.071093	0.348630
710.271354	0.348802
710.471597	0.348608
710.671821	0.348747
710.872028	0.348503
711.072216	0.348623
711.272385	0.348295
711.472537	0.347959
711.672670	0.347835
711.872785	0.347741
712.072882	0.347527
712.272961	0.347705
712.473021	0.347571
712.673063	0.347747
712.873087	0.347664
713.073093	0.347740
713.273081	0.347744
713.473050	0.347923
713.673001	0.347779
713.872934	0.347868
714.072849	0.347986
714.272745	0.348161
714.472623	0.348163
714.672483	0.348196
714.872325	0.348207
715.072148	0.348314
715.271954	0.348157
715.471741	0.348176
715.671509	0.348012
715.871260	0.347859
716.070992	0.347503
716.270707	0.347549
716.470403	0.347508
716.670080	0.347318
716.869740	0.347284
717.069381	0.347232
717.269004	0.347463
717.468609	0.347357
717.668195	0.347465
717.867764	0.347710
718.067314	0.347447
718.266846	0.347459
718.466360	0.347594
718.665855	0.347747
718.865332	0.347654
719.064791	0.347305
719.264232	0.347156
719.463655	0.346950
719.663059	0.346594
719.862445	0.346592
720.061813	0.346257
720.261163	0.345942
720.460494	0.345797
720.659807	0.345809
720.859102	0.345729
721.058379	0.345719
721.257638	0.345744
721.456878	0.345904
721.656100	0.345847
721.855304	0.345788
722.054490	0.346021
722.253657	0.345694
722.452806	0.345825
722.651937	0.345867
722.851050	0.345905
723.050145	0.345850
723.249221	0.345615
723.448279	0.345603
723.647319	0.345820
723.846340	0.345639
724.045344	0.345727
724.244329	0.345357
724.443296	0.345260
724.642245	0.345203
724.841175	0.344951
725.040088	0.344877
725.238982	0.344819
725.437857	0.344445
725.636715	0.344458
725.835554	0.344363
726.034376	0.344376
726.233179	0.344273
726.431963	0.344223
726.630730	0.344277
726.829478	0.344319
727.028208	0.344129
727.226920	0.344365
727.425614	0.344199
727.624289	0.344175
727.822946	0.344031
728.021585	0.343940
728.220206	0.343668
728.418808	0.343656
728.617392	0.343705
728.815958	0.343588
729.014506	0.343386
729.213036	0.343104
729.411547	0.343046
729.610040	0.343222
729.808515	0.342994
730.006972	0.342863
730.205410	0.342531
730.403831	0.342193
730.602233	0.342203
730.800616	0.342027
730.998982	0.342083
731.197329	0.341788
731.395658	0.341422
731.593969	0.341266
731.792262	0.341388
731.990536	0.341223
732.188793	0.341092
732.387031	0.340505
732.585250	0.340278
732.783452	0.340119
732.981635	0.340190
733.179800	0.339739
733.377947	0.339604
733.576076	0.339459
733.774186	0.339511
733.972278	0.339428
734.170352	0.339717
734.368408	0.339818
734.566446	0.339750
734.764465	0.339447
734.962466	0.339755
735.160449	0.339882
735.358413	0.339428
735.556360	0.339201
735.754288	0.338740
735.952198	0.338434
736.150090	0.338359
736.347963	0.337875
736.545818	0.337848
736.743655	0.337347
736.941474	0.336958
737.139275	0.337080
737.337057	0.336879
737.534821	0.336944
737.732567	0.336838
737.930295	0.336601
738.128005	0.336974
738.325696	0.336561
738.523369	0.336465
738.721024	0.336177
738.918660	0.335665
739.116279	0.335593
739.313879	0.335518
739.511461	0.335300
739.709024	0.334764
739.906570	0.334462
740.104097	0.334481
740.301606	0.334372
740.499097	0.334392
740.696569	0.334428
740.894024	0.334278
741.091460	0.333885
741.288878	0.333697
741.486277	0.333620
741.683659	0.333153
741.881022	0.332826
742.078367	0.332740
742.275694	0.332706
742.473002	0.332366
742.670293	0.332127
742.867565	0.332209
743.064819	0.332068
743.262054	0.331970
743.459272	0.332068
743.656471	0.331871
743.853652	0.331771
744.050815	0.331457
744.247959	0.331096
744.445085	0.330663
744.642194	0.330547
744.839283	0.330439
745.036355	0.330276
745.233408	0.330076
745.430444	0.329625
745.627461	0.329328
745.824459	0.328980
746.021440	0.328878
746.218402	0.328929
746.415346	0.328298
746.612272	0.328119
746.809180	0.327655
747.006069	0.327364
747.202940	0.327233
747.399793	0.326710
747.596628	0.326662
747.793444	0.326637
747.990243	0.326278
748.187023	0.326266
748.383784	0.325879
748.580528	0.325954
748.777253	0.325750
748.973960	0.325952
749.170649	0.325956
749.367320	0.325580
749.563973	0.325330
749.760607	0.325292
749.957223	0.324946
750.153821	0.324902
750.350400	0.324760
750.546962	0.324518
750.743505	0.324183
750.940030	0.324034
751.136536	0.323915
751.333025	0.323837
751.529495	0.323486
751.725947	0.323492
751.922381	0.323255
752.118796	0.322897
752.315194	0.322755
752.511573	0.322472
752.707934	0.322269
752.904276	0.322326
753.100601	0.322058
753.296907	0.322072
753.493195	0.321884
753.689465	0.321507
753.885716	0.321276
754.081949	0.320937
754.278164	0.320855
754.474361	0.320890
754.670540	0.320607
754.866700	0.320678
755.062843	0.320582
755.258967	0.320416
755.455072	0.320462
755.651160	0.320284
755.847229	0.320359
756.043280	0.320108
756.239313	0.319623
756.435328	0.319145
756.631324	0.318920
756.827302	0.318686
757.023262	0.318445
757.219204	0.318395
757.415127	0.318287
757.611033	0.317785
757.806920	0.317509
758.002788	0.317131
758.198639	0.317150
758.394471	0.316590
758.590286	0.316145
758.786081	0.315982
758.981859	0.315573
759.177619	0.315574
759.373360	0.315748
759.569083	0.315729
759.764788	0.315944
759.960474	0.315868
760.156143	0.316113
760.351793	0.316324
760.547425	0.316219
760.743038	0.316304
760.938634	0.316305
761.134211	0.316002
761.329770	0.315894
761.525311	0.315807
761.720833	0.315601
761.916338	0.315272
762.111824	0.314960
762.307292	0.314721
762.502741	0.314350
762.698173	0.313970
762.893586	0.314202
763.088981	0.313829
763.284358	0.313501
763.479716	0.313470
763.675057	0.313394
763.870379	0.313281
764.065683	0.313329
764.260968	0.313532
764.456236	0.313217
764.651485	0.312636
764.846716	0.312815
765.041929	0.313036
765.237123	0.312753
765.432299	0.312526
765.627457	0.312347
765.822597	0.311971
766.017719	0.311608
766.212822	0.311499
766.407907	0.311476
766.602974	0.311318
766.798023	0.310985
766.993054	0.310998
767.188066	0.311041
767.383060	0.310864
767.578036	0.310934
767.772993	0.310605
767.967933	0.310495
768.162854	0.310187
768.357757	0.310237
768.552642	0.310062
768.747508	0.309766
768.942356	0.309491
769.137186	0.309269
769.331998	0.309118
769.526792	0.309147
769.721567	0.308952
769.916324	0.308993
770.111063	0.308762
770.305784	0.308434
770.500486	0.308664
770.695171	0.308508
770.889837	0.308590
771.084484	0.308551
771.279114	0.308517
771.473725	0.308569
771.668318	0.308490
771.862893	0.307933
772.057450	0.308165
772.251988	0.307819
772.446509	0.307825
772.641011	0.307866
772.835494	0.307683
773.029960	0.307749
773.224407	0.307838
773.418836	0.307949
773.613247	0.308326
773.807640	0.308029
774.002014	0.308198
774.196370	0.308183
774.390708	0.308098
774.585028	0.308164
774.779330	0.308218
774.973613	0.308053
775.167878	0.307973
775.362125	0.307873
775.556354	0.308020
775.750564	0.307700
775.944756	0.307538
776.138930	0.307423
776.333086	0.307461
776.527223	0.307216
776.721343	0.307005
776.915444	0.306835
777.109526	0.306715
777.303591	0.306408
777.497637	0.306702
777.691666	0.306625
777.885676	0.306682
778.079667	0.306575
778.273641	0.306500
778.467596	0.306619
778.661533	0.306400
778.855452	0.306556
779.049352	0.306799
779.243235	0.306686
779.437099	0.306617
779.630945	0.306596
779.824773	0.306705
780.018582	0.306456
780.212373	0.306409
780.406146	0.306650
780.599901	0.306542
780.793638	0.306500
780.987356	0.306432
781.181056	0.306582
781.374738	0.306680
781.568402	0.306325
781.762047	0.306603
781.955674	0.306844
782.149283	0.306951
782.342874	0.307123
782.536447	0.307063
782.730001	0.307297
782.923537	0.307348
783.117055	0.307233
783.310555	0.307658
783.504036	0.307659
783.697499	0.307481
783.890944	0.307415
784.084371	0.307160
784.277780	0.307235
784.471170	0.307007
784.664542	0.306900
784.857896	0.306881
785.051231	0.306469
785.244549	0.306392
785.437848	0.306388
785.631129	0.306245
785.824392	0.306209
786.017636	0.306314
786.210863	0.306574
786.404071	0.306515
786.597260	0.306671
786.790432	0.306708
786.983585	0.306639
787.176721	0.306716
787.369838	0.306919
787.562936	0.307017
787.756017	0.307038
787.949079	0.306803
788.142123	0.307260
788.335149	0.307117
788.528156	0.307768
788.721146	0.308152
788.914117	0.308278
789.107070	0.308411
789.300005	0.308385
789.492921	0.308372
789.685819	0.308577
789.878699	0.308477
790.071561	0.308629
790.264405	0.308395
790.457230	0.308549
790.650037	0.308470
790.842826	0.308573
791.035597	0.308942
791.228349	0.308894
791.421084	0.308894
791.613800	0.309051
791.806497	0.309121
791.999177	0.309460
792.191838	0.309336
792.384481	0.309460
792.577106	0.309654
792.769713	0.309600
792.962301	0.309908
793.154871	0.310163
793.347423	0.310403
793.539957	0.310512
793.732473	0.310381
793.924970	0.310453
794.117449	0.310647
794.309910	0.310432
794.502353	0.310642
794.694777	0.311064
794.887183	0.311014
795.079571	0.311021
795.271941	0.311050
795.464293	0.311275
795.656626	0.311589
795.848941	0.311770
796.041238	0.312146
796.233516	0.312419
796.425777	0.312154
796.618019	0.312455
796.810243	0.312512
797.002449	0.312877
797.194636	0.313139
797.386805	0.313394
797.578956	0.313766
797.771089	0.314084
797.963204	0.314154
798.155300	0.314524
798.347378	0.314908
798.539438	0.315186
798.731480	0.315439
798.923503	0.315670
799.115509	0.315749
799.307496	0.315653
799.499465	0.315530
799.691415	0.315627
799.883348	0.315918
800.075262	0.315554
800.267158	0.315592
800.459035	0.315708
800.650895	0.315659
800.842736	0.315864
801.034559	0.316206
801.226364	0.316466
801.418150	0.316822
801.609919	0.316793
801.801669	0.317306
801.993401	0.317648
802.185114	0.317826
802.376810	0.318102
802.568487	0.317994
802.760146	0.318167
802.951787	0.318245
803.143409	0.318511
803.335014	0.318794
803.526600	0.319162
803.718168	0.319295
803.909717	0.319594
804.101249	0.319831
804.292762	0.320307
804.484257	0.320279
804.675734	0.320402
804.867192	0.320349
805.058632	0.320524
805.250054	0.320275
805.441458	0.320395
805.632844	0.320197
805.824211	0.320141
806.015561	0.320355
806.206891	0.320640
806.398204	0.320945
806.589499	0.321140
806.780775	0.321136
806.972033	0.321680
807.163273	0.321882
807.354495	0.322403
807.545698	0.322733
807.736883	0.323165
807.928050	0.323604
808.119199	0.324001
808.310329	0.324449
808.501441	0.324925
808.692535	0.325077
808.883611	0.325779
809.074669	0.326037
809.265708	0.326351
809.456729	0.326576
809.647732	0.326619
809.838717	0.326789
810.029683	0.327044
810.220632	0.327180
810.411562	0.327464
810.602474	0.327424
810.793367	0.327552
810.984242	0.327726
811.175100	0.327712
811.365938	0.327912
811.556759	0.328381
811.747562	0.328404
811.938346	0.328675
812.129112	0.328963
812.319860	0.329101
812.510589	0.329614
812.701300	0.330003
812.891994	0.330314
813.082668	0.330999
813.273325	0.331131
813.463964	0.331682
813.654584	0.332145
813.845186	0.332390
814.035769	0.332787
814.226335	0.332984
814.416882	0.333430
814.607411	0.334169
814.797922	0.334471
814.988415	0.334936
815.178889	0.335151
815.369345	0.335451
815.559783	0.335826
815.750203	0.336054
815.940605	0.336117
816.130988	0.336354
816.321353	0.336393
816.511700	0.336665
816.702028	0.337019
816.892339	0.337415
817.082631	0.337676
817.272905	0.338027
817.463161	0.338382
817.653398	0.338801
817.843617	0.339209
818.033819	0.339585
818.224001	0.339783
818.414166	0.340019
818.604312	0.340608
818.794440	0.341082
818.984550	0.341408
819.174642	0.341891
819.364716	0.342493
819.554771	0.342647
819.744808	0.342886
819.934827	0.343371
820.124827	0.343701
820.314810	0.343634
820.504774	0.343841
820.694720	0.344127
820.884647	0.344272
821.074557	0.345002
821.264448	0.345579
821.454321	0.346027
821.644176	0.346406
821.834012	0.347206
822.023831	0.347644
822.213631	0.347981
822.403413	0.348426
822.593176	0.349136
822.782922	0.349046
822.972649	0.349197
823.162358	0.349448
823.352049	0.349739
823.541721	0.349604
823.731376	0.350063
823.921012	0.350653
824.110629	0.350915
824.300229	0.351259
824.489811	0.351895
824.679374	0.352576
824.868919	0.352837
825.058445	0.352848
825.247954	0.353227
825.437444	0.353437
825.626916	0.353679
825.816370	0.354110
826.005806	0.354374
826.195223	0.354733
826.384622	0.355070
826.574003	0.355543
826.763366	0.356528
826.952711	0.356995
827.142037	0.357225
827.331345	0.357572
827.520635	0.357904
827.709906	0.358146
827.899160	0.358669
828.088395	0.358724
828.277612	0.359330
828.466810	0.359276
828.655991	0.359673
828.845153	0.360472
829.034297	0.360944
829.223423	0.361171
829.412531	0.361812
829.601620	0.361730
829.790691	0.362141
829.979744	0.362171
830.168779	0.363014
830.357795	0.363365
830.546793	0.363746
830.735773	0.364328
830.924735	0.365072
831.113679	0.365554
831.302604	0.366023
831.491511	0.366128
831.680400	0.366875
831.869271	0.366836
832.058123	0.367301
832.246957	0.367521
832.435773	0.368070
832.624571	0.368469
832.813351	0.368659
833.002112	0.369322
833.190855	0.370169
833.379580	0.370482
833.568287	0.371009
833.756975	0.371249
833.945645	0.371769
834.134297	0.371997
834.322931	0.372571
834.511547	0.372856
834.700144	0.373193
834.888723	0.373692
835.077284	0.374161
835.265826	0.374771
835.454351	0.375321
835.642857	0.375814
835.831345	0.376270
836.019815	0.376563
836.208266	0.377282
836.396699	0.377968
836.585114	0.378159
836.773511	0.378667
836.961890	0.378838
837.150250	0.379357
837.338592	0.379797
837.526916	0.380108
837.715222	0.380231
837.903510	0.380505
838.091779	0.380669
838.280030	0.381221
838.468263	0.381703
838.656477	0.382303
838.844674	0.382826
839.032852	0.383215
839.221012	0.383733
839.409153	0.384409
839.597277	0.384962
839.785382	0.385507
839.973469	0.385939
840.161538	0.386270
840.349589	0.386934
840.537621	0.387146
840.725635	0.387823
840.913631	0.388121
841.101609	0.388951
841.289568	0.389427
841.477509	0.389615
841.665432	0.390040
841.853337	0.390376
842.041224	0.390500
842.229092	0.391027
842.416942	0.391347
842.604774	0.391524
842.792588	0.391754
842.980383	0.391944
843.168160	0.392525
843.355919	0.393004
843.543660	0.393471
843.731382	0.394170
843.919087	0.395070
844.106773	0.395661
844.294441	0.396213
844.482090	0.396899
844.669722	0.397585
844.857335	0.397843
845.044930	0.398553
845.232507	0.398867
845.420065	0.399012
845.607605	0.398990
845.795127	0.399426
845.982631	0.399953
846.170117	0.400125
846.357584	0.400684
846.545033	0.401439
846.732464	0.401861
846.919877	0.402390
847.107272	0.402980
847.294648	0.403455
847.482006	0.403606
847.669346	0.404102
847.856667	0.404458
848.043971	0.404877
848.231256	0.405610
848.418523	0.405613
848.605771	0.406423
848.793002	0.407118
848.980214	0.407478
849.167408	0.408002
849.354584	0.408502
849.541742	0.409442
849.728881	0.409950
849.916002	0.410238
850.103105	0.411150
850.290190	0.411375
850.477256	0.411793
850.664304	0.412663
850.851334	0.413305
851.038346	0.413765
851.225340	0.413944
851.412315	0.414563
851.599272	0.414626
851.786211	0.414461
851.973132	0.415267
852.160034	0.415522
852.346918	0.415792
852.533784	0.416175
852.720632	0.416505
852.907462	0.417162
853.094273	0.417371
853.281066	0.418188
853.467841	0.419329
853.654598	0.419768
853.841336	0.419972
854.028056	0.420409
854.214758	0.420843
854.401442	0.421694
854.588107	0.421813
854.774755	0.422127
854.961384	0.422273
855.147995	0.422840
855.334587	0.423084
855.521162	0.423932
855.707718	0.424461
855.894256	0.425196
856.080775	0.425527
856.267277	0.425729
856.453760	0.426230
856.640225	0.426816
856.826672	0.427045
857.013101	0.427521
857.199511	0.427852
857.385903	0.428590
857.572277	0.428676
857.758633	0.429039
857.944970	0.429590
858.131290	0.429947
858.317591	0.430265
858.503873	0.430567
858.690138	0.430901
858.876384	0.431615
859.062612	0.431360
859.248822	0.431744
859.435014	0.432110
859.621188	0.432674
859.807343	0.433088
859.993480	0.433619
860.179599	0.434347
860.365699	0.434935
860.551781	0.434998
860.737846	0.435777
860.923891	0.436130
861.109919	0.436020
861.295929	0.436306
861.481920	0.436915
861.667893	0.437224
861.853848	0.436969
862.039784	0.437139
862.225702	0.437651
862.411603	0.438081
862.597484	0.438671
862.783348	0.440046
862.969193	0.440774
863.155021	0.441174
863.340830	0.441354
863.526620	0.442240
863.712393	0.442714
863.898147	0.443239
864.083883	0.443387
864.269601	0.443736
864.455301	0.443471
864.640982	0.443460
864.826645	0.443982
865.012290	0.444543
865.197917	0.444751
865.383526	0.444725
865.569116	0.445121
865.754688	0.445750
865.940242	0.445935
866.125777	0.446556
866.311295	0.447179
866.496794	0.447451
866.682275	0.448015
866.867737	0.448403
867.053182	0.448812
867.238608	0.448561
867.424016	0.448591
867.609406	0.448945
867.794778	0.449041
867.980131	0.449115
868.165466	0.449506
868.350783	0.449422
868.536082	0.449543
868.721362	0.450370
868.906625	0.451206
869.091869	0.451883
869.277094	0.452449
869.462302	0.452741
869.647491	0.453034
869.832662	0.453163
870.017815	0.453883
870.202950	0.454784
870.388066	0.454754
870.573165	0.455097
870.758245	0.454969
870.943306	0.455256
871.128350	0.455921
871.313375	0.456454
871.498382	0.457051
871.683371	0.457381
871.868342	0.457115
872.053294	0.457463
872.238229	0.457951
872.423144	0.458105
872.608042	0.457860
872.792922	0.458100
872.977783	0.458387
873.162626	0.458609
873.347451	0.458165
873.532258	0.458524
873.717046	0.458685
873.901816	0.458398
874.086568	0.458882
874.271302	0.459422
874.456017	0.459219
874.640715	0.459055
874.825394	0.459238
875.010055	0.459716
875.194697	0.459874
875.379322	0.460230
875.563928	0.460698
875.748516	0.461122
875.933085	0.461404
876.117637	0.462110
876.302170	0.462672
876.486685	0.462702
876.671182	0.463321
876.855661	0.463119
877.040121	0.463110
877.224563	0.463255
877.408987	0.463283
877.593393	0.463209
877.777780	0.463001
877.962150	0.463350
878.146501	0.463485
878.330833	0.463553
878.515148	0.464057
878.699444	0.464222
878.883722	0.464430
879.067982	0.464660
879.252224	0.464966
879.436447	0.465423
879.620653	0.464976
879.804840	0.465148
879.989008	0.465132
880.173159	0.465416
880.357291	0.465701
880.541405	0.465950
880.725501	0.465866
880.909579	0.466051
881.093638	0.465627
881.277680	0.465743
881.461703	0.465658
881.645707	0.465724
881.829694	0.465810
882.013662	0.466278
882.197612	0.466223
882.381544	0.467031
882.565458	0.467020
882.749353	0.467787
882.933230	0.468021
883.117089	0.468464
883.300930	0.468456
883.484753	0.468291
883.668557	0.468337
883.852343	0.468619
884.036111	0.468138
884.219861	0.468390
884.403592	0.468295
884.587305	0.468506
884.771000	0.468303
884.954677	0.468479
885.138335	0.468860
885.321976	0.468379
885.505598	0.468035
885.689201	0.468252
885.872787	0.468351
886.056354	0.468448
886.239904	0.468720
886.423434	0.468558
886.606947	0.468541
886.790442	0.469049
886.973918	0.469194
887.157376	0.469232
887.340816	0.469585
887.524237	0.469561
887.707641	0.469406
887.891026	0.469219
888.074393	0.469473
888.257741	0.469510
888.441072	0.469113
888.624384	0.468809
888.807678	0.468977
888.990954	0.468486
889.174211	0.468180
889.357451	0.469329
889.540672	0.469180
889.723875	0.469437
889.907059	0.469936
890.090226	0.469843
890.273374	0.470256
890.456504	0.470656
890.639616	0.470549
890.822709	0.470564
891.005785	0.469904
891.188842	0.470144
891.371881	0.469967
891.554901	0.469699
891.737904	0.469553
891.920888	0.469676
892.103854	0.469180
892.286802	0.469570
892.469731	0.469866
892.652643	0.469554
892.835536	0.468945
893.018410	0.469108
893.201267	0.468667
893.384106	0.468459
893.566926	0.468294
893.749728	0.468540
893.932511	0.467975
894.115277	0.467671
894.298024	0.467414
894.480753	0.468195
894.663464	0.467176
894.846157	0.467287
895.028831	0.467438
895.211487	0.467648
895.394125	0.467273
895.576745	0.466921
895.759346	0.466744
895.941930	0.466923
896.124495	0.466212
896.307041	0.466364
896.489570	0.466492
896.672080	0.466063
896.854573	0.465656
897.037046	0.465450
897.219502	0.465603
897.401940	0.465545
897.584359	0.464599
897.766760	0.464471
897.949143	0.464608
898.131507	0.463874
898.313854	0.463531
898.496182	0.462818
898.678492	0.462556
898.860783	0.462250
899.043057	0.462171
899.225312	0.462474
899.407549	0.462027
899.589768	0.461395
899.771968	0.461302
899.954151	0.461151
900.136315	0.460807
900.318461	0.460962
900.500588	0.460783
900.682698	0.460190
900.864789	0.459344
901.046862	0.459195
901.228917	0.458874
901.410953	0.458433
901.592971	0.458085
901.774972	0.457861
901.956953	0.456896
902.138917	0.456379
902.320862	0.456409
902.502790	0.456282
902.684699	0.456840
902.866589	0.457054
903.048462	0.456498
903.230316	0.456677
903.412152	0.457011
903.593970	0.456506
903.775770	0.456617
903.957551	0.456317
904.139314	0.456291
904.321059	0.455028
904.502786	0.454551
904.684494	0.454356
904.866185	0.453440
905.047857	0.453054
905.229510	0.452726
905.411146	0.451916
905.592763	0.451540
905.774363	0.450777
905.955943	0.450889
906.137506	0.449918
906.319051	0.449267
906.500577	0.448971
906.682085	0.447911
906.863575	0.448242
907.045046	0.448133
907.226500	0.446853
907.407935	0.446371
907.589352	0.445778
907.770750	0.445140
907.952131	0.445288
908.133493	0.444700
908.314837	0.444251
908.496163	0.443684
908.677470	0.442448
908.858760	0.442503
909.040031	0.442493
909.221284	0.441803
909.402518	0.441846
909.583735	0.441313
909.764933	0.441425
909.946113	0.441250
910.127275	0.440264
910.308418	0.440210
910.489544	0.439396
910.670651	0.438339
910.851740	0.437656
911.032810	0.437404
911.213863	0.436578
911.394897	0.435579
911.575913	0.435302
911.756911	0.434434
911.937890	0.433857
912.118851	0.433177
912.299794	0.432735
912.480719	0.432617
912.661626	0.431700
912.842514	0.431397
913.023384	0.429960
913.204236	0.428569
913.385070	0.427681
913.565886	0.426651
913.746683	0.426938
913.927462	0.426537
914.108223	0.425182
914.288965	0.423946
914.469690	0.422895
914.650396	0.422994
914.831084	0.422622
915.011754	0.422519
915.192405	0.422565
915.373038	0.421632
915.553653	0.421193
915.734250	0.420647
915.914829	0.420479
916.095389	0.420066
916.275931	0.419964
916.456455	0.419860
916.636961	0.419283
916.817448	0.419062
916.997917	0.417735
917.178368	0.416890
917.358801	0.416129
917.539216	0.416129
917.719612	0.416191
917.899990	0.414928
918.080350	0.413664
918.260692	0.412722
918.441015	0.411230
918.621320	0.411016
918.801607	0.409756
918.981876	0.409670
919.162127	0.408037
919.342359	0.406317
919.522573	0.405930
919.702769	0.404863
919.882947	0.403995
920.063106	0.402684
920.243247	0.401854
920.423370	0.401375
920.603475	0.400021
920.783562	0.399508
920.963630	0.398756
921.143680	0.397577
921.323712	0.397451
921.503725	0.397023
921.683721	0.396650
921.863698	0.396214
922.043657	0.395700
922.223598	0.394653
922.403520	0.393866
922.583424	0.393032
922.763311	0.392223
922.943178	0.391259
923.123028	0.389977
923.302859	0.389137
923.482673	0.388475
923.662467	0.387489
923.842244	0.386915
924.022003	0.385990
924.201743	0.385427
924.381465	0.384852
924.561169	0.383427
924.740854	0.382753
924.920522	0.382003
925.100171	0.380087
925.279802	0.379239
925.459414	0.378976
925.639009	0.378510
925.818585	0.378035
925.998143	0.376865
926.177683	0.376831
926.357205	0.376626
926.536708	0.376556
926.716193	0.375932
926.895660	0.374833
927.075109	0.373101
927.254539	0.371481
927.433951	0.370173
927.613345	0.369543
927.792721	0.368169
927.972079	0.367484
928.151418	0.366120
928.330739	0.365458
928.510042	0.364267
928.689327	0.363921
928.868593	0.363632
929.047841	0.362848
929.227071	0.361727
929.406283	0.360549
929.585476	0.358997
929.764652	0.357709
929.943809	0.356337
930.122948	0.355342
930.302068	0.353185
930.481171	0.352036
930.660255	0.351044
930.839321	0.350903
931.018369	0.350309
931.197398	0.349520
931.376409	0.349140
931.555402	0.348345
931.734377	0.347209
931.913334	0.346879
932.092272	0.345527
932.271192	0.344738
932.450094	0.342632
932.628978	0.342084
932.807844	0.340754
932.986691	0.338715
933.165520	0.337698
933.344331	0.337491
933.523123	0.337334
933.701898	0.336282
933.880654	0.334840
934.059392	0.333745
934.238111	0.332188
934.416813	0.331132
934.595496	0.330716
934.774161	0.329040
934.952808	0.328064
935.131437	0.325953
935.310047	0.325156
935.488639	0.323448
935.667213	0.322497
935.845769	0.320480
936.024306	0.319575
936.202825	0.317995
936.381326	0.317470
936.559809	0.315767
936.738274	0.316197
936.916720	0.315520
937.095148	0.314377
937.273558	0.312750
937.451950	0.312054
937.630323	0.310424
937.808678	0.309756
937.987015	0.308495
938.165334	0.306251
938.343635	0.303706
938.521917	0.302860
938.700181	0.302303
938.878427	0.302341
939.056655	0.300913
939.234864	0.300580
939.413055	0.298593
939.591228	0.298020
939.769383	0.297540
939.947519	0.295855
940.125638	0.294984
940.303738	0.293858
940.481820	0.292662
940.659883	0.291412
940.837929	0.288706
941.015956	0.288172
941.193965	0.285105
941.371955	0.284599
941.549928	0.284332
941.727882	0.281815
941.905818	0.280497
942.083736	0.277873
942.261636	0.275709
942.439517	0.276014
942.617380	0.275250
942.795225	0.274878
942.973052	0.273224
943.150860	0.272312
943.328651	0.270640
943.506423	0.268503
943.684176	0.267568
943.861912	0.267223
944.039629	0.264158
944.217328	0.261642
944.395009	0.260677
944.572672	0.260052
944.750317	0.258014
944.927943	0.256190
945.105551	0.255998
945.283141	0.255402
945.460712	0.254165
945.638265	0.253788
945.815801	0.252776
945.993317	0.250954
946.170816	0.249583
946.348297	0.248204
946.525759	0.247365
946.703203	0.244980
946.880629	0.243164
947.058036	0.242367
947.235425	0.240576
947.412797	0.239918
947.590149	0.239220
947.767484	0.237762
947.944800	0.237019
948.122099	0.236263
948.299379	0.235785
948.476640	0.235086
948.653884	0.233439
948.831109	0.233453
949.008316	0.231169
949.185505	0.230348
949.362676	0.228270
949.539828	0.226100
949.716962	0.225184
949.894078	0.224366
950.071176	0.222896
950.248256	0.222014
950.425317	0.219478
950.602360	0.218584
950.779385	0.216761
950.956391	0.215400
951.133380	0.214798
951.310350	0.212954
951.487302	0.211842
951.664235	0.209604
951.841151	0.208223
952.018048	0.208258
952.194927	0.206991
952.371788	0.206513
952.548631	0.204671
952.725455	0.202606
952.902261	0.199270
953.079049	0.196022
953.255819	0.195470
953.432570	0.195767
953.609303	0.192270
953.786018	0.190532
953.962715	0.190370
954.139394	0.189906
954.316054	0.187449
954.492696	0.188259
954.669320	0.187777
954.845926	0.184215
955.022513	0.183128
955.199083	0.184475
955.375634	0.183626
955.552166	0.181798
955.728681	0.183225
955.905177	0.184334
956.081655	0.183205
956.258115	0.182504
956.434557	0.182422
956.610980	0.178527
956.787385	0.175615
956.963772	0.174736
957.140141	0.171783
957.316492	0.169413
957.492824	0.166355
957.669138	0.165896
957.845434	0.165620
958.021712	0.166353
958.197971	0.166684
958.374212	0.167312
958.550435	0.166035
958.726640	0.164837
958.902826	0.162454
959.078995	0.163905
959.255145	0.163463
959.431277	0.162542
959.607390	0.162562
959.783486	0.163064
959.959563	0.161312
960.135622	0.159586
960.311662	0.159748
960.487685	0.159000
960.663689	0.157592
960.839675	0.156444
961.015643	0.154159
961.191593	0.154234
961.367524	0.150994
961.543437	0.150953
961.719332	0.154123
961.895209	0.154241
962.071067	0.153169
962.246907	0.152088
962.422730	0.151685
962.598533	0.151514
962.774319	0.149422
962.950086	0.149956
963.125835	0.148728
963.301566	0.145706
963.477279	0.146193
963.652973	0.147985
963.828650	0.148539
964.004308	0.147904
964.179947	0.148493
964.355569	0.149289
964.531172	0.148364
964.706757	0.148989
964.882324	0.148579
965.057873	0.147320
965.233403	0.147853
965.408916	0.148562
965.584410	0.147194
965.759885	0.146677
965.935343	0.144866
966.110782	0.144122
966.286203	0.142697
966.461606	0.143473
966.636991	0.141305
966.812357	0.138053
966.987705	0.135188
967.163035	0.135217
967.338347	0.137601
967.513641	0.136750
967.688916	0.139674
967.864173	0.140983
968.039412	0.141332
968.214632	0.143734
968.389835	0.146864
968.565019	0.147679
968.740185	0.146452
968.915333	0.145544
969.090462	0.146632
969.265573	0.144171
969.440667	0.144961
969.615741	0.144358
969.790798	0.142893
969.965836	0.141446
970.140856	0.142837
970.315858	0.142712
970.490842	0.143103
970.665808	0.141813
970.840755	0.142186
971.015684	0.138012
971.190595	0.139720
971.365487	0.141085
971.540362	0.139902
971.715218	0.139063
971.890056	0.140302
972.064875	0.137079
972.239677	0.136817
972.414460	0.137280
972.589225	0.138058
972.763972	0.135293
972.938700	0.134352
973.113411	0.134890
973.288103	0.137353
973.462777	0.137474
973.637432	0.136831
973.812070	0.136163
973.986689	0.135756
974.161290	0.136488
974.335873	0.137018
974.510437	0.136205
974.684984	0.133125
974.859512	0.130716
975.034022	0.129307
975.208513	0.131155
975.382987	0.132665
975.557442	0.133681
975.731879	0.135259
975.906298	0.134201
976.080698	0.135542
976.255080	0.139147
976.429445	0.138728
976.603790	0.141608
976.778118	0.141404
976.952427	0.141175
977.126719	0.141364
977.300992	0.138580
977.475246	0.138994
977.649483	0.136863
977.823701	0.137633
977.997901	0.136090
978.172083	0.134449
978.346247	0.133768
978.520392	0.134275
978.694519	0.131337
978.868628	0.133966
979.042719	0.133171
979.216791	0.135426
979.390845	0.134363
979.564882	0.134597
979.738899	0.135441
979.912899	0.135764
980.086880	0.135087
980.260843	0.136777
980.434788	0.137594
980.608715	0.139093
980.782623	0.135880
980.956514	0.136377
981.130386	0.138319
981.304240	0.140256
981.478075	0.140456
981.651892	0.142383
981.825692	0.142259
981.999472	0.141692
982.173235	0.141896
982.346980	0.145106
982.520706	0.143055
982.694414	0.142861
982.868104	0.140071
983.041775	0.140027
983.215428	0.138415
983.389064	0.139045
983.562680	0.136289
983.736279	0.135854
983.909860	0.136646
984.083422	0.137952
984.256966	0.138537
984.430491	0.138482
984.603999	0.139737
984.777488	0.140126
984.950959	0.138828
985.124412	0.139339
985.297847	0.138872
985.471263	0.138355
985.644661	0.138585
985.818041	0.137128
985.991403	0.138322
986.164747	0.135284
986.338072	0.135453
986.511379	0.136706
986.684668	0.138274
986.857938	0.140195
987.031191	0.140867
987.204425	0.138837
987.377641	0.141233
987.550839	0.140595
987.724018	0.141471
987.897179	0.143041
988.070322	0.142466
988.243447	0.140593
988.416554	0.140083
988.589642	0.138662
988.762712	0.141315
988.935764	0.138936
989.108798	0.140106
989.281813	0.139763
989.454811	0.139316
989.627790	0.140267
989.800751	0.141240
989.973693	0.139363
990.146617	0.138577
990.319524	0.137951
990.492412	0.140726
990.665281	0.140373
990.838133	0.142046
991.010966	0.141293
991.183781	0.140618
991.356578	0.142035
991.529356	0.143456
991.702117	0.143390
991.874859	0.144095
992.047583	0.141739
992.220288	0.140203
992.392976	0.139544
992.565645	0.139256
992.738296	0.138841
992.910929	0.136899
993.083543	0.137070
993.256139	0.137787
993.428718	0.136484
993.601277	0.136127
993.773819	0.137372
993.946342	0.137880
994.118848	0.139566
994.291335	0.140046
994.463803	0.142603
994.636254	0.142387
994.808686	0.142063
994.981100	0.143245
995.153496	0.142851
995.325874	0.142383
995.498233	0.142165
995.670574	0.139670
995.842897	0.138963
996.015202	0.138648
996.187488	0.137176
996.359757	0.136886
996.532007	0.134653
996.704239	0.135766
996.876452	0.138275
997.048648	0.138959
997.220825	0.139810
997.392984	0.140667
997.565124	0.139358
997.737247	0.140069
997.909351	0.141107
998.081437	0.142262
998.253505	0.142655
998.425554	0.141431
998.597586	0.141953
998.769599	0.142154
998.941594	0.141699
999.113571	0.142769
999.285529	0.142365
999.457469	0.141138
999.629391	0.142876
999.801295	0.141688
999.973181	0.140919
1000.145048	0.139514
1000.316897	0.138398
1000.488728	0.139602
1000.660541	0.138927
1000.832335	0.140890
1001.004111	0.141834
1001.175869	0.140947
1001.347609	0.141822
1001.519331	0.142298
1001.691034	0.140819
1001.862719	0.140905
1002.034386	0.141376
1002.206035	0.140588
1002.377665	0.140539
1002.549277	0.142447
1002.720871	0.144146
1002.892447	0.145753
1003.064004	0.145763
1003.235544	0.146876
1003.407065	0.146932
1003.578568	0.145382
1003.750052	0.145686
1003.921519	0.145973
1004.092967	0.144082
1004.264397	0.141360
1004.435809	0.138645
1004.607202	0.137808
1004.778577	0.139323
1004.949934	0.141505
1005.121273	0.140744
1005.292594	0.141653
1005.463896	0.141987
1005.635180	0.142246
1005.806446	0.142278
1005.977694	0.144100
1006.148923	0.144939
1006.320135	0.144167
1006.491328	0.142708
1006.662503	0.143712
1006.833659	0.142807
1007.004798	0.139026
1007.175918	0.137964
1007.347020	0.137611
1007.518103	0.137035
1007.689169	0.136534
1007.860216	0.136413
1008.031245	0.136526
1008.202256	0.137618
1008.373248	0.137846
1008.544223	0.140205
1008.715179	0.141881
1008.886117	0.142493
1009.057036	0.142504
1009.227938	0.142923
1009.398821	0.142464
1009.569686	0.141740
1009.740533	0.141802
1009.911361	0.142465
1010.082172	0.142806
1010.252964	0.142473
1010.423738	0.142699
1010.594493	0.142619
1010.765231	0.142166
1010.935950	0.143670
1011.106651	0.144647
1011.277334	0.143778
1011.447998	0.143365
1011.618645	0.143486
1011.789273	0.142641
1011.959882	0.141487
1012.130474	0.142008
1012.301048	0.142899
1012.471603	0.143139
1012.642140	0.142347
1012.812658	0.141837
1012.983159	0.142216
1013.153641	0.143423
1013.324105	0.146235
1013.494551	0.148011
1013.664979	0.146837
1013.835388	0.147494
1014.005779	0.146567
1014.176152	0.145826
1014.346507	0.145030
1014.516843	0.144587
1014.687162	0.141802
1014.857462	0.139393
1015.027744	0.139015
1015.198007	0.140616
1015.368252	0.140841
1015.538480	0.140812
1015.708689	0.140793
1015.878879	0.141616
1016.049052	0.141241
1016.219206	0.140988
1016.389342	0.140217
1016.559460	0.140277
1016.729559	0.139116
1016.899641	0.137929
1017.069704	0.138435
1017.239749	0.139589
1017.409775	0.139980
1017.579784	0.141041
1017.749774	0.141912
1017.919746	0.142677
1018.089700	0.142495
1018.259635	0.141727
1018.429553	0.141071
1018.599452	0.140496
1018.769333	0.141128
1018.939195	0.141054
1019.109040	0.141374
1019.278866	0.142644
1019.448674	0.141813
1019.618464	0.142296
1019.788235	0.143156
1019.957989	0.142674
1020.127724	0.142989
1020.297441	0.142838
1020.467139	0.142555
1020.636820	0.141995
1020.806482	0.143104
1020.976126	0.144403
1021.145752	0.144042
1021.315359	0.144048
1021.484948	0.143942
1021.654519	0.142118
1021.824072	0.142187
1021.993607	0.144561
1022.163123	0.144659
1022.332621	0.142874
1022.502101	0.142511
1022.671563	0.142776
1022.841007	0.143756
1023.010432	0.144757
1023.179839	0.144631
1023.349228	0.144834
1023.518598	0.142326
1023.687951	0.141732
1023.857285	0.141812
1024.026601	0.141538
1024.195899	0.142178
1024.365178	0.142075
1024.534439	0.143258
1024.703682	0.144024
1024.872907	0.143416
1025.042114	0.143550
1025.211302	0.143163
1025.380472	0.143589
1025.549624	0.144678
1025.718758	0.144428
1025.887873	0.144309
1026.056970	0.143943
1026.226049	0.145223
1026.395110	0.146000
1026.564153	0.146630
1026.733177	0.145451
1026.902183	0.144539
1027.071171	0.143345
1027.240141	0.142052
1027.409092	0.141660
1027.578026	0.140352
1027.746940	0.139167
1027.915837	0.138651
1028.084716	0.138706
1028.253576	0.142101
1028.422418	0.142597
1028.591242	0.143289
1028.760048	0.142906
1028.928835	0.141245
1029.097604	0.140260
1029.266355	0.140292
1029.435088	0.139473
1029.603803	0.138606
1029.772499	0.137257
1029.941177	0.137459
1030.109837	0.137780
1030.278478	0.139396
1030.447102	0.141063
1030.615707	0.141298
1030.784294	0.140953
1030.952863	0.141691
1031.121413	0.141743
1031.289945	0.142429
1031.458460	0.142293
1031.626955	0.141687
1031.795433	0.140051
1031.963892	0.139988
1032.132334	0.141453
1032.300756	0.143058
1032.469161	0.143852
1032.637548	0.145453
1032.805916	0.144815
1032.974266	0.146370
1033.142598	0.147153
1033.310911	0.148700
1033.479207	0.148430
1033.647484	0.148559
1033.815743	0.147771
1033.983983	0.146122
1034.152206	0.146354
1034.320410	0.145923
1034.488596	0.142305
1034.656764	0.141471
1034.824914	0.140379
1034.993045	0.140515
1035.161158	0.141233
1035.329253	0.140383
1035.497330	0.139810
1035.665388	0.138486
1035.833428	0.138691
1036.001450	0.139835
1036.169454	0.139551
1036.337440	0.139684
1036.505407	0.141556
1036.673356	0.139753
1036.841287	0.140542
1037.009200	0.143589
1037.177094	0.142924
1037.344970	0.141517
1037.512828	0.140482
1037.680668	0.140329
1037.848489	0.143115
1038.016293	0.142602
1038.184078	0.142842
1038.351845	0.143740
1038.519593	0.142246
1038.687324	0.144153
1038.855036	0.145225
1039.022730	0.146184
1039.190406	0.145167
1039.358063	0.143661
1039.525702	0.141258
1039.693323	0.140552
1039.860926	0.139129
1040.028511	0.140146
1040.196077	0.139089
1040.363625	0.138377
1040.531155	0.138830
1040.698667	0.140897
1040.866161	0.139669
1041.033636	0.140479
1041.201093	0.142065
1041.368532	0.141333
1041.535952	0.139235
1041.703355	0.138940
1041.870739	0.140912
1042.038105	0.141041
1042.205452	0.140466
1042.372782	0.140444
1042.540093	0.140138
1042.707386	0.138476
1042.874661	0.139975
1043.041918	0.141046
1043.209156	0.141313
1043.376376	0.140037
1043.543578	0.140666
1043.710762	0.141373
1043.877927	0.141790
1044.045074	0.142127
1044.212203	0.144544
1044.379314	0.143944
1044.546407	0.143881
1044.713481	0.142877
1044.880537	0.143805
1045.047575	0.143039
1045.214595	0.143429
1045.381596	0.143555
1045.548579	0.144424
1045.715544	0.143570
1045.882491	0.143263
1046.049420	0.141914
1046.216330	0.141699
1046.383222	0.140644
1046.550096	0.141115
1046.716951	0.140445
1046.883789	0.140213
1047.050608	0.139130
1047.217409	0.139696
1047.384192	0.139070
1047.550956	0.139703
1047.717703	0.141622
1047.884431	0.142530
1048.051140	0.142828
1048.217832	0.141562
1048.384505	0.141962
1048.551161	0.141920
1048.717798	0.141682
1048.884416	0.141078
1049.051017	0.142237
1049.217599	0.140970
1049.384163	0.139889
1049.550709	0.138253
1049.717237	0.139447
1049.883746	0.139932
1050.050237	0.139629
1050.216710	0.137875
1050.383165	0.141602
1050.549601	0.140407
1050.716019	0.141151
1050.882420	0.141255
1051.048801	0.143059
1051.215165	0.142610
1051.381510	0.142290
1051.547837	0.144051
1051.714146	0.145705
1051.880437	0.141390
1052.046709	0.140730
1052.212964	0.140393
1052.379200	0.140029
1052.545417	0.138904
1052.711617	0.138310
1052.877798	0.139303
1053.043961	0.138095
1053.210106	0.136188
1053.376233	0.138496
1053.542341	0.139772
1053.708432	0.138880
1053.874504	0.138607
1054.040557	0.141499
1054.206593	0.143394
1054.372610	0.142397
1054.538609	0.142700
1054.704590	0.143113
1054.870553	0.142744
1055.036497	0.141739
1055.202424	0.144298
1055.368331	0.144720
1055.534221	0.142402
1055.700093	0.142586
1055.865946	0.141770
1056.031781	0.142701
1056.197598	0.143863
1056.363397	0.145897
1056.529177	0.147227
1056.694939	0.145809
1056.860683	0.144803
1057.026409	0.145286
1057.192116	0.143333
1057.357806	0.142843
1057.523477	0.141236
1057.689130	0.142799
1057.854764	0.139890
1058.020381	0.138559
1058.185979	0.139169
1058.351559	0.141413
1058.517120	0.140905
1058.682664	0.143280
1058.848189	0.144206
1059.013696	0.145211
1059.179185	0.141909
1059.344656	0.144690
1059.510108	0.145720
1059.675542	0.143974
1059.840958	0.143714
1060.006356	0.145516
1060.171735	0.143189
1060.337096	0.142276
1060.502439	0.141714
1060.667764	0.142250
1060.833071	0.140679
1060.998359	0.140469
1061.163629	0.140306
1061.328881	0.138268
1061.494115	0.136077
1061.659330	0.136532
1061.824527	0.137818
1061.989706	0.138798
1062.154867	0.139409
1062.320010	0.139422
1062.485134	0.138885
1062.650240	0.139274
1062.815328	0.140846
1062.980398	0.139759
1063.145449	0.140021
1063.310482	0.139644
1063.475497	0.139204
1063.640494	0.137878
1063.805473	0.137536
1063.970433	0.138170
1064.135375	0.140529
1064.300299	0.140623
1064.465204	0.141994
1064.630092	0.142527
1064.794961	0.142754
1064.959812	0.143453
1065.124645	0.147308
1065.289459	0.146917
1065.454256	0.146895
1065.619034	0.143907
1065.783793	0.143090
1065.948535	0.143203
1066.113258	0.142362
1066.277964	0.142515
1066.442651	0.141400
1066.607319	0.140822
1066.771970	0.142654
1066.936602	0.144869
1067.101216	0.146124
1067.265812	0.145970
1067.430389	0.147955
1067.594949	0.148452
1067.759490	0.149086
1067.924013	0.149244
1068.088518	0.146914
1068.253004	0.147018
1068.417472	0.143712
1068.581922	0.144419
1068.746354	0.145500
1068.910768	0.143885
1069.075163	0.144472
1069.239540	0.144346
1069.403899	0.144283
1069.568240	0.144340
1069.732562	0.145027
1069.896866	0.145912
1070.061152	0.145670
1070.225420	0.144662
1070.389670	0.145727
1070.553901	0.146039
1070.718114	0.145466
1070.882309	0.146421
1071.046486	0.148489
1071.210644	0.147293
1071.374784	0.148425
1071.538906	0.148233
1071.703010	0.150453
1071.867096	0.147114
1072.031163	0.147373
1072.195212	0.147869
1072.359243	0.149566
1072.523256	0.148196
1072.687250	0.147267
1072.851226	0.146911
1073.015184	0.147132
1073.179124	0.145676
1073.343045	0.149869
1073.506949	0.149234
1073.670834	0.150473
1073.834701	0.148830
1073.998549	0.149236
1074.162380	0.149451
1074.326192	0.147570
1074.489986	0.146977
1074.653761	0.148304
1074.817519	0.147668
1074.981258	0.147459
1075.144979	0.144724
1075.308682	0.143983
1075.472367	0.144559
1075.636033	0.146073
1075.799681	0.146581
1075.963311	0.145438
1076.126923	0.143767
1076.290516	0.143615
1076.454092	0.142032
1076.617649	0.142773
1076.781187	0.143332
1076.944708	0.143336
1077.108210	0.143829
1077.271695	0.146431
1077.435160	0.148712
1077.598608	0.150125
1077.762038	0.147421
1077.925449	0.147835
1078.088842	0.149379
1078.252217	0.149613
1078.415573	0.148640
1078.578912	0.147963
1078.742232	0.147973
1078.905534	0.146472
1079.068817	0.146038
1079.232083	0.147551
1079.395330	0.148738
1079.558559	0.148712
1079.721770	0.150325
1079.884962	0.151566
1080.048136	0.151880
1080.211293	0.153030
1080.374430	0.154620
1080.537550	0.155738
1080.700651	0.158850
1080.863735	0.158641
1081.026800	0.158869
1081.189846	0.157435
1081.352875	0.158614
1081.515885	0.159031
1081.678877	0.155276
1081.841851	0.152874
1082.004807	0.152698
1082.167744	0.150539
1082.330663	0.151976
1082.493564	0.151389
1082.656447	0.150341
1082.819312	0.148801
1082.982158	0.146809
1083.144986	0.148622
1083.307796	0.149974
1083.470587	0.148827
1083.633361	0.149198
1083.796116	0.147336
1083.958853	0.145636
1084.121571	0.148287
1084.284272	0.145718
1084.446954	0.147884
1084.609618	0.146323
1084.772264	0.145530
1084.934892	0.145421
1085.097501	0.143335
1085.260092	0.146265
1085.422665	0.146766
1085.585220	0.144777
1085.747756	0.146333
1085.910274	0.147526
1086.072774	0.148683
1086.235256	0.150558
1086.397720	0.150381
1086.560165	0.150961
1086.722592	0.149422
1086.885001	0.151429
1087.047392	0.150512
1087.209764	0.149969
1087.372119	0.147574
1087.534455	0.149144
1087.696772	0.149158
1087.859072	0.149786
1088.021353	0.150846
1088.183616	0.149912
1088.345861	0.148783
1088.508088	0.149624
1088.670296	0.151319
1088.832486	0.153078
1088.994658	0.151299
1089.156812	0.150326
1089.318948	0.152081
1089.481065	0.152968
1089.643164	0.151263
1089.805245	0.151254
1089.967308	0.152063
1090.129352	0.152788
1090.291378	0.150471
1090.453386	0.147836
1090.615376	0.147192
1090.777347	0.146777
1090.939301	0.145711
1091.101236	0.148239
1091.263153	0.146948
1091.425051	0.145313
1091.586932	0.145754
1091.748794	0.145026
1091.910638	0.145550
1092.072463	0.147663
1092.234271	0.146350
1092.396060	0.145449
1092.557831	0.144572
1092.719584	0.147208
1092.881319	0.146406
1093.043035	0.143138
1093.204733	0.145852
1093.366413	0.149993
1093.528075	0.149855
1093.689718	0.149038
1093.851343	0.151666
1094.012950	0.151480
1094.174539	0.150750
1094.336110	0.155709
1094.497662	0.157256
1094.659196	0.157310
1094.820712	0.157543
1094.982210	0.154900
1095.143689	0.157305
1095.305151	0.156956
1095.466594	0.157122
1095.628018	0.154853
1095.789425	0.149135
1095.950813	0.148477
1096.112183	0.146909
1096.273535	0.146920
1096.434869	0.149131
1096.596184	0.147252
1096.757482	0.143742
1096.918761	0.142733
1097.080021	0.144991
1097.241264	0.146726
1097.402488	0.149932
1097.563694	0.148345
1097.724882	0.146188
1097.886052	0.143069
1098.047203	0.144793
1098.208336	0.147238
1098.369451	0.148625
1098.530548	0.147727
1098.691627	0.150257
1098.852687	0.146267
1099.013729	0.146868
1099.174753	0.144168
1099.335758	0.149017
1099.496746	0.147364
1099.657715	0.145471
1099.818666	0.146868
1099.979599	0.147253
1100.140513	0.144161
1100.301409	0.144146
1100.462287	0.148412
1100.623147	0.149645
1100.783989	0.150530
1100.944812	0.154295
1101.105617	0.156698
1101.266404	0.154498
1101.427173	0.155944
1101.587923	0.156696
1101.748656	0.162631
1101.909370	0.161618
1102.070066	0.167341
1102.230743	0.163149
1102.391403	0.162859
1102.552044	0.164432
1102.712667	0.169114
1102.873271	0.169006
1103.033858	0.168597
1103.194426	0.164376
1103.354976	0.162512
1103.515508	0.157850
1103.676021	0.157642
1103.836517	0.153497
1103.996994	0.152609
1104.157453	0.145344
1104.317893	0.143433
1104.478316	0.145668
1104.638720	0.149167
1104.799106	0.147979
1104.959474	0.150931
1105.119823	0.153162
1105.280155	0.153900
1105.440468	0.153664
1105.600763	0.156872
1105.761039	0.157590
1105.921298	0.157681
1106.081538	0.153679
1106.241760	0.157645
1106.401964	0.154744
1106.562149	0.155938
1106.722316	0.157560
1106.882465	0.157113
1107.042596	0.156343
1107.202709	0.155782
1107.362803	0.154740
1107.522879	0.156702
1107.682937	0.154300
1107.842977	0.155645
1108.002999	0.155900
1108.163002	0.154853
1108.322987	0.153265
1108.482954	0.159326
1108.642902	0.162415
1108.802833	0.160906
1108.962745	0.161954
1109.122639	0.166368
1109.282515	0.165230
1109.442372	0.163891
1109.602211	0.163080
1109.762032	0.163898
1109.921835	0.158346
1110.081620	0.159616
1110.241386	0.157461
1110.401134	0.150802
1110.560864	0.148836
1110.720576	0.150741
1110.880269	0.148906
1111.039945	0.149068
1111.199602	0.147767
1111.359240	0.148327
1111.518861	0.146688
1111.678463	0.146482
1111.838047	0.152598
1111.997613	0.148997
1112.157161	0.147973
1112.316690	0.149608
1112.476202	0.150444
1112.635695	0.151471
1112.795169	0.150933
1112.954626	0.148500
1113.114064	0.149445
1113.273484	0.149018
1113.432886	0.150395
1113.592270	0.152132
1113.751635	0.153193
1113.910983	0.151988
1114.070312	0.152471
1114.229622	0.152187
1114.388915	0.154102
1114.548189	0.161432
1114.707445	0.156068
1114.866683	0.155642
1115.025903	0.155134
1115.185104	0.154460
1115.344287	0.159160
1115.503452	0.160139
1115.662599	0.160427
1115.821727	0.161562
1115.980838	0.162962
1116.139930	0.167270
1116.299004	0.172214
1116.458059	0.172298
1116.617097	0.174129
1116.776116	0.173799
1116.935117	0.174498
1117.094099	0.174852
1117.253064	0.171638
1117.412010	0.169962
1117.570938	0.167728
1117.729848	0.164998
1117.888740	0.162497
1118.047613	0.161669
1118.206468	0.157807
1118.365305	0.160272
1118.524124	0.159242
1118.682924	0.157839
1118.841707	0.152829
1119.000471	0.159536
1119.159216	0.160032
1119.317944	0.164108
1119.476653	0.163879
1119.635344	0.164217
1119.794017	0.160411
1119.952672	0.161476
1120.111308	0.163977
1120.269927	0.163269
1120.428527	0.156256
1120.587108	0.151261
1120.745672	0.147926
1120.904217	0.144586
1121.062744	0.149459
1121.221253	0.147128
1121.379744	0.140151
1121.538216	0.141142
1121.696671	0.143460
1121.855107	0.145620
1122.013524	0.146873
1122.171924	0.145590
1122.330305	0.147893
1122.488668	0.144728
1122.647013	0.146067
1122.805340	0.155796
1122.963648	0.153324
1123.121938	0.151544
1123.280210	0.149485
1123.438464	0.147021
1123.596700	0.149853
1123.754917	0.152531
1123.913116	0.149113
1124.071297	0.148847
1124.229459	0.145901
1124.387604	0.144097
1124.545730	0.145120
1124.703838	0.146329
1124.861928	0.148445
1125.019999	0.145424
1125.178052	0.142691
1125.336088	0.147069
1125.494104	0.151052
1125.652103	0.152519
1125.810083	0.154942
1125.968045	0.154595
1126.125989	0.160625
1126.283915	0.165095
1126.441823	0.164290
1126.599712	0.159314
1126.757583	0.157505
1126.915436	0.154144
1127.073270	0.155696
1127.231087	0.157311
1127.388885	0.153096
1127.546665	0.149202
1127.704426	0.149427
1127.862170	0.152262
1128.019895	0.159839
1128.177602	0.159750
1128.335291	0.154273
1128.492961	0.152034
1128.650614	0.151446
1128.808248	0.155922
1128.965864	0.155098
1129.123461	0.152033
1129.281041	0.151297
1129.438602	0.144577
1129.596145	0.141209
1129.753670	0.145288
1129.911176	0.146948
1130.068665	0.144236
1130.226135	0.143552
1130.383587	0.146933
1130.541020	0.149192
1130.698436	0.147761
1130.855833	0.153341
1131.013212	0.157507
1131.170573	0.159132
1131.327915	0.158307
1131.485239	0.160737
1131.642545	0.161301
1131.799833	0.159987
1131.957103	0.154952
1132.114354	0.157742
1132.271588	0.158002
1132.428803	0.156844
1132.585999	0.157604
1132.743178	0.156020
1132.900338	0.156021
1133.057480	0.156365
1133.214604	0.155377
1133.371710	0.158659
1133.528797	0.153360
1133.685866	0.154114
1133.842917	0.150680
1133.999950	0.151058
1134.156964	0.150027
1134.313960	0.147539
1134.470938	0.143517
1134.627898	0.144182
1134.784840	0.143137
1134.941763	0.145251
1135.098668	0.143929
1135.255555	0.146730
1135.412424	0.142334
1135.569274	0.144723
1135.726107	0.141031
1135.882921	0.147854
1136.039716	0.144777
1136.196494	0.138321
1136.353253	0.138925
1136.509995	0.137041
1136.666717	0.137568
1136.823422	0.142754
1136.980109	0.141139
1137.136777	0.143539
1137.293427	0.138702
1137.450059	0.140085
1137.606672	0.147277
1137.763267	0.146111
1137.919844	0.145048
1138.076403	0.145533
1138.232944	0.139562
1138.389466	0.143594
1138.545971	0.142157
1138.702457	0.146796
1138.858924	0.143995
1139.015374	0.142100
1139.171805	0.140810
1139.328218	0.140640
1139.484613	0.142799
1139.640990	0.147447
1139.797348	0.148086
1139.953688	0.157101
1140.110010	0.151515
1140.266314	0.151847
1140.422600	0.148115
1140.578867	0.150851
1140.735116	0.146014
1140.891347	0.142453
1141.047559	0.138442
1141.203754	0.134866
1141.359930	0.130795
1141.516088	0.131401
1141.672228	0.132597
1141.828349	0.137871
1141.984452	0.139068
1142.140537	0.141916
1142.296604	0.144514
1142.452653	0.146190
1142.608683	0.151678
1142.764695	0.148598
1142.920689	0.146572
1143.076665	0.150157
1143.232622	0.151822
1143.388562	0.152610
1143.544483	0.159319
1143.700385	0.155027
1143.856270	0.154078
1144.012136	0.143442
1144.167985	0.144044
1144.323814	0.150114
1144.479626	0.147311
1144.635420	0.145019
1144.791195	0.142540
1144.946952	0.136090
1145.102691	0.141270
1145.258411	0.141365
1145.414113	0.148571
1145.569798	0.146794
1145.725463	0.148235
1145.881111	0.145532
1146.036741	0.146055
1146.192352	0.150760
1146.347945	0.151922
1146.503519	0.146733
1146.659076	0.147969
1146.814614	0.147515
1146.970134	0.152888
1147.125636	0.146450
1147.281120	0.146143
1147.436585	0.136492
1147.592032	0.138486
1147.747461	0.140011
1147.902872	0.140838
1148.058265	0.139759
1148.213639	0.140056
1148.368995	0.140940
1148.524333	0.142231
1148.679653	0.142911
1148.834954	0.149417
1148.990237	0.144118
1149.145502	0.143566
1149.300749	0.136356
1149.455977	0.139128
1149.611188	0.131204
1149.766380	0.130736
1149.921553	0.133566
1150.076709	0.138358
1150.231846	0.138865
1150.386966	0.138620
1150.542066	0.140619
1150.697149	0.155006
1150.852214	0.161948
1151.007260	0.170781
1151.162288	0.169613
1151.317298	0.167741
1151.472289	0.168398
1151.627263	0.169194
1151.782218	0.161184
1151.937155	0.159074
1152.092073	0.155856
1152.246974	0.141574
1152.401856	0.136245
1152.556720	0.129858
1152.711566	0.131065
1152.866393	0.120878
1153.021203	0.125977
1153.175994	0.133895
1153.330767	0.129872
1153.485521	0.126721
1153.640258	0.131788
1153.794976	0.127704
1153.949676	0.129743
1154.104358	0.121952
1154.259021	0.126671
1154.413667	0.116726
1154.568294	0.115922
1154.722903	0.116460
1154.877493	0.115127
1155.032066	0.109574
1155.186620	0.115050
1155.341156	0.117756
1155.495674	0.125908
1155.650173	0.130229
1155.804654	0.132440
1155.959118	0.138276
1156.113562	0.142594
1156.267989	0.150967
1156.422397	0.156806
1156.576788	0.155960
1156.731160	0.149594
1156.885513	0.143802
1157.039849	0.140692
1157.194166	0.147832
1157.348465	0.135206
1157.502746	0.132954
1157.657009	0.125290
1157.811253	0.121072
1157.965479	0.123236
1158.119687	0.130189
1158.273877	0.131960
1158.428048	0.134239
1158.582201	0.131637
1158.736337	0.143108
1158.890453	0.143467
1159.044552	0.148840
1159.198632	0.152942
1159.352694	0.150429
1159.506738	0.143665
1159.660764	0.150175
1159.814771	0.146690
1159.968761	0.145455
1160.122732	0.136070
1160.276685	0.136691
1160.430619	0.130289
1160.584535	0.131296
1160.738434	0.127587
1160.892313	0.133012
1161.046175	0.126967
1161.200019	0.122982
1161.353844	0.117322
1161.507651	0.123146
1161.661440	0.127005
1161.815210	0.135765
1161.968962	0.135648
1162.122697	0.140373
1162.276412	0.139722
1162.430110	0.138521
1162.583789	0.143477
1162.737451	0.152882
1162.891094	0.145790
1163.044718	0.138013
1163.198325	0.130904
1163.351913	0.132795
1163.505483	0.133952
1163.659035	0.134677
1163.812569	0.133712
1163.966084	0.125139
1164.119581	0.122843
1164.273060	0.122302
1164.426521	0.125170
1164.579964	0.123731
1164.733388	0.113646
1164.886794	0.111605
1165.040182	0.113412
1165.193551	0.109701
1165.346903	0.115338
1165.500236	0.108725
1165.653551	0.121013
1165.806848	0.131414
1165.960126	0.129995
1166.113386	0.137363
1166.266628	0.130479
1166.419852	0.125817
1166.573058	0.135725
1166.726245	0.138386
1166.879414	0.139969
1167.032565	0.132305
1167.185698	0.118063
1167.338812	0.121062
1167.491909	0.119808
1167.644987	0.130019
1167.798046	0.132701
1167.951088	0.132925
1168.104111	0.123558
1168.257117	0.129562
1168.410103	0.125696
1168.563072	0.119438
1168.716023	0.114493
1168.868955	0.117694
1169.021869	0.111379
1169.174765	0.106418
1169.327642	0.096372
1169.480501	0.101494
1169.633343	0.104643
1169.786165	0.107448
1169.938970	0.118270
1170.091757	0.117185
1170.244525	0.121803
1170.397275	0.124083
1170.550007	0.120359
1170.702720	0.120092
1170.855415	0.118658
1171.008092	0.109578
1171.160751	0.106315
1171.313392	0.101809
1171.466014	0.090359
1171.618619	0.099896
1171.771205	0.099896
1171.923772	0.099896
