sample name	sample
index	470
start time	 03-11-2021  12:16:53 PM
880	0.475795
Peak Time (s)	92.04
Peak Height 	0.4758
calc peak height	90,93
Baseline Time (s)	9.537
Baseline Value 	-0.003299
subtract baseline	10,4
Abs	0.300087
Peak Time (s)	92.535
Peak Height 	0.3001
calc peak height	90,93
Baseline Time (s)	10.537
Baseline Value 	0.001084
subtract baseline	10,3
PK_550	0.139506
Peak Time (s)	90.035
Peak Height 	0.1395
calc peak height	90,93
Baseline Time (s)	11.537
Baseline Value 	6.4818E-4
subtract baseline	10,2
PK_880	0.289892
Peak Time (s)	91.537
Peak Height 	0.2899
calc peak height	90,93
Baseline Time (s)	10.537
Baseline Value 	0.0015
subtract baseline	10,1


Time (s)	A880-A510	A880-A775	A880-A975	A880	I510	I775	I975	I880	
0.036500	0.000130	-0.000686	-0.001085	0.001319	7096.602122	45820.952333	3955.461365	24314.038211
0.537000	-0.001332	0.000298	0.001535	0.004820	7048.214103	45572.908779	3953.127143	24141.594273
1.037000	-0.002301	-0.000199	0.001094	0.003150	7055.020414	45688.349915	3956.385486	24223.703048
1.537000	-0.002971	-0.000432	-0.003386	0.005188	7028.804190	45465.128646	3939.213116	24123.547373
2.034500	-0.000242	-0.000177	0.002681	0.000392	7102.056025	45963.275102	3967.975896	24359.964743
2.535000	-0.001998	-0.001088	-0.000026	-0.000319	7091.809453	45943.440609	3962.636443	24395.232204
3.036000	0.001434	0.000542	0.004531	-0.001311	7135.355197	46204.143764	3977.541932	24444.532936
3.538000	-0.000020	0.000086	0.002963	0.000369	7104.460289	45991.575849	3968.795891	24361.103926
4.036000	0.001377	-0.000174	-0.004224	-0.000070	7122.537656	46009.453644	3950.830724	24382.892196
4.536500	0.000913	0.000189	-0.003884	0.000429	7113.046540	45995.911945	3950.410277	24358.143511
5.036500	0.000393	0.000108	0.001889	0.000800	7104.284692	45950.971443	3964.762774	24339.731640
5.536500	-0.002058	-0.000830	-0.002660	-0.000071	7088.785507	45944.387656	3954.971272	24382.907899
6.037000	-0.000457	-0.000392	0.003049	0.000042	7103.383827	45976.620510	3969.904923	24377.332726
6.537500	0.001993	0.000163	0.002987	0.000812	7119.913425	45955.330685	3967.671832	24339.161521
7.035000	0.000428	-0.000289	0.002700	-0.000288	7115.332916	46019.615778	3969.851353	24393.694542
7.535500	-0.000736	-0.000567	0.000968	-0.000169	7102.706042	45980.148301	3964.889829	24387.757620
8.035500	-0.000883	-0.000140	0.000707	-0.000101	7100.601786	46015.741586	3964.010549	24384.389133
8.536000	0.001257	0.000137	0.003061	0.000573	7115.017196	45976.480159	3968.511141	24351.010941
9.036500	0.001005	0.000714	0.002126	0.000515	7113.107263	46039.467702	3966.160997	24353.863848
9.536500	-0.000628	-0.000445	-0.001172	0.000000	7102.110423	45975.536482	3958.734443	24379.395474
10.037000	0.001282	-0.000419	-0.003081	-0.000160	7122.482319	45993.993719	3954.090203	24387.318952
10.537000	0.000000	0.000319	0.000000	0.000213	7106.186818	46030.198764	3961.287141	24368.819156
11.037500	-0.000335	-0.000283	-0.000317	-0.000283	7107.771446	46019.696857	3961.764015	24393.435336
11.537500	-0.000138	0.000000	0.002884	-0.000145	7108.360939	46034.151545	3969.964586	24386.614763
12.035500	-0.000375	-0.000160	0.006030	0.000490	7099.787781	45955.198976	3976.724037	24355.098869
12.535500	0.000288	0.000255	0.001517	0.000109	7110.045124	46034.211329	3965.616887	24373.999915
13.036000	0.002460	0.000128	0.000335	-0.001598	7148.366616	46191.466823	3967.021788	24458.820875
13.536000	0.002521	0.000485	0.005269	0.001244	7120.857127	45944.422867	3972.638779	24317.763336
14.036000	0.000688	0.000793	-0.000441	0.002089	7094.527857	45891.133226	3955.127848	24276.009623
14.539000	-0.000653	-0.000453	0.003671	0.002836	7074.106800	45694.281513	3964.082830	24239.138833
15.036500	0.002123	0.000263	0.001525	0.000807	7121.241178	45965.726005	3963.772156	24339.389352
15.542500	-0.000410	0.000157	0.000183	0.000376	7100.563692	45997.998539	3961.342295	24360.748883
16.037500	0.000818	0.000209	0.000007	0.001150	7105.018704	45926.340340	3958.811147	24322.419214
16.535000	-0.001315	0.000488	0.000603	0.000666	7088.849294	46002.042690	3961.689255	24346.394740
17.035500	0.000194	-0.000820	0.003502	-0.000668	7116.773666	46004.647897	3973.031494	24412.571790
17.535500	0.002432	0.000125	0.001205	-0.001722	7149.321089	46203.497580	3969.689080	24464.993449
18.036500	0.000444	-0.000393	0.002894	0.000788	7104.900420	45902.558394	3967.485132	24340.313642
18.536500	0.000569	-0.000220	0.000204	0.001553	7098.625596	45844.034921	3958.265608	24302.506501
19.036000	-0.001484	-0.000365	0.000032	0.001610	7077.965106	45824.001665	3957.653659	24299.667402
19.537000	-0.001476	-0.000568	-0.000142	0.001449	7079.620882	45819.834045	3957.620815	24307.638829
20.039500	0.001255	0.000482	0.002638	0.002344	7097.590934	45835.220398	3962.642158	24263.439976
20.536500	-0.000703	0.000303	0.000484	0.002130	7080.514977	45838.691828	3957.473569	24273.994939
21.035000	-0.000257	-0.000518	-0.002483	0.001753	7088.568901	45794.777767	3950.614484	24292.602693
21.535500	-0.000288	-0.000042	-0.002185	0.001462	7091.113634	45870.597672	3952.170712	24306.984002
22.035500	-0.001163	-0.001521	-0.001992	0.001025	7086.828093	45767.595694	3953.838503	24328.615555
22.536000	-0.000042	-0.000294	0.001452	0.001799	7090.220625	45812.291144	3960.930713	24290.326220
23.036000	-0.000619	-0.000259	0.001778	0.002148	7081.158325	45781.326743	3960.868434	24273.090597
23.536000	0.000490	0.000739	0.000037	0.002619	7087.401330	45833.458233	3954.991033	24249.879122
24.036500	-0.001410	0.000430	0.002694	0.002320	7071.763703	45832.427086	3962.852080	24264.603828
24.537000	-0.001464	0.000647	0.002548	0.002128	7073.115370	45872.843788	3962.977706	24274.092250
25.037000	0.000716	0.000898	0.002460	0.002609	7089.714189	45850.078928	3961.458143	24250.347715
25.535000	-0.001527	-0.000059	0.001831	0.001628	7077.367066	45852.414107	3962.395054	24298.763840
26.037500	0.001334	0.000845	-0.001189	0.002397	7097.845684	45865.835596	3952.332091	24260.815173
26.535500	0.000543	-0.000371	0.003597	0.001752	7096.405032	45809.392747	3966.786321	24292.643424
27.035500	-0.000204	-0.000591	-0.001864	0.001800	7088.623250	45782.844643	3952.124579	24290.261399
27.535500	0.001306	-0.000180	0.003289	-0.000847	7129.503754	46086.007624	3972.939383	24421.445908
28.037000	0.002192	0.000241	-0.001344	-0.000478	7134.621976	46091.168471	3959.549102	24403.126804
28.536500	0.000256	-0.000122	0.001141	0.000739	7103.533140	45934.266263	3962.926392	24342.753660
29.037000	0.002542	0.000541	0.000920	0.001681	7116.757263	45906.624005	3959.826347	24296.148570
29.537000	0.000557	-0.000551	0.001142	0.000425	7109.575102	45922.796271	3963.768248	24358.306155
30.034500	0.002364	0.000934	-0.001041	0.001103	7120.700452	46002.870534	3956.150708	24324.733889
30.535000	0.000561	-0.000148	0.005812	0.000712	7106.795827	45934.338371	3975.536631	24344.084006
31.046000	-0.000488	0.000094	-0.000346	0.001819	7085.664771	45848.713024	3956.097431	24289.349084
31.538000	-0.000954	0.000267	-0.003021	0.004390	7056.059622	45612.183023	3942.259075	24162.691712
32.035500	0.001083	0.000100	0.003039	0.001616	7103.050864	45869.440328	3965.657907	24299.382718
32.547000	0.000067	0.000010	0.001108	0.000441	7104.607131	45976.961895	3963.635633	24357.547883
33.036500	-0.000785	0.000144	0.000285	0.002216	7078.877285	45814.316085	3956.715853	24269.717627
33.536500	0.001238	0.000207	0.002297	0.001551	7105.207790	45886.404347	3963.848121	24302.589102
34.039500	-0.000257	-0.000316	0.001172	0.002298	7083.235851	45760.930131	3958.858330	24265.711758
34.537000	-0.001097	-0.000235	0.002328	0.001210	7085.656273	45876.407174	3964.841217	24319.435336
35.037000	-0.001325	-0.000280	0.005140	0.002420	7071.623877	45752.379593	3969.133763	24259.684085
35.535000	-0.001799	0.000381	0.001198	0.003299	7058.442888	45730.813605	3956.266109	24216.328541
36.035000	-0.001298	-0.000520	0.001308	0.002945	7066.765593	45676.976659	3957.497599	24233.797837
36.535500	-0.000915	-0.000551	-0.005460	0.002684	7073.040615	45699.573024	3940.338380	24246.630441
37.036000	-0.000621	0.000350	0.003315	0.003469	7068.253726	45711.007109	3961.444097	24207.962546
37.536000	-0.001365	0.000497	0.002052	0.003081	7064.788267	45763.809466	3959.115590	24227.095089
38.036000	0.000245	-0.000467	0.001204	0.002943	7081.832701	45682.280291	3957.226981	24233.862719
38.539500	-0.000046	0.000492	0.005626	0.003618	7072.416141	45710.415913	3967.223895	24200.674160
39.037000	-0.000424	0.000150	0.002551	0.003089	7073.877940	45728.816277	3960.421392	24226.695472
39.534500	-0.001974	-0.000030	0.000684	0.003075	7058.921705	45712.392092	3955.497204	24227.387442
40.034500	-0.001345	-0.000478	-0.000144	0.002753	7068.176896	45700.049725	3954.156389	24243.261924
40.535000	-0.001777	-0.000507	0.003100	0.002634	7065.133632	45708.867250	3963.099562	24249.125120
41.035500	-0.001665	0.000149	0.003448	0.003428	7058.497929	45695.255678	3961.908490	24209.979874
41.535500	0.000630	0.000144	0.002532	0.003764	7077.580412	45661.673345	3958.575233	24193.461699
42.036000	-0.000088	0.000315	-0.002219	0.003292	7075.180248	45725.044753	3947.252532	24216.695644
42.535500	-0.000326	-0.000124	0.001261	0.003325	7072.537785	45678.512046	3956.364537	24215.084889
43.039500	-0.001120	-0.000615	0.004859	0.002887	7069.070300	45673.302657	3967.126827	24236.659466
43.536500	-0.000854	-0.000181	-0.000740	0.003533	7065.362936	45652.426268	3950.517192	24204.832446
44.036500	0.001251	0.000463	0.003709	0.004228	7079.110690	45647.366900	3960.471054	24170.660855
44.537500	-0.000172	-0.000183	0.004111	-0.000946	7115.897308	46095.516415	3975.420111	24426.375397
45.035000	-0.000179	-0.000250	0.002210	0.004284	7064.623786	45571.737572	3956.336358	24167.897255
45.535500	0.001652	-0.000229	0.004270	0.000893	7115.747996	45908.410688	3970.894801	24335.121153
46.035500	0.000570	-0.000385	-0.001783	0.002219	7092.106151	45761.916270	3951.231253	24269.602025
46.536000	0.000705	0.000445	0.001576	0.002093	7094.661210	45856.416528	3960.479472	24275.829796
47.036000	-0.000999	0.000465	0.000818	0.006242	7037.673007	45449.734950	3947.479650	24071.928926
47.536500	0.000859	0.000746	0.003782	0.001952	7097.548343	45900.082918	3966.746351	24282.750391
48.042000	0.001191	0.000369	0.000701	0.003597	7084.690584	45700.285566	3954.157216	24201.681082
48.537000	-0.002808	-0.000011	0.003457	0.004524	7036.797638	45571.638841	3959.013030	24156.130649
49.037500	-0.002557	-0.000314	0.003796	0.005188	7032.806571	45476.719306	3958.148710	24123.556936
49.543000	0.002086	-0.000017	0.000972	0.001704	7112.040089	45849.166616	3959.907561	24295.046268
50.041500	-0.001621	-0.000189	0.000939	0.002827	7064.767417	45721.143461	3956.830583	24239.593470
50.535500	-0.000003	0.000179	0.003548	0.001889	7089.718438	45850.135618	3966.287071	24285.870051
51.036000	-0.002124	-0.000657	-0.000901	0.004446	7044.169972	45515.863343	3947.681688	24159.949084
51.536000	0.003000	0.000540	0.001263	0.000537	7132.566831	46019.979227	3963.792141	24352.754597
52.036000	-0.000602	0.000218	0.005430	0.002472	7078.163975	45796.404909	3969.770586	24257.102352
52.536000	0.003224	0.000596	0.006840	-0.001725	7157.215275	46250.776759	3984.922130	24465.121112
53.036500	0.005679	0.001841	0.004059	0.039924	6784.504939	42398.628821	3870.051185	22487.096096
53.537500	-0.041987	-0.005752	-0.029431	0.203042	5267.008280	29556.531889	3481.775485	16333.333188
54.037500	-0.027702	-0.007478	-0.034943	-0.041344	7244.554299	49517.733999	3979.052389	26531.278434
54.534500	-0.034898	-0.121975	-0.032083	-0.284078	10417.402040	65535.000000	4872.750565	44275.153866
55.035000	-0.024294	-0.142364	-0.012709	-0.304466	10978.056346	65535.000000	5071.133477	46267.039374
55.535000	-0.028364	-0.104752	-0.003063	-0.266855	10233.138950	65535.000000	4929.724580	42663.870504
56.035500	-0.018607	-0.093925	0.000325	-0.256027	10214.937568	65535.000000	4893.617062	41683.161335
56.536000	0.001690	-0.067560	0.008821	-0.227234	10072.025745	65185.593217	4798.187194	39191.004929
57.036500	0.014433	-0.076015	0.002903	-0.238118	10476.470635	65535.000000	4821.124645	40113.676090
57.536500	0.030327	-0.051884	0.018949	-0.209853	10261.952230	64941.582645	4765.152748	37764.674478
58.037000	0.033727	-0.031344	0.028685	-0.180103	9824.922119	63639.383226	4676.807051	35451.975882
58.537500	0.046365	-0.000963	0.045303	-0.116200	9046.984412	59126.556385	4483.571711	30988.892110
59.036500	0.065889	0.018424	0.071278	-0.053003	8452.979153	53730.190384	4345.588251	27176.051216
59.535000	0.098973	0.039736	0.100381	0.025779	7892.167926	47428.318305	4178.920453	23137.707710
60.035000	0.123288	0.056061	0.128185	0.099219	7351.626367	41939.546275	4041.737157	19978.915861
60.535500	0.147198	0.070945	0.154844	0.154556	7036.547087	38466.224667	3962.622999	17927.806711
61.036000	0.171893	0.085277	0.175768	0.206003	6785.728342	35551.992233	3883.964076	16241.621955
61.538500	0.191725	0.098624	0.196751	0.258713	6497.896539	32721.627704	3807.858007	14709.228143
62.036500	0.204089	0.108421	0.218111	0.309192	6190.389747	30053.828491	3742.733014	13406.151437
62.536500	0.221756	0.119088	0.240216	0.342872	6069.029396	28651.782756	3718.032872	12617.241371
63.037000	0.237369	0.129784	0.252034	0.371387	5974.462953	27616.134484	3683.546875	11995.544281
63.537500	0.245208	0.133932	0.250283	0.384554	5936.220466	27107.883756	3653.835547	11721.950953
64.037500	0.252483	0.138470	0.259748	0.387572	5966.733050	27192.786087	3666.551359	11660.394258
64.538000	0.255167	0.141447	0.262002	0.395746	5927.430751	26903.674995	3654.869372	11495.830242
65.063500	0.258713	0.141202	0.261376	0.402608	5903.928337	26513.835268	3640.315732	11360.034076
65.535500	0.262292	0.143688	0.270220	0.410167	5875.963499	26239.481503	3642.795186	11212.925547
66.038500	0.264769	0.143735	0.273193	0.415548	5855.720016	25954.434668	3638.156885	11109.754046
66.536000	0.266994	0.147265	0.270942	0.421064	5832.937235	25849.123510	3623.364025	11005.296780
67.036500	0.263165	0.146576	0.273008	0.430144	5745.226956	25338.468023	3610.231606	10836.243921
67.536500	0.266174	0.146602	0.273613	0.427092	5786.082311	25498.080358	3617.051460	10892.663811
68.037000	0.264905	0.146563	0.280122	0.432470	5741.306099	25217.854596	3619.172902	10793.493727
68.534500	0.267576	0.147265	0.274082	0.433452	5752.616385	25203.421222	3606.093984	10775.515016
69.034500	0.266350	0.147616	0.278180	0.441965	5687.984744	24787.973425	3597.975832	10621.358236
69.535000	0.272814	0.148915	0.283542	0.439515	5747.088518	24977.815792	3612.395273	10665.417031
70.035500	0.271218	0.148025	0.281089	0.443896	5707.326177	24711.348381	3599.769094	10586.823178
70.536000	0.274079	0.149123	0.280162	0.445022	5718.813543	24709.942817	3596.014048	10566.740598
71.036500	0.272837	0.149203	0.281063	0.452726	5660.079098	24330.170063	3583.696803	10430.776702
71.536500	0.276023	0.149991	0.287653	0.450230	5697.243345	24492.961626	3600.190814	10474.569433
72.036500	0.275503	0.149356	0.282528	0.452847	5676.665021	24331.782337	3586.116905	10428.667539
72.536500	0.278410	0.150366	0.286604	0.452353	5698.981287	24406.209147	3594.392683	10437.311720
73.037000	0.276078	0.149670	0.284834	0.455905	5660.477033	24196.689008	3584.761286	10375.372609
73.537500	0.279590	0.150886	0.279471	0.452056	5708.730859	24446.725771	3582.044264	10442.516629
74.035000	0.281691	0.151012	0.287655	0.455105	5702.466559	24302.070313	3591.301348	10389.280867
74.535500	0.280639	0.151148	0.286296	0.453827	5703.961313	24371.919692	3591.155891	10411.552897
75.035500	0.276484	0.150949	0.290725	0.459878	5637.388809	24064.938568	3588.218138	10306.694625
75.538500	0.281875	0.151838	0.292504	0.455892	5698.497628	24304.031185	3598.703716	10375.605282
76.036000	0.281784	0.151040	0.282059	0.458470	5680.967262	24138.171046	3575.216216	10330.973359
76.536500	0.283518	0.150814	0.290159	0.457045	5701.721529	24196.931496	3592.326307	10355.611168
77.037000	0.283870	0.150330	0.283697	0.462161	5670.478292	23923.928363	3571.578447	10267.521554
77.537000	0.285900	0.149718	0.286541	0.457020	5717.639895	24144.451810	3585.828850	10356.046376
78.037500	0.286213	0.149918	0.290285	0.457234	5718.296731	24143.745402	3592.212111	10352.338397
78.534500	0.281063	0.149261	0.294906	0.457424	5683.100521	24102.352429	3600.299381	10349.051848
79.035000	0.282645	0.148669	0.287390	0.463760	5652.116135	23766.547899	3575.287515	10240.194267
79.535000	0.284736	0.148067	0.289332	0.457881	5704.240916	24021.818495	3589.311092	10341.140643
80.038000	0.285874	0.148838	0.286358	0.459988	5697.856306	23956.914226	3580.172646	10304.810101
80.535500	0.285726	0.148002	0.294200	0.459842	5697.839458	23923.433864	3594.587422	10307.310554
81.036500	0.281318	0.145903	0.288640	0.464463	5638.995128	23600.461238	3576.260713	10228.218659
81.537000	0.285943	0.145743	0.288913	0.460149	5697.248780	23799.521732	3584.464366	10302.031766
82.037000	0.285933	0.144933	0.293586	0.460946	5691.939841	23722.298093	3591.464844	10288.344480
82.537000	0.287356	0.146173	0.299296	0.462625	5690.254569	23701.244714	3598.810631	10259.579425
83.037500	0.280769	0.145900	0.284905	0.469256	5604.756108	23372.981656	3561.237207	10147.063350
83.534500	0.285716	0.144698	0.295486	0.463600	5673.140420	23584.190717	3590.099155	10242.936146
84.035000	0.284476	0.145110	0.296769	0.466713	5644.861294	23455.816437	3586.790772	10190.007899
84.538500	0.286801	0.143881	0.298364	0.464431	5674.792045	23505.777288	3593.813560	10228.769523
85.035500	0.285854	0.143681	0.297107	0.465597	5661.024479	23441.022471	3589.417628	10208.943292
85.535500	0.287498	0.143373	0.293732	0.466069	5668.653341	23404.134895	3582.488225	10200.929843
86.036500	0.284054	0.142191	0.295408	0.468635	5629.748682	23227.840434	3580.893163	10157.524851
86.536500	0.286928	0.142611	0.300241	0.467598	5655.005195	23296.173286	3591.469044	10175.032198
87.037000	0.286219	0.141765	0.294378	0.472366	5619.703104	23034.086320	3572.419254	10094.881582
87.534500	0.286812	0.141567	0.299078	0.468375	5649.218527	23210.831077	3587.958847	10161.920232
88.035000	0.284773	0.141128	0.297737	0.471746	5614.424304	23033.311394	3579.496145	10105.266317
88.535500	0.286429	0.140327	0.298425	0.468488	5646.007126	23147.600368	3586.577167	10160.004760
89.035000	0.286250	0.140170	0.291083	0.474014	5609.367349	22884.192744	3563.718158	10067.381905
89.535500	0.287318	0.138901	0.302569	0.470033	5641.773217	23009.479057	3591.276784	10134.000899
90.035500	0.289304	0.139506	0.293694	0.473772	5630.481706	22864.784377	3568.728966	10071.416256
90.536000	0.287040	0.138831	0.298127	0.471344	5631.531437	22945.574258	3580.910445	10111.985157
91.039000	0.286905	0.137867	0.299348	0.474015	5613.542215	22778.405967	3578.322424	10067.374742
91.537000	0.289892	0.139153	0.295794	0.472816	5640.418733	22892.523242	3574.131232	10087.358598
92.039500	0.287397	0.138248	0.294411	0.475795	5605.324157	22714.425692	3566.431049	10037.776940
92.534500	0.288410	0.137444	0.300087	0.473162	5628.654383	22798.138671	3581.166948	10081.594157
93.035000	0.284779	0.137211	0.297055	0.477937	5575.163756	22569.871107	3567.313702	10002.347164
93.535000	0.289177	0.136509	0.304735	0.474482	5625.101026	22694.982571	3587.147424	10059.594179
94.038500	0.287248	0.136119	0.305930	0.474508	5612.584087	22676.064986	3589.259175	10059.165922
94.535500	0.288495	0.137125	0.306969	0.475603	5613.551554	22671.970883	3589.156770	10040.963199
95.036000	0.287079	0.134878	0.303274	0.476397	5599.467823	22533.931420	3581.081223	10027.807768
95.536500	0.290201	0.135847	0.300257	0.476759	5617.071906	22561.389198	3575.054235	10021.809691
96.066500	0.290020	0.135215	0.300308	0.476389	5618.279893	22549.557113	3575.802552	10027.937416
96.537000	0.289400	0.134059	0.297201	0.476613	5612.879154	22487.123650	3569.901413	10024.218760
97.034500	0.288261	0.132932	0.299544	0.478139	5595.908191	22367.794973	3571.346217	9999.008304
97.537500	0.287294	0.133141	0.308134	0.476727	5598.741518	22440.640327	3589.231977	10022.346120
98.037000	0.289243	0.132660	0.305452	0.478204	5601.738734	22352.690385	3581.744487	9997.929191
98.538000	0.292562	0.134744	0.311436	0.480183	5610.278985	22357.411573	3588.954285	9965.368507
