sample name	sample
index	1039
start time	 04-19-2021  02:03:23 PM


Wavelength (nm)	Absorbance
494.344910	-0.326783
494.563924	-0.326783
494.782919	-0.326783
495.001897	0.011239
495.220856	-0.244230
495.439797	-0.190812
495.658719	-0.125470
495.877624	-0.115292
496.096510	-0.123997
496.315378	-0.112132
496.534227	-0.128275
496.753059	-0.032785
496.971872	-0.011782
497.190667	0.073355
497.409444	0.086698
497.628203	0.085115
497.846943	0.088372
498.065665	0.090826
498.284369	0.092402
498.503055	0.092423
498.721723	0.091302
498.940372	0.091417
499.159003	0.092255
499.377616	0.090657
499.596210	0.090985
499.814787	0.091043
500.033345	0.090030
500.251885	0.090089
500.470406	0.089934
500.688910	0.090467
500.907395	0.090564
501.125862	0.089657
501.344311	0.091094
501.562742	0.090141
501.781154	0.089209
501.999548	0.089718
502.217924	0.088582
502.436282	0.088221
502.654621	0.088812
502.872942	0.089811
503.091245	0.088906
503.309530	0.087777
503.527797	0.087880
503.746045	0.088130
503.964275	0.087585
504.182487	0.087369
504.400681	0.087362
504.618856	0.086514
504.837013	0.085520
505.055152	0.085980
505.273273	0.086515
505.491376	0.087655
505.709460	0.087938
505.927526	0.088099
506.145574	0.088418
506.363604	0.088252
506.581615	0.089175
506.799608	0.088783
507.017583	0.089286
507.235540	0.089199
507.453478	0.089116
507.671399	0.089517
507.889301	0.088814
508.107185	0.089492
508.325050	0.089850
508.542898	0.089356
508.760727	0.089570
508.978538	0.089278
509.196330	0.090199
509.414105	0.089727
509.631861	0.089381
509.849599	0.090374
510.067319	0.090756
510.285021	0.090571
510.502704	0.090332
510.720369	0.090397
510.938016	0.090661
511.155645	0.089704
511.373255	0.089993
511.590848	0.090199
511.808422	0.090333
512.025977	0.089756
512.243515	0.089897
512.461034	0.090346
512.678536	0.090376
512.896018	0.090712
513.113483	0.090929
513.330930	0.091426
513.548358	0.091328
513.765768	0.091528
513.983160	0.091805
514.200533	0.092074
514.417889	0.092405
514.635226	0.092477
514.852545	0.092219
515.069845	0.093125
515.287128	0.092894
515.504392	0.092670
515.721638	0.091937
515.938866	0.091736
516.156075	0.091894
516.373267	0.090699
516.590440	0.090897
516.807594	0.090837
517.024731	0.090443
517.241850	0.090163
517.458950	0.090274
517.676032	0.090866
517.893095	0.090334
518.110141	0.090080
518.327168	0.091865
518.544177	0.091283
518.761168	0.092474
518.978141	0.091923
519.195095	0.092443
519.412031	0.092926
519.628949	0.093182
519.845849	0.093667
520.062731	0.093513
520.279594	0.092290
520.496439	0.092308
520.713266	0.091740
520.930074	0.092135
521.146865	0.091500
521.363637	0.091109
521.580391	0.091058
521.797127	0.091444
522.013844	0.092074
522.230543	0.092661
522.447224	0.093505
522.663887	0.093136
522.880532	0.093809
523.097158	0.094536
523.313766	0.094478
523.530356	0.094362
523.746928	0.094330
523.963481	0.094083
524.180017	0.095142
524.396534	0.095485
524.613032	0.095512
524.829513	0.094794
525.045975	0.094517
525.262420	0.094676
525.478845	0.094581
525.695253	0.094812
525.911643	0.095741
526.128014	0.094735
526.344367	0.094885
526.560702	0.095657
526.777018	0.096358
526.993316	0.096814
527.209597	0.097611
527.425858	0.098127
527.642102	0.098023
527.858328	0.097842
528.074535	0.098187
528.290724	0.097973
528.506894	0.098324
528.723047	0.098075
528.939181	0.097873
529.155297	0.097964
529.371395	0.097758
529.587475	0.097829
529.803536	0.098186
530.019579	0.098037
530.235604	0.097901
530.451611	0.097846
530.667600	0.098238
530.883570	0.098893
531.099522	0.098934
531.315456	0.099128
531.531372	0.099514
531.747269	0.099554
531.963148	0.099752
532.179009	0.099976
532.394852	0.100072
532.610676	0.099440
532.826482	0.099872
533.042271	0.100065
533.258040	0.100388
533.473792	0.100883
533.689525	0.100503
533.905240	0.101193
534.120937	0.101787
534.336616	0.102076
534.552277	0.102530
534.767919	0.102209
534.983543	0.102267
535.199149	0.102687
535.414736	0.102642
535.630306	0.103110
535.845857	0.102873
536.061390	0.102730
536.276904	0.102464
536.492401	0.102743
536.707879	0.103255
536.923339	0.103471
537.138781	0.103563
537.354204	0.103174
537.569610	0.103748
537.784997	0.103902
538.000366	0.104436
538.215716	0.105136
538.431049	0.106221
538.646363	0.106348
538.861659	0.106214
539.076937	0.106381
539.292196	0.107177
539.507438	0.106843
539.722661	0.107002
539.937866	0.107049
540.153052	0.107140
540.368221	0.106647
540.583371	0.106638
540.798503	0.106850
541.013617	0.106660
541.228712	0.106649
541.443789	0.106599
541.658848	0.106814
541.873889	0.106931
542.088912	0.106712
542.303916	0.106291
542.518902	0.106425
542.733870	0.106898
542.948820	0.107302
543.163752	0.107182
543.378665	0.107458
543.593560	0.107804
543.808437	0.107696
544.023295	0.107966
544.238136	0.108668
544.452958	0.109044
544.667762	0.108911
544.882548	0.108880
545.097315	0.109572
545.312064	0.109841
545.526795	0.109753
545.741508	0.109692
545.956203	0.109825
546.170879	0.109920
546.385537	0.109744
546.600177	0.110040
546.814799	0.110470
547.029402	0.110458
547.243988	0.110671
547.458555	0.110519
547.673103	0.111181
547.887634	0.111353
548.102146	0.111400
548.316640	0.111930
548.531116	0.111803
548.745574	0.111491
548.960013	0.111690
549.174435	0.111854
549.388838	0.112594
549.603222	0.112745
549.817589	0.112795
550.031937	0.112874
550.246267	0.112807
550.460579	0.113231
550.674873	0.113722
550.889148	0.113418
551.103405	0.113613
551.317644	0.113288
551.531865	0.113209
551.746068	0.113130
551.960252	0.113401
552.174418	0.113122
552.388566	0.112628
552.602696	0.112526
552.816807	0.112956
553.030900	0.112682
553.244975	0.112943
553.459032	0.112769
553.673070	0.113092
553.887091	0.113226
554.101093	0.113426
554.315077	0.114152
554.529042	0.114149
554.742990	0.114145
554.956919	0.114675
555.170830	0.114404
555.384722	0.114714
555.598597	0.114475
555.812453	0.114511
556.026291	0.114740
556.240111	0.114379
556.453913	0.114389
556.667696	0.114530
556.881461	0.113985
557.095208	0.114131
557.308937	0.113662
557.522647	0.113702
557.736339	0.113716
557.950013	0.113522
558.163669	0.113520
558.377307	0.114086
558.590926	0.114198
558.804527	0.114244
559.018110	0.114529
559.231675	0.115098
559.445221	0.115673
559.658749	0.115827
559.872259	0.116126
560.085751	0.116598
560.299225	0.116213
560.512680	0.116473
560.726117	0.117035
560.939536	0.117036
561.152937	0.117077
561.366319	0.116800
561.579683	0.116595
561.793029	0.116868
562.006357	0.116876
562.219667	0.116949
562.432958	0.116574
562.646231	0.116519
562.859486	0.116731
563.072723	0.116792
563.285941	0.116887
563.499141	0.116937
563.712323	0.116507
563.925487	0.116566
564.138632	0.116532
564.351760	0.116572
564.564869	0.116441
564.777960	0.116330
564.991032	0.116667
565.204087	0.117144
565.417123	0.117411
565.630141	0.117861
565.843140	0.118048
566.056122	0.118360
566.269085	0.118705
566.482030	0.118945
566.694957	0.118886
566.907866	0.118568
567.120756	0.118107
567.333628	0.118069
567.546482	0.117992
567.759318	0.117484
567.972135	0.117450
568.184935	0.117425
568.397716	0.117040
568.610478	0.117209
568.823223	0.117536
569.035949	0.117600
569.248657	0.118187
569.461347	0.118227
569.674019	0.118617
569.886672	0.119058
570.099308	0.118750
570.311925	0.119303
570.524523	0.119407
570.737104	0.119060
570.949666	0.119195
571.162210	0.118980
571.374736	0.118983
571.587244	0.118945
571.799733	0.118464
572.012205	0.118517
572.224658	0.118955
572.437092	0.118689
572.649509	0.118916
572.861907	0.119182
573.074287	0.118683
573.286649	0.118536
573.498993	0.118758
573.711318	0.119009
573.923625	0.119074
574.135914	0.118630
574.348185	0.119101
574.560438	0.119295
574.772672	0.119180
574.984888	0.119528
575.197086	0.119981
575.409266	0.119983
575.621427	0.119672
575.833570	0.119738
576.045695	0.119801
576.257802	0.119696
576.469890	0.119703
576.681961	0.120030
576.894013	0.120107
577.106046	0.120194
577.318062	0.120203
577.530059	0.120802
577.742039	0.121081
577.954000	0.120983
578.165942	0.120984
578.377867	0.120692
578.589773	0.120309
578.801661	0.120264
579.013531	0.120050
579.225382	0.120376
579.437216	0.120258
579.649031	0.120426
579.860828	0.120580
580.072606	0.120712
580.284367	0.121137
580.496109	0.121150
580.707833	0.121534
580.919539	0.121888
581.131227	0.121740
581.342896	0.121754
581.554547	0.121438
581.766180	0.121505
581.977795	0.121399
582.189391	0.121158
582.400969	0.121465
582.612529	0.121210
582.824071	0.121261
583.035595	0.121267
583.247100	0.121552
583.458587	0.121733
583.670056	0.121782
583.881506	0.122198
584.092939	0.122567
584.304353	0.122568
584.515749	0.122705
584.727127	0.122664
584.938486	0.122697
585.149828	0.122463
585.361151	0.122175
585.572456	0.122281
585.783742	0.122375
585.995011	0.122472
586.206261	0.122539
586.417493	0.122571
586.628706	0.122811
586.839902	0.123340
587.051079	0.123386
587.262238	0.123689
587.473379	0.124039
587.684502	0.124098
587.895606	0.124222
588.106692	0.124487
588.317760	0.124664
588.528810	0.124378
588.739841	0.124087
588.950855	0.124647
589.161850	0.125124
589.372827	0.125293
589.583785	0.125315
589.794726	0.125305
590.005648	0.125493
590.216552	0.125688
590.427437	0.126325
590.638305	0.126414
590.849154	0.126328
591.059985	0.126322
591.270798	0.126433
591.481592	0.126145
591.692369	0.126292
591.903127	0.126023
592.113867	0.126055
592.324588	0.125683
592.535292	0.125634
592.745977	0.125926
592.956644	0.125824
593.167293	0.125747
593.377923	0.126310
593.588536	0.126545
593.799130	0.126512
594.009706	0.126784
594.220263	0.127181
594.430803	0.127716
594.641324	0.127381
594.851827	0.127734
595.062312	0.127645
595.272778	0.127699
595.483227	0.127632
595.693657	0.128075
595.904069	0.128034
596.114462	0.128265
596.324838	0.128297
596.535195	0.128615
596.745534	0.128510
596.955855	0.128691
597.166157	0.128592
597.376441	0.128720
597.586707	0.128910
597.796955	0.129122
598.007185	0.128771
598.217396	0.128881
598.427589	0.128936
598.637764	0.129079
598.847921	0.129309
599.058060	0.129532
599.268180	0.129634
599.478282	0.129567
599.688366	0.129693
599.898431	0.129981
600.108479	0.129830
600.318508	0.129930
600.528519	0.129953
600.738511	0.129864
600.948486	0.130078
601.158442	0.129991
601.368380	0.130013
601.578300	0.129836
601.788202	0.129906
601.998085	0.129983
602.207950	0.130063
602.417797	0.130641
602.627626	0.130533
602.837436	0.130596
603.047228	0.130969
603.257002	0.130946
603.466758	0.131176
603.676496	0.131226
603.886215	0.131287
604.095916	0.131284
604.305599	0.131129
604.515264	0.131472
604.724910	0.131408
604.934538	0.131220
605.144148	0.131679
605.353740	0.131818
605.563314	0.131828
605.772869	0.132135
605.982406	0.131964
606.191925	0.131768
606.401425	0.131680
606.610908	0.131657
606.820372	0.131690
607.029818	0.131464
607.239246	0.131088
607.448655	0.131067
607.658047	0.130640
607.867420	0.130776
608.076775	0.130960
608.286111	0.130827
608.495430	0.130986
608.704730	0.131064
608.914012	0.130952
609.123275	0.131388
609.332521	0.131473
609.541748	0.131772
609.750957	0.131926
609.960148	0.132070
610.169321	0.132299
610.378475	0.132324
610.587611	0.132493
610.796729	0.132697
611.005829	0.132729
611.214910	0.132950
611.423974	0.133047
611.633019	0.133232
611.842045	0.133053
612.051054	0.133403
612.260044	0.133626
612.469017	0.133444
612.677970	0.133560
612.886906	0.133578
613.095824	0.133613
613.304723	0.133488
613.513604	0.133635
613.722467	0.133688
613.931311	0.133330
614.140138	0.133009
614.348946	0.133371
614.557736	0.133462
614.766507	0.133642
614.975261	0.133476
615.183996	0.133710
615.392713	0.133408
615.601412	0.133789
615.810092	0.133885
616.018754	0.134339
616.227399	0.134262
616.436024	0.134417
616.644632	0.134520
616.853222	0.134882
617.061793	0.134963
617.270346	0.135335
617.478880	0.135320
617.687397	0.135430
617.895895	0.135422
618.104375	0.135484
618.312837	0.135416
618.521281	0.135182
618.729706	0.135081
618.938113	0.135240
619.146502	0.135314
619.354873	0.135322
619.563226	0.135477
619.771560	0.135499
619.979876	0.135598
620.188174	0.135489
620.396453	0.135746
620.604715	0.136058
620.812958	0.135780
621.021183	0.135628
621.229390	0.135684
621.437578	0.136080
621.645748	0.136275
621.853900	0.136392
622.062034	0.136667
622.270150	0.136759
622.478247	0.136673
622.686326	0.137079
622.894387	0.137271
623.102430	0.137260
623.310454	0.137146
623.518461	0.137124
623.726449	0.137148
623.934418	0.137069
624.142370	0.137225
624.350303	0.137274
624.558218	0.137074
624.766115	0.137048
624.973994	0.136882
625.181855	0.136751
625.389697	0.136730
625.597521	0.136844
625.805327	0.137019
626.013114	0.136664
626.220883	0.136438
626.428634	0.136646
626.636367	0.136922
626.844082	0.137071
627.051778	0.137336
627.259457	0.137522
627.467117	0.137625
627.674758	0.137708
627.882382	0.138161
628.089987	0.138350
628.297574	0.138631
628.505143	0.138849
628.712694	0.139126
628.920226	0.139191
629.127740	0.139200
629.335236	0.139019
629.542714	0.138946
629.750174	0.138843
629.957615	0.138887
630.165038	0.139011
630.372443	0.138916
630.579829	0.138997
630.787198	0.138868
630.994548	0.139083
631.201880	0.139302
631.409194	0.139489
631.616489	0.139559
631.823766	0.139985
632.031025	0.140080
632.238266	0.140101
632.445489	0.140082
632.652693	0.140284
632.859879	0.140225
633.067047	0.140483
633.274197	0.140814
633.481329	0.141020
633.688442	0.140867
633.895537	0.140906
634.102614	0.141181
634.309672	0.141443
634.516713	0.141663
634.723735	0.141690
634.930739	0.141600
635.137724	0.141490
635.344692	0.141340
635.551641	0.141633
635.758572	0.141800
635.965485	0.141799
636.172379	0.142012
636.379256	0.142097
636.586114	0.142496
636.792954	0.142604
636.999775	0.142843
637.206579	0.143115
637.413364	0.143010
637.620131	0.142838
637.826880	0.142743
638.033610	0.142522
638.240323	0.142274
638.447017	0.142219
638.653692	0.142155
638.860350	0.142009
639.066990	0.142087
639.273611	0.142146
639.480214	0.142366
639.686798	0.142312
639.893365	0.142288
640.099913	0.142685
640.306443	0.142407
640.512955	0.142686
640.719449	0.142833
640.925924	0.142811
641.132381	0.143120
641.338820	0.143008
641.545241	0.143020
641.751644	0.143239
641.958028	0.143302
642.164394	0.143638
642.370742	0.143622
642.577071	0.143734
642.783383	0.144018
642.989676	0.143952
643.195951	0.144102
643.402207	0.144508
643.608446	0.144861
643.814666	0.144836
644.020868	0.145146
644.227052	0.145199
644.433218	0.145392
644.639365	0.145433
644.845494	0.145459
645.051605	0.145337
645.257698	0.145313
645.463772	0.145074
645.669828	0.145090
645.875866	0.145110
646.081886	0.145257
646.287888	0.145154
646.493871	0.145110
646.699836	0.145501
646.905783	0.145780
647.111712	0.145856
647.317622	0.146134
647.523514	0.146379
647.729388	0.146159
647.935244	0.146125
648.141082	0.146397
648.346901	0.146688
648.552702	0.146551
648.758485	0.146809
648.964250	0.147073
649.169996	0.147158
649.375724	0.147227
649.581434	0.147414
649.787126	0.147774
649.992800	0.147807
650.198455	0.147951
650.404092	0.148133
650.609711	0.147960
650.815311	0.148092
651.020894	0.148085
651.226458	0.148110
651.432004	0.148181
651.637532	0.148021
651.843041	0.147743
652.048532	0.147653
652.254006	0.147461
652.459460	0.147626
652.664897	0.147682
652.870315	0.147982
653.075716	0.148158
653.281097	0.148484
653.486461	0.148656
653.691807	0.149018
653.897134	0.149082
654.102443	0.149263
654.307734	0.149474
654.513006	0.149416
654.718261	0.149269
654.923497	0.149360
655.128715	0.149464
655.333915	0.149618
655.539096	0.149865
655.744259	0.150125
655.949404	0.150264
656.154531	0.150260
656.359640	0.150358
656.564730	0.150484
656.769802	0.150531
656.974856	0.150564
657.179892	0.150655
657.384909	0.150626
657.589908	0.150718
657.794889	0.150896
657.999852	0.151112
658.204797	0.151347
658.409723	0.151475
658.614631	0.151516
658.819521	0.151399
659.024393	0.151513
659.229246	0.151622
659.434081	0.151642
659.638898	0.151483
659.843697	0.151451
660.048478	0.151576
660.253240	0.151903
660.457984	0.152182
660.662710	0.152245
660.867417	0.152428
661.072107	0.152856
661.276778	0.152967
661.481431	0.153300
661.686066	0.153317
661.890682	0.153360
662.095281	0.153197
662.299861	0.153209
662.504422	0.153363
662.708966	0.153447
662.913491	0.153183
663.117999	0.153276
663.322488	0.153402
663.526958	0.153544
663.731411	0.153552
663.935845	0.153567
664.140261	0.153711
664.344659	0.153860
664.549038	0.153676
664.753400	0.153678
664.957743	0.153875
665.162068	0.153956
665.366375	0.154218
665.570663	0.154294
665.774933	0.154484
665.979185	0.154562
666.183419	0.154731
666.387635	0.154927
666.591832	0.155247
666.796011	0.155278
667.000172	0.155254
667.204315	0.155313
667.408439	0.155465
667.612545	0.155742
667.816634	0.155767
668.020703	0.155740
668.224755	0.155914
668.428788	0.155924
668.632803	0.155851
668.836800	0.155989
669.040779	0.155959
669.244739	0.156025
669.448681	0.156039
669.652605	0.156091
669.856511	0.156361
670.060399	0.156596
670.264268	0.156647
670.468119	0.156884
670.671952	0.156873
670.875767	0.156983
671.079563	0.157005
671.283341	0.157212
671.487101	0.157400
671.690843	0.157532
671.894567	0.157456
672.098272	0.157560
672.301959	0.157695
672.505628	0.157851
672.709278	0.158094
672.912911	0.158383
673.116525	0.158272
673.320121	0.158277
673.523699	0.158182
673.727258	0.158307
673.930799	0.158441
674.134322	0.158272
674.337827	0.158337
674.541314	0.158352
674.744782	0.158233
674.948232	0.158406
675.151664	0.158721
675.355078	0.158872
675.558474	0.158914
675.761851	0.159210
675.965210	0.159551
676.168551	0.160004
676.371873	0.160136
676.575178	0.160534
676.778464	0.160754
676.981732	0.160777
677.184981	0.160931
677.388213	0.161094
677.591426	0.161240
677.794621	0.161380
677.997798	0.161450
678.200956	0.161380
678.404097	0.161419
678.607219	0.161527
678.810323	0.161558
679.013408	0.161687
679.216476	0.161818
679.419525	0.161773
679.622556	0.161808
679.825569	0.161854
680.028563	0.162392
680.231540	0.162459
680.434498	0.162595
680.637438	0.162913
680.840359	0.163061
681.043263	0.163301
681.246148	0.163359
681.449015	0.163599
681.651864	0.163431
681.854694	0.163310
682.057506	0.163322
682.260301	0.163279
682.463076	0.163209
682.665834	0.163217
682.868573	0.163286
683.071295	0.163367
683.273998	0.163223
683.476682	0.163310
683.679349	0.163242
683.881997	0.163321
684.084627	0.163314
684.287239	0.163397
684.489833	0.163337
684.692408	0.163324
684.894965	0.163342
685.097504	0.163673
685.300025	0.163817
685.502527	0.163951
685.705012	0.164004
685.907478	0.164015
686.109925	0.164117
686.312355	0.164311
686.514766	0.164583
686.717159	0.164828
686.919534	0.164734
687.121891	0.164813
687.324230	0.164989
687.526550	0.165152
687.728852	0.165393
687.931136	0.165478
688.133401	0.165526
688.335649	0.165483
688.537878	0.165342
688.740089	0.165442
688.942281	0.165722
689.144456	0.166025
689.346612	0.166205
689.548750	0.166415
689.750870	0.166457
689.952971	0.166678
690.155055	0.166976
690.357120	0.167261
690.559167	0.167318
690.761195	0.167589
690.963206	0.167498
691.165198	0.167651
691.367172	0.167578
691.569128	0.167563
691.771065	0.167607
691.972984	0.167475
692.174885	0.167542
692.376768	0.167671
692.578633	0.167421
692.780479	0.167292
692.982308	0.167240
693.184118	0.167446
693.385909	0.167836
693.587683	0.167967
693.789438	0.167858
693.991175	0.167860
694.192894	0.167966
694.394595	0.168126
694.596277	0.168345
694.797941	0.168401
694.999587	0.168305
695.201215	0.168004
695.402824	0.168160
695.604416	0.168483
695.805989	0.168695
696.007543	0.168823
696.209080	0.168744
696.410598	0.168802
696.612099	0.168840
696.813580	0.168983
697.015044	0.169183
697.216490	0.169174
697.417917	0.169156
697.619326	0.169091
697.820717	0.169043
698.022089	0.169209
698.223444	0.169286
698.424780	0.169236
698.626098	0.169378
698.827397	0.169478
699.028679	0.169237
699.229942	0.169135
699.431187	0.169044
699.632414	0.169095
699.833622	0.169083
700.034813	0.169173
700.235985	0.169149
700.437139	0.169119
700.638274	0.169227
700.839392	0.169537
701.040491	0.169722
701.241572	0.170056
701.442635	0.169948
701.643679	0.170201
701.844706	0.170260
702.045714	0.170354
702.246704	0.170469
702.447675	0.170470
702.648629	0.170568
702.849564	0.170526
703.050481	0.170585
703.251380	0.170894
703.452260	0.171065
703.653122	0.171136
703.853966	0.171394
704.054792	0.171374
704.255600	0.171316
704.456389	0.171384
704.657160	0.171476
704.857913	0.171369
705.058648	0.171318
705.259365	0.171135
705.460063	0.170873
705.660743	0.170857
705.861405	0.170834
706.062048	0.170948
706.262674	0.170693
706.463281	0.170534
706.663870	0.170476
706.864441	0.170381
707.064993	0.170360
707.265527	0.170673
707.466043	0.170677
707.666541	0.170810
707.867021	0.171005
708.067482	0.171218
708.267925	0.171522
708.468350	0.171745
708.668757	0.171961
708.869145	0.172042
709.069516	0.172035
709.269868	0.172258
709.470201	0.172271
709.670517	0.172136
709.870814	0.172252
710.071093	0.172290
710.271354	0.172133
710.471597	0.172123
710.671821	0.172234
710.872028	0.172090
711.072216	0.172024
711.272385	0.171903
711.472537	0.171781
711.672670	0.171665
711.872785	0.171634
712.072882	0.171852
712.272961	0.171405
712.473021	0.171371
712.673063	0.171520
712.873087	0.171353
713.073093	0.171303
713.273081	0.171336
713.473050	0.171271
713.673001	0.171045
713.872934	0.170959
714.072849	0.171430
714.272745	0.171392
714.472623	0.171489
714.672483	0.171568
714.872325	0.171701
715.072148	0.171835
715.271954	0.171910
715.471741	0.172082
715.671509	0.171871
715.871260	0.171763
716.070992	0.171682
716.270707	0.171342
716.470403	0.171377
716.670080	0.171175
716.869740	0.171135
717.069381	0.170873
717.269004	0.170861
717.468609	0.171023
717.668195	0.170825
717.867764	0.170646
718.067314	0.170525
718.266846	0.170512
718.466360	0.170537
718.665855	0.170335
718.865332	0.170619
719.064791	0.170425
719.264232	0.170362
719.463655	0.170375
719.663059	0.170531
719.862445	0.170676
720.061813	0.170426
720.261163	0.170326
720.460494	0.170432
720.659807	0.170261
720.859102	0.170471
721.058379	0.170437
721.257638	0.170672
721.456878	0.170494
721.656100	0.170345
721.855304	0.170326
722.054490	0.170441
722.253657	0.170284
722.452806	0.170154
722.651937	0.169967
722.851050	0.169785
723.050145	0.169527
723.249221	0.169558
723.448279	0.169568
723.647319	0.169421
723.846340	0.169112
724.045344	0.169084
724.244329	0.169106
724.443296	0.169009
724.642245	0.169039
724.841175	0.169028
725.040088	0.168844
725.238982	0.168710
725.437857	0.168638
725.636715	0.168656
725.835554	0.168463
726.034376	0.168044
726.233179	0.167990
726.431963	0.167696
726.630730	0.167667
726.829478	0.167661
727.028208	0.167738
727.226920	0.167758
727.425614	0.167590
727.624289	0.167475
727.822946	0.167562
728.021585	0.167320
728.220206	0.167212
728.418808	0.166858
728.617392	0.166717
728.815958	0.166491
729.014506	0.166258
729.213036	0.166249
729.411547	0.166198
729.610040	0.166122
729.808515	0.165982
730.006972	0.165994
730.205410	0.165934
730.403831	0.165694
730.602233	0.165634
730.800616	0.165748
730.998982	0.165730
731.197329	0.165690
731.395658	0.165712
731.593969	0.165874
731.792262	0.165818
731.990536	0.165835
732.188793	0.165922
732.387031	0.165931
732.585250	0.165797
732.783452	0.165722
732.981635	0.165678
733.179800	0.165618
733.377947	0.165468
733.576076	0.165470
733.774186	0.165367
733.972278	0.165217
734.170352	0.164929
734.368408	0.164622
734.566446	0.164595
734.764465	0.164486
734.962466	0.164431
735.160449	0.164352
735.358413	0.164069
735.556360	0.163856
735.754288	0.163773
735.952198	0.163799
736.150090	0.163891
736.347963	0.163839
736.545818	0.163742
736.743655	0.163573
736.941474	0.163522
737.139275	0.163615
737.337057	0.163648
737.534821	0.163717
737.732567	0.163874
737.930295	0.163887
738.128005	0.163689
738.325696	0.163407
738.523369	0.163269
738.721024	0.163081
738.918660	0.162815
739.116279	0.162779
739.313879	0.162529
739.511461	0.162227
739.709024	0.161865
739.906570	0.161634
740.104097	0.161650
740.301606	0.161393
740.499097	0.161433
740.696569	0.161504
740.894024	0.161645
741.091460	0.161525
741.288878	0.161523
741.486277	0.161690
741.683659	0.161894
741.881022	0.161660
742.078367	0.161912
742.275694	0.161616
742.473002	0.161400
742.670293	0.161079
742.867565	0.161132
743.064819	0.161028
743.262054	0.160897
743.459272	0.160568
743.656471	0.160689
743.853652	0.160551
744.050815	0.160520
744.247959	0.160664
744.445085	0.160524
744.642194	0.160287
744.839283	0.160188
745.036355	0.160230
745.233408	0.160268
745.430444	0.160131
745.627461	0.159981
745.824459	0.159776
746.021440	0.159844
746.218402	0.159830
746.415346	0.159902
746.612272	0.159866
746.809180	0.159735
747.006069	0.159683
747.202940	0.159717
747.399793	0.159311
747.596628	0.159250
747.793444	0.158889
747.990243	0.158721
748.187023	0.158618
748.383784	0.158343
748.580528	0.158154
748.777253	0.157840
748.973960	0.157781
749.170649	0.157926
749.367320	0.157846
749.563973	0.157582
749.760607	0.157498
749.957223	0.157332
750.153821	0.157306
750.350400	0.157299
750.546962	0.157299
750.743505	0.157113
750.940030	0.156892
751.136536	0.156791
751.333025	0.156828
751.529495	0.156902
751.725947	0.156617
751.922381	0.156302
752.118796	0.155811
752.315194	0.155690
752.511573	0.155509
752.707934	0.155463
752.904276	0.155513
753.100601	0.155384
753.296907	0.154960
753.493195	0.155054
753.689465	0.155097
753.885716	0.155386
754.081949	0.155391
754.278164	0.155335
754.474361	0.155222
754.670540	0.155007
754.866700	0.154955
755.062843	0.154990
755.258967	0.154982
755.455072	0.154897
755.651160	0.154640
755.847229	0.154667
756.043280	0.154758
756.239313	0.154782
756.435328	0.155001
756.631324	0.154917
756.827302	0.154670
757.023262	0.154471
757.219204	0.154363
757.415127	0.154335
757.611033	0.154287
757.806920	0.154019
758.002788	0.153851
758.198639	0.153496
758.394471	0.153378
758.590286	0.153389
758.786081	0.153248
758.981859	0.153172
759.177619	0.153127
759.373360	0.152710
759.569083	0.152603
759.764788	0.152652
759.960474	0.152436
760.156143	0.152232
760.351793	0.152204
760.547425	0.151948
760.743038	0.151875
760.938634	0.151573
761.134211	0.151703
761.329770	0.151734
761.525311	0.151621
761.720833	0.151845
761.916338	0.151881
762.111824	0.151774
762.307292	0.151988
762.502741	0.152018
762.698173	0.152116
762.893586	0.151954
763.088981	0.151976
763.284358	0.151842
763.479716	0.151587
763.675057	0.151557
763.870379	0.151583
764.065683	0.151464
764.260968	0.151497
764.456236	0.151501
764.651485	0.151450
764.846716	0.151280
765.041929	0.151287
765.237123	0.151347
765.432299	0.151310
765.627457	0.151139
765.822597	0.150962
766.017719	0.150592
766.212822	0.150557
766.407907	0.150372
766.602974	0.150303
766.798023	0.150248
766.993054	0.150193
767.188066	0.150230
767.383060	0.150370
767.578036	0.150516
767.772993	0.150698
767.967933	0.150424
768.162854	0.150554
768.357757	0.150452
768.552642	0.150456
768.747508	0.150263
768.942356	0.150063
769.137186	0.149855
769.331998	0.149938
769.526792	0.149655
769.721567	0.149881
769.916324	0.149610
770.111063	0.149553
770.305784	0.149409
770.500486	0.149452
770.695171	0.149360
770.889837	0.149272
771.084484	0.149187
771.279114	0.149224
771.473725	0.149097
771.668318	0.149244
771.862893	0.149312
772.057450	0.149268
772.251988	0.149181
772.446509	0.149306
772.641011	0.149472
772.835494	0.149241
773.029960	0.149480
773.224407	0.149452
773.418836	0.149581
773.613247	0.149539
773.807640	0.149524
774.002014	0.149687
774.196370	0.149558
774.390708	0.149453
774.585028	0.149354
774.779330	0.149215
774.973613	0.148893
775.167878	0.148647
775.362125	0.148618
775.556354	0.148758
775.750564	0.148535
775.944756	0.148624
776.138930	0.148640
776.333086	0.148650
776.527223	0.148760
776.721343	0.148980
776.915444	0.149126
777.109526	0.149176
777.303591	0.149047
777.497637	0.149353
777.691666	0.149496
777.885676	0.149504
778.079667	0.149522
778.273641	0.149427
778.467596	0.149456
778.661533	0.149447
778.855452	0.149387
779.049352	0.149552
779.243235	0.149387
779.437099	0.149140
779.630945	0.149397
779.824773	0.149802
780.018582	0.149843
780.212373	0.149907
780.406146	0.150161
780.599901	0.150118
780.793638	0.150129
780.987356	0.149975
781.181056	0.150226
781.374738	0.150006
781.568402	0.149890
781.762047	0.149853
781.955674	0.149866
782.149283	0.149509
782.342874	0.149816
782.536447	0.149787
782.730001	0.150221
782.923537	0.150199
783.117055	0.150320
783.310555	0.150141
783.504036	0.150147
783.697499	0.150282
783.890944	0.150370
784.084371	0.150265
784.277780	0.150426
784.471170	0.150164
784.664542	0.150195
784.857896	0.150108
785.051231	0.150003
785.244549	0.150168
785.437848	0.150113
785.631129	0.150093
785.824392	0.150023
786.017636	0.149805
786.210863	0.149737
786.404071	0.149651
786.597260	0.149521
786.790432	0.149682
786.983585	0.149740
787.176721	0.149695
787.369838	0.149943
787.562936	0.149928
787.756017	0.149932
787.949079	0.150036
788.142123	0.150120
788.335149	0.150427
788.528156	0.150566
788.721146	0.150412
788.914117	0.150800
789.107070	0.150839
789.300005	0.151034
789.492921	0.151432
789.685819	0.151745
789.878699	0.151743
790.071561	0.151903
790.264405	0.151859
790.457230	0.152039
790.650037	0.151794
790.842826	0.151860
791.035597	0.151795
791.228349	0.151507
791.421084	0.151263
791.613800	0.151288
791.806497	0.151230
791.999177	0.151427
792.191838	0.151348
792.384481	0.151245
792.577106	0.151279
792.769713	0.151348
792.962301	0.151469
793.154871	0.151607
793.347423	0.151792
793.539957	0.151769
793.732473	0.151941
793.924970	0.152217
794.117449	0.152586
794.309910	0.152497
794.502353	0.152643
794.694777	0.153023
794.887183	0.153211
795.079571	0.153383
795.271941	0.153633
795.464293	0.153729
795.656626	0.153587
795.848941	0.153633
796.041238	0.154078
796.233516	0.154312
796.425777	0.154158
796.618019	0.154385
796.810243	0.154565
797.002449	0.154791
797.194636	0.154890
797.386805	0.155278
797.578956	0.155684
797.771089	0.155613
797.963204	0.155598
798.155300	0.155848
798.347378	0.155868
798.539438	0.155893
798.731480	0.155783
798.923503	0.156267
799.115509	0.156173
799.307496	0.156147
799.499465	0.156559
799.691415	0.156917
799.883348	0.157086
800.075262	0.157446
800.267158	0.157741
800.459035	0.157953
800.650895	0.157625
800.842736	0.157925
801.034559	0.158158
801.226364	0.158132
801.418150	0.158176
801.609919	0.158318
801.801669	0.158240
801.993401	0.158235
802.185114	0.158302
802.376810	0.158628
802.568487	0.158739
802.760146	0.158418
802.951787	0.158443
803.143409	0.158572
803.335014	0.158447
803.526600	0.158531
803.718168	0.158681
803.909717	0.158864
804.101249	0.158966
804.292762	0.159197
804.484257	0.159360
804.675734	0.159475
804.867192	0.159680
805.058632	0.159943
805.250054	0.160273
805.441458	0.160621
805.632844	0.160723
805.824211	0.160770
806.015561	0.161073
806.206891	0.161516
806.398204	0.161987
806.589499	0.161972
806.780775	0.162153
806.972033	0.162321
807.163273	0.162346
807.354495	0.162586
807.545698	0.162777
807.736883	0.162950
807.928050	0.163316
808.119199	0.163276
808.310329	0.163603
808.501441	0.164146
808.692535	0.164305
808.883611	0.164379
809.074669	0.164658
809.265708	0.165097
809.456729	0.164804
809.647732	0.164798
809.838717	0.165145
810.029683	0.165087
810.220632	0.165050
810.411562	0.165218
810.602474	0.165472
810.793367	0.165422
810.984242	0.165376
811.175100	0.165900
811.365938	0.166089
811.556759	0.166076
811.747562	0.166364
811.938346	0.166562
812.129112	0.166812
812.319860	0.166740
812.510589	0.167069
812.701300	0.167355
812.891994	0.167565
813.082668	0.167892
813.273325	0.168212
813.463964	0.168648
813.654584	0.168886
813.845186	0.168924
814.035769	0.169433
814.226335	0.169889
814.416882	0.169995
814.607411	0.170191
814.797922	0.170309
814.988415	0.170360
815.178889	0.170405
815.369345	0.170576
815.559783	0.170859
815.750203	0.170944
815.940605	0.170730
816.130988	0.170853
816.321353	0.171075
816.511700	0.171277
816.702028	0.171529
816.892339	0.171896
817.082631	0.171957
817.272905	0.172079
817.463161	0.172417
817.653398	0.172825
817.843617	0.173068
818.033819	0.173208
818.224001	0.173320
818.414166	0.173458
818.604312	0.173561
818.794440	0.174061
818.984550	0.174185
819.174642	0.174442
819.364716	0.174832
819.554771	0.174994
819.744808	0.175278
819.934827	0.175811
820.124827	0.176074
820.314810	0.176290
820.504774	0.176205
820.694720	0.176508
820.884647	0.176566
821.074557	0.176758
821.264448	0.177321
821.454321	0.177556
821.644176	0.177746
821.834012	0.178085
822.023831	0.178373
822.213631	0.178850
822.403413	0.179311
822.593176	0.179582
822.782922	0.179695
822.972649	0.179765
823.162358	0.179921
823.352049	0.180052
823.541721	0.180263
823.731376	0.180457
823.921012	0.180582
824.110629	0.180721
824.300229	0.181075
824.489811	0.181390
824.679374	0.181804
824.868919	0.182095
825.058445	0.182348
825.247954	0.182535
825.437444	0.182707
825.626916	0.182858
825.816370	0.182962
826.005806	0.182960
826.195223	0.182892
826.384622	0.182989
826.574003	0.183312
826.763366	0.183510
826.952711	0.183468
827.142037	0.183522
827.331345	0.183867
827.520635	0.184036
827.709906	0.184336
827.899160	0.184638
828.088395	0.184776
828.277612	0.184699
828.466810	0.184851
828.655991	0.185350
828.845153	0.186034
829.034297	0.186405
829.223423	0.186810
829.412531	0.187174
829.601620	0.187735
829.790691	0.188156
829.979744	0.188590
830.168779	0.188768
830.357795	0.189291
830.546793	0.189349
830.735773	0.189570
830.924735	0.189782
831.113679	0.190045
831.302604	0.190466
831.491511	0.190888
831.680400	0.191460
831.869271	0.192016
832.058123	0.192472
832.246957	0.192744
832.435773	0.192966
832.624571	0.193557
832.813351	0.193641
833.002112	0.193671
833.190855	0.193561
833.379580	0.193809
833.568287	0.193934
833.756975	0.193741
833.945645	0.193775
834.134297	0.194263
834.322931	0.194473
834.511547	0.194975
834.700144	0.195445
834.888723	0.195628
835.077284	0.195624
835.265826	0.195892
835.454351	0.196474
835.642857	0.197135
835.831345	0.197308
836.019815	0.197596
836.208266	0.197659
836.396699	0.197768
836.585114	0.198266
836.773511	0.198732
836.961890	0.199017
837.150250	0.199152
837.338592	0.199329
837.526916	0.199592
837.715222	0.199678
837.903510	0.200198
838.091779	0.200511
838.280030	0.201077
838.468263	0.201163
838.656477	0.201619
838.844674	0.201893
839.032852	0.202262
839.221012	0.202446
839.409153	0.202887
839.597277	0.203235
839.785382	0.203522
839.973469	0.203959
840.161538	0.204500
840.349589	0.204845
840.537621	0.205100
840.725635	0.205576
840.913631	0.206087
841.101609	0.206266
841.289568	0.206606
841.477509	0.206869
841.665432	0.206914
841.853337	0.207173
842.041224	0.207366
842.229092	0.208084
842.416942	0.208283
842.604774	0.208577
842.792588	0.209026
842.980383	0.209383
843.168160	0.209967
843.355919	0.210129
843.543660	0.210398
843.731382	0.210696
843.919087	0.210637
844.106773	0.211297
844.294441	0.211516
844.482090	0.211798
844.669722	0.212263
844.857335	0.212169
845.044930	0.212737
845.232507	0.213056
845.420065	0.213536
845.607605	0.213962
845.795127	0.213732
845.982631	0.214230
846.170117	0.214502
846.357584	0.214670
846.545033	0.215009
846.732464	0.215045
846.919877	0.215005
847.107272	0.215303
847.294648	0.215579
847.482006	0.215765
847.669346	0.215972
847.856667	0.216071
848.043971	0.216380
848.231256	0.216795
848.418523	0.217201
848.605771	0.217975
848.793002	0.217965
848.980214	0.218272
849.167408	0.219012
849.354584	0.219137
849.541742	0.219661
849.728881	0.219881
849.916002	0.220295
850.103105	0.220828
850.290190	0.221161
850.477256	0.221693
850.664304	0.222335
850.851334	0.222897
851.038346	0.223340
851.225340	0.223622
851.412315	0.223923
851.599272	0.224541
851.786211	0.224521
851.973132	0.224906
852.160034	0.225123
852.346918	0.224980
852.533784	0.224692
852.720632	0.225070
852.907462	0.225184
853.094273	0.225276
853.281066	0.225222
853.467841	0.225600
853.654598	0.225514
853.841336	0.225839
854.028056	0.226222
854.214758	0.226449
854.401442	0.226442
854.588107	0.226979
854.774755	0.227535
854.961384	0.228019
855.147995	0.228266
855.334587	0.228752
855.521162	0.229123
855.707718	0.229202
855.894256	0.229774
856.080775	0.230060
856.267277	0.230380
856.453760	0.230677
856.640225	0.230565
856.826672	0.231009
857.013101	0.231295
857.199511	0.231300
857.385903	0.231782
857.572277	0.232041
857.758633	0.232376
857.944970	0.232828
858.131290	0.232894
858.317591	0.233246
858.503873	0.233414
858.690138	0.233587
858.876384	0.233518
859.062612	0.233705
859.248822	0.233609
859.435014	0.233912
859.621188	0.233849
859.807343	0.233979
859.993480	0.234253
860.179599	0.234338
860.365699	0.234841
860.551781	0.235720
860.737846	0.235950
860.923891	0.236421
861.109919	0.236748
861.295929	0.236973
861.481920	0.237226
861.667893	0.237724
861.853848	0.237895
862.039784	0.237815
862.225702	0.237832
862.411603	0.238462
862.597484	0.238632
862.783348	0.238694
862.969193	0.239005
863.155021	0.239338
863.340830	0.239190
863.526620	0.239804
863.712393	0.240177
863.898147	0.240415
864.083883	0.240456
864.269601	0.240615
864.455301	0.240849
864.640982	0.241276
864.826645	0.241929
865.012290	0.242542
865.197917	0.242425
865.383526	0.242547
865.569116	0.243009
865.754688	0.243513
865.940242	0.244073
866.125777	0.244855
866.311295	0.245181
866.496794	0.245328
866.682275	0.245460
866.867737	0.245850
867.053182	0.246144
867.238608	0.246044
867.424016	0.245870
867.609406	0.246006
867.794778	0.246112
867.980131	0.246144
868.165466	0.246269
868.350783	0.246461
868.536082	0.246562
868.721362	0.246435
868.906625	0.246797
869.091869	0.246907
869.277094	0.246774
869.462302	0.246914
869.647491	0.246960
869.832662	0.247350
870.017815	0.247477
870.202950	0.247832
870.388066	0.248543
870.573165	0.248567
870.758245	0.248991
870.943306	0.249332
871.128350	0.249395
871.313375	0.249700
871.498382	0.249365
871.683371	0.249541
871.868342	0.249815
872.053294	0.249916
872.238229	0.250122
872.423144	0.250191
872.608042	0.250669
872.792922	0.250732
872.977783	0.250750
873.162626	0.250995
873.347451	0.250798
873.532258	0.250906
873.717046	0.251026
873.901816	0.251347
874.086568	0.251464
874.271302	0.251640
874.456017	0.252008
874.640715	0.252454
874.825394	0.252631
875.010055	0.253204
875.194697	0.253534
875.379322	0.253401
875.563928	0.253887
875.748516	0.254090
875.933085	0.254314
876.117637	0.254099
876.302170	0.254046
876.486685	0.254366
876.671182	0.254487
876.855661	0.254432
877.040121	0.254700
877.224563	0.254684
877.408987	0.254665
877.593393	0.254526
877.777780	0.254839
877.962150	0.255091
878.146501	0.255335
878.330833	0.255318
878.515148	0.255485
878.699444	0.255809
878.883722	0.255595
879.067982	0.256134
879.252224	0.256298
879.436447	0.256422
879.620653	0.256477
879.804840	0.256211
879.989008	0.256395
880.173159	0.256277
880.357291	0.255997
880.541405	0.256290
880.725501	0.256244
880.909579	0.256449
881.093638	0.256665
881.277680	0.257072
881.461703	0.257574
881.645707	0.257813
881.829694	0.258204
882.013662	0.258627
882.197612	0.258582
882.381544	0.258929
882.565458	0.258774
882.749353	0.258699
882.933230	0.258507
883.117089	0.258577
883.300930	0.258826
883.484753	0.259010
883.668557	0.259135
883.852343	0.259266
884.036111	0.259175
884.219861	0.259578
884.403592	0.259968
884.587305	0.259964
884.771000	0.259933
884.954677	0.260242
885.138335	0.259986
885.321976	0.260124
885.505598	0.260826
885.689201	0.260800
885.872787	0.260798
886.056354	0.260556
886.239904	0.260665
886.423434	0.260581
886.606947	0.260213
886.790442	0.260726
886.973918	0.261060
887.157376	0.260930
887.340816	0.260892
887.524237	0.260808
887.707641	0.261291
887.891026	0.261562
888.074393	0.261654
888.257741	0.261710
888.441072	0.261639
888.624384	0.261476
888.807678	0.260940
888.990954	0.261221
889.174211	0.261555
889.357451	0.261201
889.540672	0.260938
889.723875	0.260944
889.907059	0.260970
890.090226	0.260562
890.273374	0.260498
890.456504	0.260720
890.639616	0.260595
890.822709	0.260037
891.005785	0.260047
891.188842	0.260151
891.371881	0.259924
891.554901	0.259793
891.737904	0.259988
891.920888	0.259665
892.103854	0.259838
892.286802	0.259662
892.469731	0.259852
892.652643	0.259625
892.835536	0.259356
893.018410	0.259344
893.201267	0.259530
893.384106	0.259055
893.566926	0.259355
893.749728	0.259349
893.932511	0.259574
894.115277	0.259449
894.298024	0.259455
894.480753	0.259596
894.663464	0.259633
894.846157	0.259393
895.028831	0.259706
895.211487	0.259622
895.394125	0.259343
895.576745	0.259386
895.759346	0.259186
895.941930	0.259316
896.124495	0.259198
896.307041	0.259311
896.489570	0.259225
896.672080	0.259006
896.854573	0.258746
897.037046	0.258937
897.219502	0.258405
897.401940	0.258722
897.584359	0.258518
897.766760	0.258233
897.949143	0.258100
898.131507	0.257972
898.313854	0.258041
898.496182	0.258020
898.678492	0.257435
898.860783	0.257283
899.043057	0.256848
899.225312	0.256168
899.407549	0.255727
899.589768	0.255749
899.771968	0.255754
899.954151	0.255606
900.136315	0.255640
900.318461	0.255624
900.500588	0.255768
900.682698	0.255876
900.864789	0.256668
901.046862	0.256711
901.228917	0.256087
901.410953	0.255991
901.592971	0.255518
901.774972	0.254935
901.956953	0.254978
902.138917	0.254583
902.320862	0.254325
902.502790	0.254052
902.684699	0.254018
902.866589	0.254153
903.048462	0.253508
903.230316	0.253637
903.412152	0.253633
903.593970	0.253043
903.775770	0.253006
903.957551	0.252791
904.139314	0.252356
904.321059	0.251873
904.502786	0.251556
904.684494	0.251168
904.866185	0.251012
905.047857	0.250970
905.229510	0.250660
905.411146	0.249903
905.592763	0.249482
905.774363	0.249537
905.955943	0.249565
906.137506	0.249339
906.319051	0.249407
906.500577	0.248755
906.682085	0.248158
906.863575	0.248326
907.045046	0.248311
907.226500	0.248020
907.407935	0.247310
907.589352	0.246989
907.770750	0.246424
907.952131	0.246411
908.133493	0.245817
908.314837	0.245363
908.496163	0.244802
908.677470	0.244091
908.858760	0.243603
909.040031	0.243198
909.221284	0.242703
909.402518	0.242113
909.583735	0.241933
909.764933	0.242074
909.946113	0.242210
910.127275	0.241804
910.308418	0.242108
910.489544	0.241856
910.670651	0.241691
910.851740	0.241257
911.032810	0.241359
911.213863	0.240484
911.394897	0.240076
911.575913	0.239408
911.756911	0.239265
911.937890	0.238946
912.118851	0.238965
912.299794	0.238577
912.480719	0.238394
912.661626	0.237963
912.842514	0.237685
913.023384	0.237278
913.204236	0.236967
913.385070	0.236496
913.565886	0.235619
913.746683	0.234976
913.927462	0.234518
914.108223	0.234235
914.288965	0.234119
914.469690	0.233667
914.650396	0.233320
914.831084	0.232731
915.011754	0.232446
915.192405	0.232486
915.373038	0.231864
915.553653	0.231388
915.734250	0.231132
915.914829	0.230715
916.095389	0.230335
916.275931	0.229829
916.456455	0.229461
916.636961	0.228543
916.817448	0.227681
916.997917	0.227728
917.178368	0.227337
917.358801	0.226808
917.539216	0.226121
917.719612	0.225645
917.899990	0.225180
918.080350	0.224950
918.260692	0.225287
918.441015	0.224733
918.621320	0.223976
918.801607	0.223512
918.981876	0.222865
919.162127	0.222498
919.342359	0.221898
919.522573	0.221573
919.702769	0.220535
919.882947	0.219320
920.063106	0.218779
920.243247	0.218449
920.423370	0.217502
920.603475	0.217184
920.783562	0.216661
920.963630	0.216131
921.143680	0.215259
921.323712	0.215422
921.503725	0.214616
921.683721	0.214227
921.863698	0.213414
922.043657	0.213369
922.223598	0.212539
922.403520	0.211995
922.583424	0.211749
922.763311	0.210955
922.943178	0.209567
923.123028	0.209430
923.302859	0.208727
923.482673	0.208248
923.662467	0.207581
923.842244	0.207337
924.022003	0.207021
924.201743	0.206380
924.381465	0.206079
924.561169	0.206357
924.740854	0.205631
924.920522	0.205330
925.100171	0.204608
925.279802	0.204049
925.459414	0.203247
925.639009	0.202043
925.818585	0.200937
925.998143	0.200597
926.177683	0.199943
926.357205	0.199375
926.536708	0.197801
926.716193	0.197744
926.895660	0.197013
927.075109	0.196451
927.254539	0.195955
927.433951	0.195410
927.613345	0.195138
927.792721	0.194065
927.972079	0.193322
928.151418	0.194132
928.330739	0.193191
928.510042	0.192721
928.689327	0.191831
928.868593	0.191841
929.047841	0.191200
929.227071	0.190108
929.406283	0.189666
929.585476	0.189487
929.764652	0.188459
929.943809	0.187645
930.122948	0.186552
930.302068	0.186343
930.481171	0.184863
930.660255	0.184277
930.839321	0.184009
931.018369	0.183599
931.197398	0.182281
931.376409	0.181754
931.555402	0.181358
931.734377	0.181046
931.913334	0.180353
932.092272	0.179871
932.271192	0.180091
932.450094	0.179003
932.628978	0.177603
932.807844	0.177492
932.986691	0.176718
933.165520	0.175720
933.344331	0.175693
933.523123	0.174311
933.701898	0.173557
933.880654	0.172286
934.059392	0.172113
934.238111	0.172386
934.416813	0.171873
934.595496	0.170681
934.774161	0.170442
934.952808	0.169253
935.131437	0.168477
935.310047	0.167610
935.488639	0.167218
935.667213	0.165964
935.845769	0.164583
936.024306	0.164144
936.202825	0.164673
936.381326	0.163960
936.559809	0.163132
936.738274	0.163132
936.916720	0.163217
937.095148	0.162539
937.273558	0.161256
937.451950	0.161485
937.630323	0.160516
937.808678	0.159010
937.987015	0.157936
938.165334	0.157618
938.343635	0.156657
938.521917	0.155330
938.700181	0.154230
938.878427	0.154816
939.056655	0.154199
939.234864	0.153354
939.413055	0.152933
939.591228	0.152389
939.769383	0.151767
939.947519	0.150919
940.125638	0.150104
940.303738	0.149783
940.481820	0.148986
940.659883	0.147437
940.837929	0.146821
941.015956	0.145129
941.193965	0.144878
941.371955	0.143440
941.549928	0.143496
941.727882	0.142942
941.905818	0.141568
942.083736	0.140513
942.261636	0.139450
942.439517	0.139668
942.617380	0.139697
942.795225	0.137818
942.973052	0.136570
943.150860	0.135365
943.328651	0.134945
943.506423	0.134396
943.684176	0.133145
943.861912	0.133511
944.039629	0.131246
944.217328	0.130944
944.395009	0.130847
944.572672	0.130953
944.750317	0.130443
944.927943	0.130653
945.105551	0.129149
945.283141	0.129554
945.460712	0.127821
945.638265	0.128054
945.815801	0.126842
945.993317	0.127323
946.170816	0.126262
946.348297	0.125258
946.525759	0.123806
946.703203	0.124022
946.880629	0.123036
947.058036	0.123509
947.235425	0.123278
947.412797	0.122845
947.590149	0.120916
947.767484	0.120589
947.944800	0.120553
948.122099	0.118621
948.299379	0.119093
948.476640	0.119131
948.653884	0.119020
948.831109	0.118253
949.008316	0.117000
949.185505	0.116849
949.362676	0.116039
949.539828	0.114946
949.716962	0.115134
949.894078	0.112344
950.071176	0.109825
950.248256	0.107272
950.425317	0.105141
950.602360	0.106067
950.779385	0.104960
950.956391	0.105880
951.133380	0.105375
951.310350	0.105159
951.487302	0.105389
951.664235	0.105074
951.841151	0.104942
952.018048	0.105337
952.194927	0.103963
952.371788	0.104558
952.548631	0.103082
952.725455	0.103107
952.902261	0.101872
953.079049	0.102159
953.255819	0.104306
953.432570	0.104004
953.609303	0.102931
953.786018	0.101153
953.962715	0.099243
954.139394	0.098096
954.316054	0.097216
954.492696	0.097964
954.669320	0.097977
954.845926	0.096460
955.022513	0.095562
955.199083	0.094583
955.375634	0.095814
955.552166	0.096291
955.728681	0.096623
955.905177	0.097673
956.081655	0.097164
956.258115	0.097225
956.434557	0.095985
956.610980	0.095360
956.787385	0.096699
956.963772	0.095324
957.140141	0.094131
957.316492	0.093412
957.492824	0.092789
957.669138	0.091933
957.845434	0.089511
958.021712	0.090457
958.197971	0.091084
958.374212	0.090516
958.550435	0.092286
958.726640	0.092533
958.902826	0.092329
959.078995	0.090604
959.255145	0.090045
959.431277	0.090235
959.607390	0.089220
959.783486	0.088238
959.959563	0.088675
960.135622	0.085977
960.311662	0.084746
960.487685	0.084382
960.663689	0.085083
960.839675	0.086658
961.015643	0.088532
961.191593	0.088967
961.367524	0.088588
961.543437	0.088553
961.719332	0.090525
961.895209	0.090911
962.071067	0.090689
962.246907	0.090212
962.422730	0.088634
962.598533	0.088108
962.774319	0.086278
962.950086	0.087752
963.125835	0.085850
963.301566	0.084169
963.477279	0.083557
963.652973	0.083635
963.828650	0.084114
964.004308	0.085312
964.179947	0.085458
964.355569	0.083737
964.531172	0.081133
964.706757	0.079823
964.882324	0.080189
965.057873	0.080376
965.233403	0.079848
965.408916	0.079519
965.584410	0.077112
965.759885	0.075855
965.935343	0.079490
966.110782	0.079820
966.286203	0.081387
966.461606	0.080686
966.636991	0.081231
966.812357	0.079846
966.987705	0.078492
967.163035	0.081836
967.338347	0.081873
967.513641	0.080613
967.688916	0.081132
967.864173	0.079636
968.039412	0.079733
968.214632	0.080351
968.389835	0.082271
968.565019	0.083805
968.740185	0.081729
968.915333	0.081684
969.090462	0.084654
969.265573	0.084847
969.440667	0.087141
969.615741	0.089880
969.790798	0.088660
969.965836	0.090336
970.140856	0.088497
970.315858	0.089983
970.490842	0.091437
970.665808	0.090769
970.840755	0.088829
971.015684	0.091415
971.190595	0.088670
971.365487	0.090437
971.540362	0.086254
971.715218	0.089499
971.890056	0.087740
972.064875	0.086282
972.239677	0.085294
972.414460	0.088527
972.589225	0.084677
972.763972	0.085688
972.938700	0.084095
973.113411	0.085017
973.288103	0.083673
973.462777	0.085274
973.637432	0.084395
973.812070	0.083819
973.986689	0.081702
974.161290	0.082303
974.335873	0.082490
974.510437	0.082839
974.684984	0.084550
974.859512	0.084855
975.034022	0.082787
975.208513	0.083002
975.382987	0.083041
975.557442	0.083515
975.731879	0.083561
975.906298	0.082634
976.080698	0.081821
976.255080	0.080526
976.429445	0.079363
976.603790	0.080018
976.778118	0.082258
976.952427	0.082444
977.126719	0.081273
977.300992	0.079955
977.475246	0.080292
977.649483	0.082580
977.823701	0.083104
977.997901	0.083533
978.172083	0.084005
978.346247	0.083568
978.520392	0.081338
978.694519	0.084013
978.868628	0.085528
979.042719	0.084684
979.216791	0.082643
979.390845	0.083484
979.564882	0.082529
979.738899	0.081608
979.912899	0.080888
980.086880	0.082564
980.260843	0.080600
980.434788	0.080668
980.608715	0.080541
980.782623	0.082027
980.956514	0.081494
981.130386	0.082385
981.304240	0.084611
981.478075	0.085393
981.651892	0.082704
981.825692	0.083115
981.999472	0.081906
982.173235	0.082800
982.346980	0.083305
982.520706	0.084724
982.694414	0.083719
982.868104	0.081415
983.041775	0.078096
983.215428	0.078761
983.389064	0.079454
983.562680	0.081375
983.736279	0.081605
983.909860	0.081479
984.083422	0.080720
984.256966	0.080954
984.430491	0.082251
984.603999	0.084387
984.777488	0.085280
984.950959	0.087546
985.124412	0.085614
985.297847	0.085349
985.471263	0.084359
985.644661	0.083499
985.818041	0.084699
985.991403	0.084652
986.164747	0.086367
986.338072	0.085411
986.511379	0.081572
986.684668	0.081596
986.857938	0.081787
987.031191	0.082231
987.204425	0.082399
987.377641	0.082133
987.550839	0.081160
987.724018	0.079759
987.897179	0.080781
988.070322	0.082859
988.243447	0.082617
988.416554	0.082397
988.589642	0.082146
988.762712	0.081918
988.935764	0.080967
989.108798	0.080288
989.281813	0.081280
989.454811	0.082391
989.627790	0.081169
989.800751	0.082504
989.973693	0.083206
990.146617	0.082325
990.319524	0.082678
990.492412	0.083152
990.665281	0.083559
990.838133	0.080843
991.010966	0.081000
991.183781	0.081549
991.356578	0.081112
991.529356	0.079802
991.702117	0.081750
991.874859	0.082131
992.047583	0.082623
992.220288	0.083077
992.392976	0.085039
992.565645	0.084420
992.738296	0.084169
992.910929	0.085177
993.083543	0.085825
993.256139	0.083880
993.428718	0.083409
993.601277	0.083092
993.773819	0.083201
993.946342	0.082556
994.118848	0.079344
994.291335	0.079056
994.463803	0.078439
994.636254	0.078081
994.808686	0.078909
994.981100	0.078593
995.153496	0.078570
995.325874	0.079805
995.498233	0.080561
995.670574	0.083789
995.842897	0.083552
996.015202	0.082484
996.187488	0.081351
996.359757	0.080753
996.532007	0.081909
996.704239	0.080690
996.876452	0.077613
997.048648	0.078153
997.220825	0.078136
997.392984	0.078205
997.565124	0.078871
997.737247	0.080973
997.909351	0.082668
998.081437	0.082070
998.253505	0.082536
998.425554	0.085452
998.597586	0.084366
998.769599	0.085570
998.941594	0.086752
999.113571	0.084646
999.285529	0.083251
999.457469	0.080244
999.629391	0.081074
999.801295	0.082442
999.973181	0.080408
1000.145048	0.078261
1000.316897	0.076122
1000.488728	0.075185
1000.660541	0.077106
1000.832335	0.077324
1001.004111	0.078438
1001.175869	0.077250
1001.347609	0.076508
1001.519331	0.076703
1001.691034	0.078158
1001.862719	0.078362
1002.034386	0.077839
1002.206035	0.079916
1002.377665	0.080119
1002.549277	0.081001
1002.720871	0.080774
1002.892447	0.081558
1003.064004	0.082819
1003.235544	0.083230
1003.407065	0.082323
1003.578568	0.083916
1003.750052	0.081916
1003.921519	0.081354
1004.092967	0.082144
1004.264397	0.082440
1004.435809	0.080785
1004.607202	0.080312
1004.778577	0.079769
1004.949934	0.079788
1005.121273	0.077220
1005.292594	0.076549
1005.463896	0.076846
1005.635180	0.075728
1005.806446	0.075820
1005.977694	0.077353
1006.148923	0.076690
1006.320135	0.076271
1006.491328	0.078591
1006.662503	0.079370
1006.833659	0.079109
1007.004798	0.079876
1007.175918	0.080521
1007.347020	0.080108
1007.518103	0.079728
1007.689169	0.080268
1007.860216	0.080836
1008.031245	0.079438
1008.202256	0.080258
1008.373248	0.080001
1008.544223	0.079704
1008.715179	0.077270
1008.886117	0.078429
1009.057036	0.078872
1009.227938	0.078381
1009.398821	0.077970
1009.569686	0.077001
1009.740533	0.077174
1009.911361	0.078756
1010.082172	0.077800
1010.252964	0.077862
1010.423738	0.077111
1010.594493	0.075877
1010.765231	0.076230
1010.935950	0.075684
1011.106651	0.077715
1011.277334	0.076256
1011.447998	0.074286
1011.618645	0.075185
1011.789273	0.077492
1011.959882	0.074634
1012.130474	0.074232
1012.301048	0.073429
1012.471603	0.073691
1012.642140	0.072064
1012.812658	0.071084
1012.983159	0.071144
1013.153641	0.070981
1013.324105	0.070524
1013.494551	0.074687
1013.664979	0.076758
1013.835388	0.077931
1014.005779	0.078807
1014.176152	0.078524
1014.346507	0.080410
1014.516843	0.080471
1014.687162	0.080769
1014.857462	0.080677
1015.027744	0.079368
1015.198007	0.078349
1015.368252	0.077259
1015.538480	0.078045
1015.708689	0.078893
1015.878879	0.079980
1016.049052	0.082337
1016.219206	0.080171
1016.389342	0.080432
1016.559460	0.081040
1016.729559	0.081469
1016.899641	0.084101
1017.069704	0.081943
1017.239749	0.082494
1017.409775	0.081689
1017.579784	0.081920
1017.749774	0.084468
1017.919746	0.085482
1018.089700	0.084636
1018.259635	0.083325
1018.429553	0.081557
1018.599452	0.082425
1018.769333	0.081108
1018.939195	0.081880
1019.109040	0.080410
1019.278866	0.079414
1019.448674	0.077430
1019.618464	0.076752
1019.788235	0.077562
1019.957989	0.076262
1020.127724	0.076406
1020.297441	0.078315
1020.467139	0.078127
1020.636820	0.078311
1020.806482	0.078746
1020.976126	0.078751
1021.145752	0.080662
1021.315359	0.078986
1021.484948	0.080717
1021.654519	0.081179
1021.824072	0.079656
1021.993607	0.080153
1022.163123	0.080917
1022.332621	0.081063
1022.502101	0.083060
1022.671563	0.081798
1022.841007	0.081959
1023.010432	0.080460
1023.179839	0.079679
1023.349228	0.079770
1023.518598	0.079178
1023.687951	0.078204
1023.857285	0.078066
1024.026601	0.076450
1024.195899	0.075745
1024.365178	0.076851
1024.534439	0.077289
1024.703682	0.078140
1024.872907	0.078035
1025.042114	0.078433
1025.211302	0.077703
1025.380472	0.075918
1025.549624	0.075009
1025.718758	0.075592
1025.887873	0.074998
1026.056970	0.074924
1026.226049	0.074649
1026.395110	0.075386
1026.564153	0.074561
1026.733177	0.075618
1026.902183	0.075755
1027.071171	0.075830
1027.240141	0.074817
1027.409092	0.076158
1027.578026	0.074922
1027.746940	0.075019
1027.915837	0.073750
1028.084716	0.072690
1028.253576	0.073145
1028.422418	0.075432
1028.591242	0.076928
1028.760048	0.077307
1028.928835	0.076503
1029.097604	0.079161
1029.266355	0.080353
1029.435088	0.079752
1029.603803	0.080361
1029.772499	0.079643
1029.941177	0.079162
1030.109837	0.076666
1030.278478	0.077401
1030.447102	0.077513
1030.615707	0.075906
1030.784294	0.074989
1030.952863	0.076739
1031.121413	0.077151
1031.289945	0.078281
1031.458460	0.078564
1031.626955	0.079987
1031.795433	0.078885
1031.963892	0.078864
1032.132334	0.080886
1032.300756	0.079417
1032.469161	0.078758
1032.637548	0.076341
1032.805916	0.074737
1032.974266	0.073392
1033.142598	0.073438
1033.310911	0.075031
1033.479207	0.074997
1033.647484	0.074419
1033.815743	0.074515
1033.983983	0.075209
1034.152206	0.077657
1034.320410	0.078170
1034.488596	0.078182
1034.656764	0.077958
1034.824914	0.077821
1034.993045	0.078780
1035.161158	0.078540
1035.329253	0.078962
1035.497330	0.078688
1035.665388	0.079068
1035.833428	0.077710
1036.001450	0.077964
1036.169454	0.077224
1036.337440	0.078424
1036.505407	0.077519
1036.673356	0.076548
1036.841287	0.077631
1037.009200	0.076013
1037.177094	0.076379
1037.344970	0.077781
1037.512828	0.077837
1037.680668	0.077856
1037.848489	0.074600
1038.016293	0.074772
1038.184078	0.074395
1038.351845	0.073357
1038.519593	0.073314
1038.687324	0.071643
1038.855036	0.070650
1039.022730	0.070063
1039.190406	0.073462
1039.358063	0.073878
1039.525702	0.074605
1039.693323	0.075070
1039.860926	0.076132
1040.028511	0.076541
1040.196077	0.078224
1040.363625	0.079664
1040.531155	0.080140
1040.698667	0.078565
1040.866161	0.078314
1041.033636	0.078097
1041.201093	0.077073
1041.368532	0.076096
1041.535952	0.077255
1041.703355	0.075036
1041.870739	0.073116
1042.038105	0.073333
1042.205452	0.072509
1042.372782	0.073726
1042.540093	0.074767
1042.707386	0.075485
1042.874661	0.073938
1043.041918	0.075686
1043.209156	0.076487
1043.376376	0.077129
1043.543578	0.077750
1043.710762	0.077419
1043.877927	0.077108
1044.045074	0.075754
1044.212203	0.076821
1044.379314	0.078713
1044.546407	0.075337
1044.713481	0.075324
1044.880537	0.077037
1045.047575	0.076772
1045.214595	0.075461
1045.381596	0.076057
1045.548579	0.074440
1045.715544	0.073507
1045.882491	0.074897
1046.049420	0.075110
1046.216330	0.076586
1046.383222	0.077296
1046.550096	0.076891
1046.716951	0.078610
1046.883789	0.078258
1047.050608	0.078441
1047.217409	0.078577
1047.384192	0.078502
1047.550956	0.080632
1047.717703	0.078827
1047.884431	0.076239
1048.051140	0.076757
1048.217832	0.076720
1048.384505	0.077185
1048.551161	0.078560
1048.717798	0.078952
1048.884416	0.076251
1049.051017	0.076024
1049.217599	0.077079
1049.384163	0.074898
1049.550709	0.074023
1049.717237	0.073905
1049.883746	0.074349
1050.050237	0.074340
1050.216710	0.073874
1050.383165	0.075595
1050.549601	0.074816
1050.716019	0.074965
1050.882420	0.078174
1051.048801	0.078487
1051.215165	0.077692
1051.381510	0.078250
1051.547837	0.077543
1051.714146	0.076767
1051.880437	0.074720
1052.046709	0.074975
1052.212964	0.075628
1052.379200	0.075136
1052.545417	0.077110
1052.711617	0.079291
1052.877798	0.076267
1053.043961	0.075759
1053.210106	0.077427
1053.376233	0.079885
1053.542341	0.078293
1053.708432	0.076766
1053.874504	0.075798
1054.040557	0.073333
1054.206593	0.071940
1054.372610	0.074007
1054.538609	0.073870
1054.704590	0.073526
1054.870553	0.074946
1055.036497	0.077375
1055.202424	0.077509
1055.368331	0.076754
1055.534221	0.077860
1055.700093	0.078538
1055.865946	0.079385
1056.031781	0.080516
1056.197598	0.080708
1056.363397	0.079735
1056.529177	0.077555
1056.694939	0.077944
1056.860683	0.080599
1057.026409	0.080896
1057.192116	0.079997
1057.357806	0.080750
1057.523477	0.079871
1057.689130	0.078493
1057.854764	0.077017
1058.020381	0.077809
1058.185979	0.080327
1058.351559	0.079895
1058.517120	0.079253
1058.682664	0.078289
1058.848189	0.075843
1059.013696	0.074961
1059.179185	0.074510
1059.344656	0.073714
1059.510108	0.074051
1059.675542	0.072174
1059.840958	0.072106
1060.006356	0.071839
1060.171735	0.074419
1060.337096	0.075338
1060.502439	0.075521
1060.667764	0.076894
1060.833071	0.077695
1060.998359	0.076804
1061.163629	0.074551
1061.328881	0.075906
1061.494115	0.075064
1061.659330	0.074529
1061.824527	0.072712
1061.989706	0.073822
1062.154867	0.074735
1062.320010	0.075224
1062.485134	0.076002
1062.650240	0.080365
1062.815328	0.078009
1062.980398	0.078245
1063.145449	0.077191
1063.310482	0.077022
1063.475497	0.078230
1063.640494	0.078399
1063.805473	0.077081
1063.970433	0.076825
1064.135375	0.075216
1064.300299	0.076450
1064.465204	0.075571
1064.630092	0.074824
1064.794961	0.076302
1064.959812	0.075117
1065.124645	0.074103
1065.289459	0.073309
1065.454256	0.072637
1065.619034	0.071139
1065.783793	0.069758
1065.948535	0.069942
1066.113258	0.072262
1066.277964	0.072170
1066.442651	0.072119
1066.607319	0.072618
1066.771970	0.074852
1066.936602	0.076958
1067.101216	0.076598
1067.265812	0.076855
1067.430389	0.078528
1067.594949	0.076108
1067.759490	0.077099
1067.924013	0.077473
1068.088518	0.076856
1068.253004	0.076357
1068.417472	0.077033
1068.581922	0.078815
1068.746354	0.078222
1068.910768	0.077109
1069.075163	0.078153
1069.239540	0.077032
1069.403899	0.077202
1069.568240	0.077156
1069.732562	0.079827
1069.896866	0.080194
1070.061152	0.079685
1070.225420	0.081124
1070.389670	0.082690
1070.553901	0.084457
1070.718114	0.086761
1070.882309	0.085261
1071.046486	0.084536
1071.210644	0.082135
1071.374784	0.082270
1071.538906	0.082336
1071.703010	0.082281
1071.867096	0.083020
1072.031163	0.080598
1072.195212	0.079123
1072.359243	0.082073
1072.523256	0.083153
1072.687250	0.082661
1072.851226	0.082260
1073.015184	0.080212
1073.179124	0.080656
1073.343045	0.081159
1073.506949	0.081386
1073.670834	0.079800
1073.834701	0.077337
1073.998549	0.075518
1074.162380	0.077349
1074.326192	0.074176
1074.489986	0.076036
1074.653761	0.076867
1074.817519	0.075423
1074.981258	0.076409
1075.144979	0.077679
1075.308682	0.079602
1075.472367	0.082567
1075.636033	0.080395
1075.799681	0.080098
1075.963311	0.079502
1076.126923	0.077771
1076.290516	0.076432
1076.454092	0.077069
1076.617649	0.076407
1076.781187	0.075415
1076.944708	0.072569
1077.108210	0.073102
1077.271695	0.074584
1077.435160	0.075114
1077.598608	0.075684
1077.762038	0.077181
1077.925449	0.076227
1078.088842	0.076873
1078.252217	0.076750
1078.415573	0.079088
1078.578912	0.076997
1078.742232	0.078607
1078.905534	0.080765
1079.068817	0.080598
1079.232083	0.079229
1079.395330	0.081552
1079.558559	0.081597
1079.721770	0.083234
1079.884962	0.082569
1080.048136	0.086125
1080.211293	0.086351
1080.374430	0.083954
1080.537550	0.084791
1080.700651	0.086270
1080.863735	0.085807
1081.026800	0.086536
1081.189846	0.083948
1081.352875	0.081869
1081.515885	0.080955
1081.678877	0.079486
1081.841851	0.079770
1082.004807	0.078913
1082.167744	0.076626
1082.330663	0.074069
1082.493564	0.070405
1082.656447	0.072662
1082.819312	0.073639
1082.982158	0.072813
1083.144986	0.072334
1083.307796	0.069577
1083.470587	0.070460
1083.633361	0.073556
1083.796116	0.074194
1083.958853	0.078192
1084.121571	0.075993
1084.284272	0.075988
1084.446954	0.075989
1084.609618	0.073323
1084.772264	0.076924
1084.934892	0.074897
1085.097501	0.073868
1085.260092	0.072722
1085.422665	0.070773
1085.585220	0.072222
1085.747756	0.073356
1085.910274	0.077182
1086.072774	0.079423
1086.235256	0.076793
1086.397720	0.077148
1086.560165	0.078800
1086.722592	0.076794
1086.885001	0.080187
1087.047392	0.077697
1087.209764	0.078070
1087.372119	0.075503
1087.534455	0.078420
1087.696772	0.080982
1087.859072	0.084493
1088.021353	0.083522
1088.183616	0.087656
1088.345861	0.085276
1088.508088	0.088385
1088.670296	0.087272
1088.832486	0.086229
1088.994658	0.084872
1089.156812	0.084252
1089.318948	0.082871
1089.481065	0.084008
1089.643164	0.086351
1089.805245	0.087294
1089.967308	0.085722
1090.129352	0.088382
1090.291378	0.087406
1090.453386	0.089176
1090.615376	0.087618
1090.777347	0.085722
1090.939301	0.085283
1091.101236	0.082818
1091.263153	0.081403
1091.425051	0.082561
1091.586932	0.080270
1091.748794	0.077612
1091.910638	0.073300
1092.072463	0.076571
1092.234271	0.077815
1092.396060	0.076322
1092.557831	0.075126
1092.719584	0.076047
1092.881319	0.074875
1093.043035	0.076869
1093.204733	0.082396
1093.366413	0.086305
1093.528075	0.086318
1093.689718	0.084239
1093.851343	0.084801
1094.012950	0.086868
1094.174539	0.085584
1094.336110	0.086284
1094.497662	0.085260
1094.659196	0.081119
1094.820712	0.078621
1094.982210	0.077163
1095.143689	0.077080
1095.305151	0.080183
1095.466594	0.077567
1095.628018	0.080692
1095.789425	0.082006
1095.950813	0.082265
1096.112183	0.083981
1096.273535	0.081498
1096.434869	0.082846
1096.596184	0.083189
1096.757482	0.077716
1096.918761	0.077480
1097.080021	0.075274
1097.241264	0.074748
1097.402488	0.074990
1097.563694	0.073245
1097.724882	0.078423
1097.886052	0.071088
1098.047203	0.072782
1098.208336	0.072646
1098.369451	0.074377
1098.530548	0.076497
1098.691627	0.075050
1098.852687	0.074745
1099.013729	0.077946
1099.174753	0.074793
1099.335758	0.080818
1099.496746	0.079450
1099.657715	0.077288
1099.818666	0.079678
1099.979599	0.079765
1100.140513	0.080402
1100.301409	0.077440
1100.462287	0.078513
1100.623147	0.080938
1100.783989	0.081292
1100.944812	0.081630
1101.105617	0.085390
1101.266404	0.082927
1101.427173	0.080748
1101.587923	0.083411
1101.748656	0.084112
1101.909370	0.082605
1102.070066	0.082082
1102.230743	0.081778
1102.391403	0.084240
1102.552044	0.088952
1102.712667	0.089308
1102.873271	0.090337
1103.033858	0.090916
1103.194426	0.091608
1103.354976	0.091023
1103.515508	0.090918
1103.676021	0.090289
1103.836517	0.088257
1103.996994	0.088560
1104.157453	0.090666
1104.317893	0.092010
1104.478316	0.088460
1104.638720	0.092424
1104.799106	0.093117
1104.959474	0.090121
1105.119823	0.091631
1105.280155	0.091289
1105.440468	0.082565
1105.600763	0.081743
1105.761039	0.080871
1105.921298	0.081673
1106.081538	0.079547
1106.241760	0.081927
1106.401964	0.085006
1106.562149	0.086094
1106.722316	0.088359
1106.882465	0.092930
1107.042596	0.091625
1107.202709	0.089311
1107.362803	0.091416
1107.522879	0.092739
1107.682937	0.089829
1107.842977	0.088606
1108.002999	0.086171
1108.163002	0.086271
1108.322987	0.089058
1108.482954	0.092841
1108.642902	0.094133
1108.802833	0.092386
1108.962745	0.089128
1109.122639	0.089818
1109.282515	0.087867
1109.442372	0.086698
1109.602211	0.083098
1109.762032	0.082117
1109.921835	0.080381
1110.081620	0.082236
1110.241386	0.078463
1110.401134	0.075762
1110.560864	0.079170
1110.720576	0.079583
1110.880269	0.081888
1111.039945	0.086942
1111.199602	0.082169
1111.359240	0.075578
1111.518861	0.069980
1111.678463	0.074057
1111.838047	0.079435
1111.997613	0.076131
1112.157161	0.074830
1112.316690	0.072176
1112.476202	0.067379
1112.635695	0.068769
1112.795169	0.076757
1112.954626	0.079565
1113.114064	0.076640
1113.273484	0.077296
1113.432886	0.076669
1113.592270	0.078374
1113.751635	0.081020
1113.910983	0.082555
1114.070312	0.082103
1114.229622	0.078156
1114.388915	0.081460
1114.548189	0.082354
1114.707445	0.084258
1114.866683	0.085136
1115.025903	0.084324
1115.185104	0.081549
1115.344287	0.083512
1115.503452	0.087417
1115.662599	0.090356
1115.821727	0.088969
1115.980838	0.092946
1116.139930	0.088685
1116.299004	0.091704
1116.458059	0.093125
1116.617097	0.095237
1116.776116	0.090872
1116.935117	0.089797
1117.094099	0.089532
1117.253064	0.085946
1117.412010	0.083712
1117.570938	0.084180
1117.729848	0.082669
1117.888740	0.081598
1118.047613	0.080250
1118.206468	0.079477
1118.365305	0.076034
1118.524124	0.080691
1118.682924	0.085244
1118.841707	0.083214
1119.000471	0.081806
1119.159216	0.079360
1119.317944	0.082305
1119.476653	0.080632
1119.635344	0.084062
1119.794017	0.088230
1119.952672	0.082488
1120.111308	0.078652
1120.269927	0.075511
1120.428527	0.080342
1120.587108	0.079238
1120.745672	0.081503
1120.904217	0.083676
1121.062744	0.080379
1121.221253	0.074395
1121.379744	0.076955
1121.538216	0.082145
1121.696671	0.085072
1121.855107	0.082103
1122.013524	0.087078
1122.171924	0.087263
1122.330305	0.087955
1122.488668	0.095109
1122.647013	0.101294
1122.805340	0.097881
1122.963648	0.093069
1123.121938	0.092921
1123.280210	0.089882
1123.438464	0.088223
1123.596700	0.087261
1123.754917	0.086565
1123.913116	0.081168
1124.071297	0.079207
1124.229459	0.080647
1124.387604	0.078805
1124.545730	0.083281
1124.703838	0.088075
1124.861928	0.085903
1125.019999	0.086607
1125.178052	0.083671
1125.336088	0.087056
1125.494104	0.089327
1125.652103	0.089362
1125.810083	0.092000
1125.968045	0.092420
1126.125989	0.085285
1126.283915	0.086580
1126.441823	0.084139
1126.599712	0.085611
1126.757583	0.088728
1126.915436	0.090847
1127.073270	0.095729
1127.231087	0.101986
1127.388885	0.101686
1127.546665	0.108056
1127.704426	0.111382
1127.862170	0.105355
1128.019895	0.108331
1128.177602	0.106453
1128.335291	0.105559
1128.492961	0.097238
1128.650614	0.089968
1128.808248	0.086769
1128.965864	0.086625
1129.123461	0.081623
1129.281041	0.087499
1129.438602	0.090400
1129.596145	0.091209
1129.753670	0.090469
1129.911176	0.093171
1130.068665	0.098505
1130.226135	0.105348
1130.383587	0.111482
1130.541020	0.118833
1130.698436	0.121714
1130.855833	0.117567
1131.013212	0.115038
1131.170573	0.119060
1131.327915	0.115329
1131.485239	0.108448
1131.642545	0.105122
1131.799833	0.097422
1131.957103	0.093095
1132.114354	0.089378
1132.271588	0.093597
1132.428803	0.092946
1132.585999	0.086489
1132.743178	0.085915
1132.900338	0.093197
1133.057480	0.090172
1133.214604	0.093083
1133.371710	0.093902
1133.528797	0.103974
1133.685866	0.103014
1133.842917	0.103461
1133.999950	0.111161
1134.156964	0.108442
1134.313960	0.099518
1134.470938	0.098917
1134.627898	0.097926
1134.784840	0.096713
1134.941763	0.090707
1135.098668	0.092550
1135.255555	0.092852
1135.412424	0.086005
1135.569274	0.090825
1135.726107	0.098019
1135.882921	0.097861
1136.039716	0.100950
1136.196494	0.103845
1136.353253	0.099685
1136.509995	0.092082
1136.666717	0.089823
1136.823422	0.090029
1136.980109	0.094426
1137.136777	0.094527
1137.293427	0.091816
1137.450059	0.094627
1137.606672	0.093081
1137.763267	0.097039
1137.919844	0.099933
1138.076403	0.099239
1138.232944	0.100786
1138.389466	0.103392
1138.545971	0.102306
1138.702457	0.112069
1138.858924	0.107848
1139.015374	0.109517
1139.171805	0.105069
1139.328218	0.109506
1139.484613	0.119787
1139.640990	0.119214
1139.797348	0.111369
1139.953688	0.112063
1140.110010	0.109399
1140.266314	0.112770
1140.422600	0.109942
1140.578867	0.110056
1140.735116	0.112930
1140.891347	0.100479
1141.047559	0.098501
1141.203754	0.099055
1141.359930	0.100527
1141.516088	0.101598
1141.672228	0.102037
1141.828349	0.102951
1141.984452	0.110176
1142.140537	0.097123
1142.296604	0.112739
1142.452653	0.120123
1142.608683	0.113593
1142.764695	0.116356
1142.920689	0.114372
1143.076665	0.106071
1143.232622	0.106079
1143.388562	0.093780
1143.544483	0.097614
1143.700385	0.088752
1143.856270	0.078818
1144.012136	0.089846
1144.167985	0.089830
1144.323814	0.095944
1144.479626	0.099278
1144.635420	0.094609
1144.791195	0.101642
1144.946952	0.102459
1145.102691	0.098226
1145.258411	0.098613
1145.414113	0.098862
1145.569798	0.093813
1145.725463	0.078276
1145.881111	0.076985
1146.036741	0.084450
1146.192352	0.091867
1146.347945	0.101136
1146.503519	0.106628
1146.659076	0.112056
1146.814614	0.109247
1146.970134	0.104717
1147.125636	0.110621
1147.281120	0.116707
1147.436585	0.107299
1147.592032	0.100470
1147.747461	0.088581
1147.902872	0.087359
1148.058265	0.092787
1148.213639	0.091173
1148.368995	0.095698
1148.524333	0.100500
1148.679653	0.093455
1148.834954	0.100511
1148.990237	0.104509
1149.145502	0.107540
1149.300749	0.114508
1149.455977	0.096911
1149.611188	0.088809
1149.766380	0.087940
1149.921553	0.090426
1150.076709	0.094083
1150.231846	0.082111
1150.386966	0.079106
1150.542066	0.080803
1150.697149	0.065680
1150.852214	0.081742
1151.007260	0.086998
1151.162288	0.083941
1151.317298	0.082326
1151.472289	0.079178
1151.627263	0.094596
1151.782218	0.091962
1151.937155	0.092214
1152.092073	0.097680
1152.246974	0.098492
1152.401856	0.103178
1152.556720	0.109499
1152.711566	0.102690
1152.866393	0.110500
1153.021203	0.104874
1153.175994	0.110374
1153.330767	0.106508
1153.485521	0.109294
1153.640258	0.105284
1153.794976	0.116156
1153.949676	0.112184
1154.104358	0.118609
1154.259021	0.121702
1154.413667	0.118562
1154.568294	0.114939
1154.722903	0.134923
1154.877493	0.135009
1155.032066	0.140398
1155.186620	0.120051
1155.341156	0.121200
1155.495674	0.115350
1155.650173	0.112613
1155.804654	0.115699
1155.959118	0.133861
1156.113562	0.135466
1156.267989	0.135411
1156.422397	0.119156
1156.576788	0.117440
1156.731160	0.114016
1156.885513	0.120378
1157.039849	0.108347
1157.194166	0.106354
1157.348465	0.082980
1157.502746	0.062792
1157.657009	0.060288
1157.811253	0.067089
1157.965479	0.070978
1158.119687	0.071282
1158.273877	0.074709
1158.428048	0.084437
1158.582201	0.082267
1158.736337	0.100146
1158.890453	0.108010
1159.044552	0.111668
1159.198632	0.120920
1159.352694	0.123983
1159.506738	0.136415
1159.660764	0.131767
1159.814771	0.125123
1159.968761	0.132545
1160.122732	0.122076
1160.276685	0.119324
1160.430619	0.115701
1160.584535	0.095096
1160.738434	0.095263
1160.892313	0.086524
1161.046175	0.075782
1161.200019	0.076809
1161.353844	0.079227
1161.507651	0.076126
1161.661440	0.080805
1161.815210	0.074105
1161.968962	0.077610
1162.122697	0.076082
1162.276412	0.077676
1162.430110	0.091203
1162.583789	0.085218
1162.737451	0.076192
1162.891094	0.081754
1163.044718	0.077073
1163.198325	0.073490
1163.351913	0.102562
1163.505483	0.103639
1163.659035	0.108523
1163.812569	0.091765
1163.966084	0.094881
1164.119581	0.101180
1164.273060	0.080338
1164.426521	0.077333
1164.579964	0.099597
1164.733388	0.081836
1164.886794	0.082063
1165.040182	0.079591
1165.193551	0.085349
1165.346903	0.081212
1165.500236	0.073126
1165.653551	0.076918
1165.806848	0.086883
1165.960126	0.087939
1166.113386	0.084115
1166.266628	0.070263
1166.419852	0.058866
1166.573058	0.060829
1166.726245	0.055950
1166.879414	0.062852
1167.032565	0.082165
1167.185698	0.060079
1167.338812	0.036939
1167.491909	0.037704
1167.644987	0.061216
1167.798046	0.061637
1167.951088	0.060613
1168.104111	0.063383
1168.257117	0.057483
1168.410103	0.043544
1168.563072	0.067773
1168.716023	0.074150
1168.868955	0.066705
1169.021869	0.046871
1169.174765	0.041172
1169.327642	0.039871
1169.480501	0.051603
1169.633343	0.052524
1169.786165	0.043230
1169.938970	0.019909
1170.091757	0.022532
1170.244525	0.031801
1170.397275	0.042321
1170.550007	0.052488
1170.702720	0.059042
1170.855415	0.068771
1171.008092	0.064692
1171.160751	0.075352
1171.313392	0.083915
1171.466014	0.214501
1171.618619	0.034183
1171.771205	0.034183
1171.923772	0.034183
