sample name	sample
index	1419
start time	 05-10-2021  12:01:41 PM
880	0.250491
Peak Time (s)	91.037
Peak Height 	0.2505
calc peak height	90,93
Baseline Time (s)	10.534
Baseline Value 	-0.004217
subtract baseline	10,4
Abs	0.178783
Peak Time (s)	90.037
Peak Height 	0.1788
calc peak height	90,93
Baseline Time (s)	9.537
Baseline Value 	7.2781E-4
subtract baseline	10,3
PK_550	0.107505
Peak Time (s)	91.037
Peak Height 	0.1075
calc peak height	90,93
Baseline Time (s)	10.534
Baseline Value 	4.6292E-4
subtract baseline	10,2
PK_880	0.171210
Peak Time (s)	91.538
Peak Height 	0.1712
calc peak height	90,93
Baseline Time (s)	8.536
Baseline Value 	0.001101
subtract baseline	10,1


Time (s)	A880-A510	A880-A775	A880-A975	A880	I510	I775	I975	I880	
0.037000	-0.002332	-0.000411	0.000057	0.005244	6425.311866	43630.922482	3917.367568	22395.092807
0.540500	-0.003541	-0.000505	-0.000044	0.006553	6404.641099	43499.721729	3913.794868	22336.287768
1.037500	-0.001095	0.000526	0.003458	0.005776	6431.118743	43668.893208	3924.671508	22371.180244
1.535000	-0.003847	-0.000607	0.001986	0.002132	6438.481590	43905.060420	3930.235601	22535.604415
2.035500	-0.002169	-0.000704	-0.002778	0.004331	6434.174458	43689.066265	3912.501683	22436.205026
2.536000	-0.001712	-0.000536	0.002350	0.003271	6446.721932	43804.490172	3928.248427	22484.079430
3.039000	0.000814	-0.000243	0.001996	-0.001271	6505.726593	44261.942335	3939.032130	22690.374177
3.536500	0.001183	-0.000055	0.001092	0.000790	6491.517463	44084.126843	3931.386032	22596.492267
4.036500	-0.002989	-0.000865	0.000884	0.003234	6436.469876	43777.060629	3924.591275	22485.749207
4.537000	-0.000615	-0.000402	-0.001863	0.000231	6481.141836	44104.187436	3925.244692	22621.925139
5.039500	-0.000586	-0.000249	0.004160	0.000239	6481.315754	44117.957597	3940.725087	22621.564443
5.537500	-0.001823	-0.000011	-0.002529	0.000594	6468.036047	44106.895530	3922.619489	22605.413999
6.035000	0.000391	0.000358	0.003178	0.001261	6480.948254	44078.650943	3935.546273	22575.123563
6.538000	-0.001163	-0.000343	0.003584	0.000373	6475.384467	44096.391683	3938.889066	22615.477449
7.035500	-0.001068	0.000076	0.008186	0.000829	6472.372281	44092.861164	3949.664731	22594.739171
7.536000	-0.000603	-0.000202	0.001099	-0.000113	6484.124279	44155.817782	3933.728292	22637.595490
8.036000	0.000817	0.000049	-0.000480	0.000175	6493.601907	44152.329963	3928.929644	22624.475070
8.536000	0.000000	0.000677	0.004444	0.000470	6484.283720	44183.929067	3940.861076	22611.030507
9.036500	0.000716	0.000061	-0.001490	0.000278	6491.896525	44143.687378	3926.079784	22619.794499
9.537000	-0.000817	-0.000092	0.000000	-0.000340	6484.229222	44187.824334	3931.483255	22647.916062
10.037000	0.000128	-0.000338	-0.000533	-0.000393	6492.593530	44169.512118	3930.252574	22650.360118
10.534500	-0.001982	0.000000	0.000838	0.000000	6471.659761	44164.270302	3932.763288	22632.437446
11.035000	-0.000695	0.000121	-0.000408	0.003412	6453.983245	43853.046264	3920.842598	22477.700533
11.535000	0.000059	-0.000382	0.002696	-0.000010	6488.793970	44128.915037	3937.579443	22632.878878
12.035500	0.000834	0.000255	0.003149	0.000309	6492.628955	44159.169661	3937.929399	22618.389312
12.536000	0.000598	0.000226	0.000595	-0.000542	6497.786309	44237.232770	3933.534895	22657.148713
13.036000	-0.001538	-0.000101	-0.001556	0.003147	6449.185635	43857.029349	3918.597113	22489.646393
13.536500	-0.000114	0.000497	0.002337	0.000725	6481.199792	44142.639403	3934.756333	22599.434817
14.036500	-0.003837	-0.000040	-0.002627	0.001772	6441.540863	43992.696755	3919.369478	22551.932962
14.536500	-0.000341	-0.000101	0.003604	0.002024	6468.464813	43963.027065	3934.675187	22540.494051
15.034500	-0.003694	-0.000316	0.001872	0.002530	6436.464243	43895.019649	3928.923705	22517.598484
15.535000	0.000027	0.000524	0.001290	0.000274	6486.152693	44188.030476	3933.224532	22619.980636
16.035000	-0.000028	0.000671	-0.001014	0.000309	6485.402426	44198.704063	3927.217305	22618.379444
16.535500	-0.001473	-0.000473	-0.000852	-0.000804	6482.620434	44195.694099	3930.486767	22669.086661
17.036000	0.000313	-0.000262	-0.003194	0.000216	6489.031477	44118.876592	3921.886200	22622.592057
17.536000	-0.001692	-0.000447	0.001036	-0.000108	6474.980751	44132.135263	3933.551799	22637.372142
18.037000	-0.001664	-0.000345	-0.000410	0.000398	6470.986472	44093.798983	3928.536482	22614.317721
18.539500	-0.002198	-0.000872	-0.001849	0.000229	6467.949088	44059.851901	3925.284439	22621.991288
19.037000	0.000460	-0.000462	-0.003036	0.001263	6481.499356	44000.806701	3919.624104	22575.008356
19.540000	0.001528	0.000402	-0.001119	0.001008	6492.583104	44106.813956	3925.161447	22586.613731
20.037500	-0.000864	-0.000515	-0.001022	-0.000005	6481.040252	44115.878347	3928.002218	22632.679864
20.535000	-0.001753	-0.000569	0.001279	-0.000175	6475.023934	44126.846168	3934.350467	22640.405474
21.035000	-0.001054	0.000552	-0.000606	0.001566	6466.349687	44068.169416	3925.048301	22561.284487
21.535500	-0.000073	-0.000556	-0.002518	-0.000052	6488.049830	44116.466467	3924.294337	22634.804340
22.036000	-0.000872	0.000850	-0.001036	0.000813	6474.136261	44167.768557	3925.871980	22595.462309
22.539000	-0.000120	-0.000024	0.000114	0.000246	6485.156866	44138.608051	3930.269409	22621.222996
23.038500	-0.002040	-0.000013	-0.000985	0.001729	6456.790485	43999.232642	3923.661576	22553.871356
23.537000	-0.000515	0.000310	0.002960	0.000138	6482.757740	44180.585391	3937.880116	22626.146114
24.037000	-0.002844	-0.000453	0.002649	-0.000514	6468.754347	44170.044519	3938.763303	22655.851424
24.538000	-0.000993	-0.000925	0.001306	-0.000308	6482.482535	44105.757266	3934.761446	22646.452492
25.038000	-0.001442	-0.000211	-0.003173	0.001437	6464.190735	44008.131814	3918.834302	22567.124823
25.535000	-0.001375	0.000005	-0.000409	-0.000246	6478.778037	44188.151674	3930.193686	22643.660861
26.035500	-0.000656	0.000167	0.000662	0.000624	6477.516886	44120.846528	3930.707809	22604.030625
26.536000	-0.000141	-0.000345	-0.005144	0.000371	6483.934649	44096.372622	3916.537813	22615.564350
27.038000	0.000711	0.000188	0.003346	-0.001456	6506.419003	44320.589754	3943.011368	22698.842508
27.536500	-0.000479	0.000031	0.001323	-0.002069	6501.561954	44364.074630	3939.355198	22726.864056
28.036500	-0.000143	-0.000223	0.000833	-0.001200	6497.086833	44257.084219	3935.844174	22687.145926
28.537500	-0.000775	-0.000155	0.003046	-0.000893	6489.206679	44234.371086	3940.771668	22673.131360
29.037500	0.000299	0.000475	0.001633	-0.000712	6496.702979	44277.092719	3936.648694	22664.886200
29.538000	-0.002455	-0.000229	-0.000063	-0.001044	6476.421699	44241.641543	3933.131508	22680.021298
30.037500	-0.004026	-0.000606	-0.003678	0.004144	6420.425865	43715.884030	3910.702483	22444.665896
30.550500	-0.000524	0.000915	0.000098	0.000168	6482.424924	44235.167088	3930.428619	22624.776091
31.330500	0.000045	-0.000588	0.000688	-0.001115	6497.953507	44214.334828	3935.249129	22683.265558
31.714500	-0.001322	-0.000155	-0.001452	-0.000858	6484.339551	44231.057018	3929.088028	22671.560070
32.039000	-0.003104	-0.000961	-0.000426	0.003724	6431.474089	43721.908152	3920.001791	22463.597050
32.536500	0.000698	-0.000342	0.002326	-0.000856	6501.261847	44213.075657	3938.812138	22671.461468
33.037000	-0.002603	-0.000025	0.003752	-0.000727	6472.540961	44230.888762	3942.170941	22665.555226
33.540000	-0.000990	0.000019	0.000764	-0.000553	6484.558085	44218.617347	3933.996517	22657.617458
34.037500	-0.003588	-0.000662	-0.001517	0.004272	6422.973463	43698.567237	3915.842153	22438.885782
34.538000	0.000458	-0.000107	0.005067	0.000280	6489.706742	44127.484460	3942.971398	22619.674955
35.035000	-0.001269	0.000008	0.003568	0.002045	6460.569787	43971.391805	3934.527476	22539.538002
35.535500	-0.000242	0.000635	0.004076	0.001435	6474.196045	44088.370324	3937.413020	22567.192203
36.036000	-0.002144	0.000431	-0.000006	0.002816	6446.907115	43938.535965	3923.385468	22504.635116
36.535500	0.000356	0.000278	-0.002129	0.000884	6483.802531	44106.773820	3922.898456	22592.213208
37.036500	-0.003377	-0.000517	-0.002281	0.001897	6444.312282	43935.804873	3919.932368	22546.250007
37.536500	-0.000908	-0.001027	-0.001963	0.000589	6475.702954	44011.135535	3924.075705	22605.636842
38.038000	-0.000339	0.000470	0.002995	0.001048	6476.619925	44109.471568	3935.621256	22584.777759
38.537000	-0.001244	-0.000883	0.001327	-0.000042	6478.169720	44084.529275	3934.130475	22634.351085
39.035000	-0.001567	0.000099	0.001370	0.000877	6467.810250	44090.443642	3931.875591	22592.539074
39.535000	-0.001991	-0.000716	0.002276	0.000504	6467.383559	44048.582648	3935.169636	22609.492486
40.035000	0.000451	0.000280	0.004705	0.001314	6481.002406	44066.258624	3939.353770	22572.720244
40.536000	-0.001666	-0.000628	0.005708	0.000576	6469.493843	44050.121789	3943.868786	22606.228376
41.036000	0.000622	-0.000879	-0.001708	0.001428	6481.477369	43945.894972	3922.585750	22567.521316
41.536000	-0.001829	-0.000072	0.003333	0.000387	6469.707189	44120.734870	3938.201239	22614.822110
42.036000	-0.004078	-0.000892	0.000055	-0.000580	6459.036544	44134.608468	3932.241487	22658.850133
42.536500	-0.001575	-0.000694	0.000784	0.000218	6473.232877	44077.779354	3932.065460	22622.528855
43.037000	-0.002495	-0.000760	0.005756	0.001108	6458.163497	43987.302960	3942.610615	22582.048573
43.537500	0.000354	0.000279	-0.001085	0.000793	6484.540644	44115.518487	3925.795946	22596.350619
44.034500	-0.003055	-0.000235	0.000533	0.000253	6460.619887	44117.976073	3931.330363	22620.939548
44.535500	0.002649	0.000655	0.002601	-0.002898	6534.984153	44502.958141	3944.821310	22764.833085
45.035000	-0.002751	-0.000537	0.000238	0.001712	6451.031980	43951.405882	3926.831200	22554.650234
45.535500	0.002404	-0.000591	0.004224	-0.001706	6522.815395	44270.277026	3945.943648	22710.273508
46.036000	-0.003638	-0.000360	-0.001044	0.003486	6429.037708	43800.820748	3919.035737	22474.344374
46.536000	0.000091	0.000339	0.004250	-0.000705	6494.890825	44263.432330	3943.408593	22664.550022
47.036500	-0.003623	-0.000766	-0.000814	0.001368	6446.653502	43962.199697	3925.021258	22570.265181
47.537000	0.000505	0.000304	0.004573	-0.000769	6498.908029	44266.204768	3944.413344	22667.460410
48.038000	-0.000509	0.000065	0.002838	0.001543	6471.077137	44024.207821	3933.942346	22562.310358
48.537500	-0.000852	-0.000331	0.000389	0.000509	6476.841423	44084.591915	3930.302098	22609.287875
49.034500	-0.002783	-0.000228	0.001885	0.001982	6448.524353	43955.046374	3930.361072	22542.387419
49.535500	0.003076	0.000456	0.008809	-0.000297	6516.588596	44235.833432	3954.244145	22645.973186
50.035000	-0.000162	0.000351	0.001589	0.003886	6454.466015	43830.090148	3924.725078	22456.280657
50.536000	0.001227	-0.000981	0.004812	-0.004803	6539.082189	44528.699952	3955.579779	22852.337725
51.036000	-0.000965	-0.000695	-0.001688	0.002828	6456.584996	43831.240901	3919.071508	22504.089605
51.546500	0.000588	0.000359	0.005220	-0.002748	6516.276730	44460.252201	3951.262514	22757.975095
52.036500	0.024116	-0.024258	0.103043	0.425930	4292.601420	17560.635237	3345.567108	10274.290841
52.536500	-0.003002	-0.025709	-0.005396	-0.021050	6642.578074	43724.337539	3971.545670	23614.461050
53.037500	-0.018750	-0.070118	-0.032698	-0.237320	8867.842705	63523.650986	4601.880797	37010.395093
53.540000	-0.019313	-0.108763	-0.025797	-0.290150	9637.421046	65535.000000	4865.303647	41428.103539
54.035000	-0.013358	-0.066053	-0.018817	-0.234160	8898.848683	63649.938362	4646.533883	36762.764687
54.535500	0.005498	-0.026510	0.001423	-0.136712	7897.609822	56071.863359	4348.272583	29948.306061
55.035500	-0.013925	-0.023225	-0.004875	-0.100713	7292.928286	52216.659864	4206.007920	27793.363718
55.536000	-0.016287	-0.019989	-0.012523	-0.125824	7531.834802	55540.212482	4263.070964	29277.590268
56.039000	-0.000535	-0.031249	-0.004109	-0.176346	8303.616711	60517.021514	4473.500640	32536.866661
56.536500	0.006452	-0.022747	0.013933	-0.138843	7933.596221	56797.800679	4400.834588	30081.565196
57.036500	0.016219	-0.011683	0.026063	-0.073866	7326.774311	50510.265769	4219.172202	26298.607844
57.537000	0.025181	-0.001213	0.039829	-0.018075	6869.211184	45796.381362	4089.687662	23472.793959
58.040000	0.037658	0.009447	0.055036	0.021956	6622.155337	42993.843644	4018.884312	21657.594390
58.537500	0.048000	0.017519	0.063132	0.069179	6315.073557	39540.963071	3915.186997	19720.659775
59.035000	0.061179	0.024013	0.075120	0.093894	6224.255288	38037.149661	3883.423873	18787.867147
59.535500	0.069242	0.030739	0.083949	0.122646	6067.297334	36301.558348	3835.529038	17767.406304
60.035500	0.082706	0.037871	0.097285	0.139115	6045.116200	35591.937893	3828.194440	17212.621011
60.536000	0.093132	0.045505	0.107886	0.146639	6066.533776	35600.233290	3835.398454	16966.093243
61.039000	0.105702	0.053887	0.114958	0.155065	6097.367762	35596.870808	3832.219742	16695.004789
61.536500	0.110935	0.059329	0.120242	0.161209	6090.564367	35544.147865	3830.208073	16500.629606
62.036500	0.117085	0.064125	0.125336	0.194464	5894.523290	33476.095166	3766.484832	15495.002213
62.534500	0.119049	0.065851	0.131158	0.193760	5913.280961	33647.430492	3780.886388	15515.501922
63.037500	0.124330	0.077262	0.133418	0.180387	6047.706290	35450.865908	3816.281496	15911.333864
63.535000	0.127732	0.081832	0.130286	0.181001	6068.294940	35748.347269	3807.681669	15892.880001
64.035000	0.131356	0.084775	0.132020	0.176388	6129.909404	36324.083247	3822.291804	16032.059186
64.541000	0.136893	0.087741	0.136090	0.174420	6187.074934	36705.545015	3836.390880	16091.901645
65.041000	0.135416	0.086826	0.135186	0.173404	6183.536696	36713.404672	3836.654974	16122.901449
65.536000	0.136239	0.088487	0.136457	0.174466	6181.699195	36760.009194	3837.145738	16090.492280
66.036500	0.140103	0.089591	0.139863	0.176723	6194.052148	36670.420116	3839.852690	16021.915999
66.537000	0.140542	0.090726	0.137797	0.178922	6180.530735	36587.897624	3829.841729	15955.436637
67.037000	0.142477	0.091128	0.143938	0.180837	6180.686569	36470.808965	3839.762455	15897.808954
67.540000	0.144122	0.092958	0.144720	0.183486	6172.995995	36407.645639	3835.366144	15818.518404
68.035000	0.145607	0.093997	0.148568	0.185864	6166.165721	36304.560091	3838.823375	15747.727706
68.535500	0.145093	0.095572	0.150671	0.188033	6145.752620	36259.004532	3838.668898	15683.531858
69.035500	0.144318	0.095828	0.143940	0.194654	6090.104769	35774.315363	3807.685353	15489.496045
69.536000	0.150585	0.097619	0.151699	0.192019	6157.195963	36110.603058	3831.722299	15566.361976
70.036000	0.146195	0.097740	0.149358	0.194563	6104.817025	35925.999210	3820.353379	15492.125964
70.536000	0.149053	0.097725	0.150052	0.195198	6121.522270	35876.743046	3820.489970	15473.682840
71.037000	0.149010	0.098796	0.147286	0.202427	6067.201234	35412.999242	3797.618792	15265.422471
71.537000	0.151772	0.099549	0.153810	0.199726	6107.921358	35672.302967	3818.710686	15342.840290
72.037000	0.152203	0.099455	0.149542	0.202900	6087.411762	35426.894301	3801.659948	15251.914823
72.534500	0.152995	0.100350	0.159036	0.204146	6084.032322	35400.629848	3820.574644	15216.415713
73.035000	0.150195	0.099504	0.151011	0.209933	6020.721765	34908.679762	3789.106273	15052.841472
73.535500	0.154468	0.100538	0.156019	0.208799	6060.439935	35068.627676	3802.975218	15084.709759
74.035500	0.152776	0.101155	0.155221	0.212243	6022.697559	34860.163844	3793.373118	14988.132475
74.535500	0.156142	0.101677	0.158431	0.213467	6038.389338	34808.632248	3797.857254	14954.008108
75.035500	0.154553	0.102482	0.160049	0.220674	5974.464139	34342.258866	3785.294490	14754.940769
75.539500	0.157466	0.103799	0.161478	0.217898	6015.660314	34639.671983	3794.732645	14831.231172
76.036500	0.155928	0.101793	0.157030	0.219967	5989.477095	34343.554163	3780.142650	14774.307160
76.537000	0.158996	0.103161	0.165051	0.220353	6008.922730	34414.700048	3797.255822	14763.732767
77.037500	0.160276	0.103557	0.162024	0.227060	5969.696273	33960.541792	3775.489165	14581.275230
77.534500	0.161119	0.103903	0.166344	0.223255	6003.261263	34258.509595	3793.624440	14684.445646
78.035000	0.163117	0.104758	0.163043	0.225914	5998.468050	34128.681849	3780.289535	14612.268260
78.535000	0.164648	0.104804	0.166628	0.225449	6012.973284	34165.414864	3789.332496	14624.863020
79.035500	0.160201	0.106034	0.163357	0.232239	5932.193331	33768.197253	3767.025327	14442.322882
79.535500	0.164164	0.105073	0.167793	0.227083	5997.579488	34067.387622	3788.279134	14580.654726
80.038500	0.166473	0.104929	0.163115	0.226983	6015.089794	34064.319064	3778.077858	14583.369232
80.536500	0.164719	0.105518	0.169094	0.228004	5994.936927	34033.352118	3789.132868	14555.835981
81.036500	0.166501	0.105518	0.166567	0.228482	6004.394791	33999.171757	3782.416245	14542.974529
81.537000	0.166255	0.106937	0.165177	0.229294	5996.710591	34042.560192	3777.523833	14521.132322
82.034500	0.165403	0.106122	0.170641	0.228829	5993.910812	34017.495785	3790.750997	14533.620477
82.537500	0.166137	0.105999	0.171544	0.229437	5994.824374	33965.245494	3791.413744	14517.287928
83.035000	0.164680	0.107066	0.171543	0.230219	5978.656496	33985.578038	3789.656235	14496.321971
83.535500	0.166412	0.105357	0.166064	0.229305	5997.766598	33928.820117	3779.467061	14520.829200
84.036000	0.170052	0.107671	0.173218	0.232495	6001.030718	33866.335861	3788.307313	14435.480954
84.539000	0.167488	0.107513	0.169402	0.231976	5986.237136	33892.117424	3780.950853	14449.347792
85.036000	0.167721	0.108178	0.170556	0.232639	5983.134581	33892.238476	3782.042602	14431.657165
85.536500	0.167577	0.108200	0.169608	0.233260	5977.619412	33849.573863	3778.556676	14415.119798
86.037000	0.168089	0.107931	0.170909	0.234559	5971.958834	33738.197330	3778.560584	14380.596983
86.537500	0.166663	0.107607	0.169441	0.234428	5962.657446	33724.520737	3775.599540	14384.070724
87.037000	0.169794	0.108599	0.175882	0.235464	5977.715561	33721.389043	3787.625630	14356.618722
87.535000	0.166261	0.108458	0.170830	0.236228	5946.919767	33657.343087	3774.692013	14336.409021
88.035500	0.168418	0.108319	0.171825	0.238014	5949.566034	33521.438796	3772.944574	14289.296142
88.536000	0.166808	0.107509	0.176991	0.237951	5938.548394	33468.892881	3784.544968	14290.965316
89.035500	0.167570	0.106816	0.167106	0.238980	5936.649529	33348.055862	3760.489551	14263.898075
89.536000	0.169894	0.106842	0.174820	0.240386	5943.184241	33251.607549	3774.320333	14227.041636
90.036500	0.169304	0.106668	0.178783	0.242093	5926.866013	33120.594974	3779.314237	14182.431342
90.537000	0.166993	0.106655	0.171091	0.242692	5906.325091	33078.135038	3761.086249	14166.838567
91.037000	0.167240	0.107505	0.171331	0.250491	5853.642341	32599.764921	3744.765650	13965.579524
91.537500	0.171210	0.107437	0.176901	0.246017	5912.604658	32902.156216	3766.511496	14080.572170
92.035000	0.169128	0.107041	0.173242	0.247851	5885.116315	32748.731939	3754.557152	14033.301124
92.538000	0.168859	0.105062	0.173743	0.247362	5886.658996	32646.630827	3756.700387	14045.888545
93.035500	0.165592	0.106146	0.174627	0.254617	5813.981485	32227.520877	3742.991238	13860.551537
93.536000	0.168651	0.106524	0.177008	0.250758	5861.567111	32514.663003	3756.415861	13958.748785
94.035500	0.167446	0.104889	0.174609	0.251557	5847.699344	32349.336254	3749.510419	13938.332402
94.536000	0.167001	0.105533	0.178636	0.252552	5837.780449	32325.625756	3756.058159	13912.995337
95.036500	0.168849	0.105065	0.170270	0.259081	5805.749592	31855.915510	3724.336882	13748.024211
95.537000	0.168617	0.104833	0.176740	0.254828	5833.240702	32124.889744	3747.060349	13855.191920
96.034500	0.169482	0.104861	0.173890	0.256631	5826.800804	32005.871689	3737.132411	13809.631261
96.535000	0.169140	0.105030	0.179894	0.257674	5817.333700	31947.487139	3747.724526	13783.381521
97.035000	0.166567	0.105081	0.178615	0.264956	5750.760208	31468.459448	3729.523425	13601.721513
