sample name	sample
index	1026
start time	 04-19-2021  12:25:39 PM


Wavelength (nm)	Absorbance
494.344910	0.097369
494.563924	0.097369
494.782919	0.097369
495.001897	0.050566
495.220856	0.038937
495.439797	0.041192
495.658719	0.029890
495.877624	0.023561
496.096510	0.017465
496.315378	0.028765
496.534227	0.016935
496.753059	0.027017
496.971872	0.034885
497.190667	0.077943
497.409444	0.089635
497.628203	0.098283
497.846943	0.099974
498.065665	0.102974
498.284369	0.105697
498.503055	0.108824
498.721723	0.108593
498.940372	0.107743
499.159003	0.107746
499.377616	0.108220
499.596210	0.108216
499.814787	0.108029
500.033345	0.107799
500.251885	0.106325
500.470406	0.105586
500.688910	0.106985
500.907395	0.107290
501.125862	0.107353
501.344311	0.107112
501.562742	0.106512
501.781154	0.107410
501.999548	0.108109
502.217924	0.109487
502.436282	0.108846
502.654621	0.107390
502.872942	0.107811
503.091245	0.108105
503.309530	0.108301
503.527797	0.108527
503.746045	0.108232
503.964275	0.107592
504.182487	0.107707
504.400681	0.108356
504.618856	0.108701
504.837013	0.109173
505.055152	0.108766
505.273273	0.109595
505.491376	0.110551
505.709460	0.111511
505.927526	0.111374
506.145574	0.110979
506.363604	0.111901
506.581615	0.112808
506.799608	0.113232
507.017583	0.112698
507.235540	0.112264
507.453478	0.111238
507.671399	0.111920
507.889301	0.112073
508.107185	0.112468
508.325050	0.111677
508.542898	0.111276
508.760727	0.110279
508.978538	0.111583
509.196330	0.112063
509.414105	0.112758
509.631861	0.111687
509.849599	0.113244
510.067319	0.113361
510.285021	0.114374
510.502704	0.114299
510.720369	0.114866
510.938016	0.114043
511.155645	0.114034
511.373255	0.114059
511.590848	0.114228
511.808422	0.113558
512.025977	0.112626
512.243515	0.111954
512.461034	0.111833
512.678536	0.111705
512.896018	0.112503
513.113483	0.112690
513.330930	0.112936
513.548358	0.112865
513.765768	0.112341
513.983160	0.113640
514.200533	0.113219
514.417889	0.112921
514.635226	0.114097
514.852545	0.114462
515.069845	0.113969
515.287128	0.114043
515.504392	0.113924
515.721638	0.113875
515.938866	0.113762
516.156075	0.113419
516.373267	0.113949
516.590440	0.113589
516.807594	0.112468
517.024731	0.113347
517.241850	0.112780
517.458950	0.113693
517.676032	0.114529
517.893095	0.114361
518.110141	0.115238
518.327168	0.114956
518.544177	0.115369
518.761168	0.116245
518.978141	0.115388
519.195095	0.115939
519.412031	0.115525
519.628949	0.115519
519.845849	0.115631
520.062731	0.115172
520.279594	0.115739
520.496439	0.115227
520.713266	0.115415
520.930074	0.115488
521.146865	0.116062
521.363637	0.116536
521.580391	0.116552
521.797127	0.115919
522.013844	0.116185
522.230543	0.115950
522.447224	0.116677
522.663887	0.116799
522.880532	0.117568
523.097158	0.117436
523.313766	0.117568
523.530356	0.117675
523.746928	0.118395
523.963481	0.118842
524.180017	0.119986
524.396534	0.119396
524.613032	0.119602
524.829513	0.119466
525.045975	0.119620
525.262420	0.119622
525.478845	0.119691
525.695253	0.119776
525.911643	0.119547
526.128014	0.118877
526.344367	0.119383
526.560702	0.119047
526.777018	0.119749
526.993316	0.119583
527.209597	0.119592
527.425858	0.119448
527.642102	0.119457
527.858328	0.120119
528.074535	0.119992
528.290724	0.119956
528.506894	0.120572
528.723047	0.120548
528.939181	0.120890
529.155297	0.121086
529.371395	0.121260
529.587475	0.121377
529.803536	0.121342
530.019579	0.121699
530.235604	0.122165
530.451611	0.122173
530.667600	0.121787
530.883570	0.121754
531.099522	0.122296
531.315456	0.122577
531.531372	0.123170
531.747269	0.123970
531.963148	0.124017
532.179009	0.123803
532.394852	0.124041
532.610676	0.124245
532.826482	0.124943
533.042271	0.124454
533.258040	0.124915
533.473792	0.124922
533.689525	0.124867
533.905240	0.124995
534.120937	0.124944
534.336616	0.124907
534.552277	0.125620
534.767919	0.125083
534.983543	0.125793
535.199149	0.126294
535.414736	0.126526
535.630306	0.126455
535.845857	0.126508
536.061390	0.127370
536.276904	0.127741
536.492401	0.127223
536.707879	0.127781
536.923339	0.128143
537.138781	0.127983
537.354204	0.128086
537.569610	0.128612
537.784997	0.128678
538.000366	0.128701
538.215716	0.128547
538.431049	0.129377
538.646363	0.129715
538.861659	0.129163
539.076937	0.128962
539.292196	0.128834
539.507438	0.128330
539.722661	0.129204
539.937866	0.129434
540.153052	0.130039
540.368221	0.129858
540.583371	0.129706
540.798503	0.130085
541.013617	0.129890
541.228712	0.130178
541.443789	0.130323
541.658848	0.130011
541.873889	0.129889
542.088912	0.129881
542.303916	0.130091
542.518902	0.130401
542.733870	0.130236
542.948820	0.130514
543.163752	0.130041
543.378665	0.129964
543.593560	0.129971
543.808437	0.129929
544.023295	0.129765
544.238136	0.129747
544.452958	0.129836
544.667762	0.130288
544.882548	0.130705
545.097315	0.131429
545.312064	0.131757
545.526795	0.132148
545.741508	0.132489
545.956203	0.132807
546.170879	0.133116
546.385537	0.132882
546.600177	0.132861
546.814799	0.133026
547.029402	0.133091
547.243988	0.133270
547.458555	0.133592
547.673103	0.133786
547.887634	0.133353
548.102146	0.133069
548.316640	0.133157
548.531116	0.132960
548.745574	0.132594
548.960013	0.132938
549.174435	0.132902
549.388838	0.132439
549.603222	0.132232
549.817589	0.132474
550.031937	0.132422
550.246267	0.133179
550.460579	0.133799
550.674873	0.134228
550.889148	0.134031
551.103405	0.134234
551.317644	0.134337
551.531865	0.134121
551.746068	0.134146
551.960252	0.134677
552.174418	0.134310
552.388566	0.133716
552.602696	0.133486
552.816807	0.133611
553.030900	0.133443
553.244975	0.133634
553.459032	0.134047
553.673070	0.134264
553.887091	0.134222
554.101093	0.134083
554.315077	0.134530
554.529042	0.134968
554.742990	0.134678
554.956919	0.135066
555.170830	0.135265
555.384722	0.135319
555.598597	0.135034
555.812453	0.135488
556.026291	0.135548
556.240111	0.135847
556.453913	0.135815
556.667696	0.136394
556.881461	0.136378
557.095208	0.136643
557.308937	0.136832
557.522647	0.137484
557.736339	0.137277
557.950013	0.137539
558.163669	0.137001
558.377307	0.137341
558.590926	0.136841
558.804527	0.136691
559.018110	0.136693
559.231675	0.136571
559.445221	0.136585
559.658749	0.136184
559.872259	0.135849
560.085751	0.136096
560.299225	0.135995
560.512680	0.136297
560.726117	0.136478
560.939536	0.136165
561.152937	0.136470
561.366319	0.136170
561.579683	0.136119
561.793029	0.136460
562.006357	0.136642
562.219667	0.136978
562.432958	0.137116
562.646231	0.137163
562.859486	0.137426
563.072723	0.137186
563.285941	0.137697
563.499141	0.137957
563.712323	0.137647
563.925487	0.137310
564.138632	0.136637
564.351760	0.136395
564.564869	0.136481
564.777960	0.136132
564.991032	0.135893
565.204087	0.135832
565.417123	0.135961
565.630141	0.136394
565.843140	0.136446
566.056122	0.136722
566.269085	0.137041
566.482030	0.136829
566.694957	0.136761
566.907866	0.136885
567.120756	0.136757
567.333628	0.136353
567.546482	0.136426
567.759318	0.136716
567.972135	0.136916
568.184935	0.136463
568.397716	0.136641
568.610478	0.136830
568.823223	0.137200
569.035949	0.137359
569.248657	0.137733
569.461347	0.137471
569.674019	0.137681
569.886672	0.137513
570.099308	0.137928
570.311925	0.138228
570.524523	0.138542
570.737104	0.138495
570.949666	0.138607
571.162210	0.138643
571.374736	0.138679
571.587244	0.138578
571.799733	0.138498
572.012205	0.138303
572.224658	0.138433
572.437092	0.138325
572.649509	0.138478
572.861907	0.138219
573.074287	0.138094
573.286649	0.138013
573.498993	0.137961
573.711318	0.138191
573.923625	0.138298
574.135914	0.137690
574.348185	0.137745
574.560438	0.137465
574.772672	0.137363
574.984888	0.137899
575.197086	0.137912
575.409266	0.137870
575.621427	0.137941
575.833570	0.138258
576.045695	0.138711
576.257802	0.138942
576.469890	0.139150
576.681961	0.139426
576.894013	0.139134
577.106046	0.139876
577.318062	0.140156
577.530059	0.139701
577.742039	0.139456
577.954000	0.139222
578.165942	0.139012
578.377867	0.139052
578.589773	0.138868
578.801661	0.139032
579.013531	0.138469
579.225382	0.138474
579.437216	0.139071
579.649031	0.139353
579.860828	0.139671
580.072606	0.139827
580.284367	0.139943
580.496109	0.139965
580.707833	0.139682
580.919539	0.139544
581.131227	0.139602
581.342896	0.139491
581.554547	0.139711
581.766180	0.139605
581.977795	0.139400
582.189391	0.139439
582.400969	0.139511
582.612529	0.139941
582.824071	0.140689
583.035595	0.140860
583.247100	0.140830
583.458587	0.141089
583.670056	0.141128
583.881506	0.141477
584.092939	0.141308
584.304353	0.141547
584.515749	0.141205
584.727127	0.140933
584.938486	0.140878
585.149828	0.141180
585.361151	0.141101
585.572456	0.141053
585.783742	0.141230
585.995011	0.141386
586.206261	0.141250
586.417493	0.141414
586.628706	0.141435
586.839902	0.141295
587.051079	0.141330
587.262238	0.141276
587.473379	0.141694
587.684502	0.141784
587.895606	0.141898
588.106692	0.141977
588.317760	0.142356
588.528810	0.142635
588.739841	0.142796
588.950855	0.142652
589.161850	0.142709
589.372827	0.142653
589.583785	0.142650
589.794726	0.143023
590.005648	0.143222
590.216552	0.143206
590.427437	0.142970
590.638305	0.143280
590.849154	0.143589
591.059985	0.143435
591.270798	0.143443
591.481592	0.143418
591.692369	0.143235
591.903127	0.143399
592.113867	0.143528
592.324588	0.144036
592.535292	0.143830
592.745977	0.143831
592.956644	0.143912
593.167293	0.144355
593.377923	0.144442
593.588536	0.144410
593.799130	0.144552
594.009706	0.144706
594.220263	0.144655
594.430803	0.145127
594.641324	0.145254
594.851827	0.145862
595.062312	0.145534
595.272778	0.145561
595.483227	0.145328
595.693657	0.145380
595.904069	0.145102
596.114462	0.145034
596.324838	0.145029
596.535195	0.144938
596.745534	0.144716
596.955855	0.144835
597.166157	0.145332
597.376441	0.145848
597.586707	0.145951
597.796955	0.146451
598.007185	0.146830
598.217396	0.146798
598.427589	0.147241
598.637764	0.147014
598.847921	0.147182
599.058060	0.147004
599.268180	0.146901
599.478282	0.146924
599.688366	0.146949
599.898431	0.147016
600.108479	0.146930
600.318508	0.146623
600.528519	0.147054
600.738511	0.146899
600.948486	0.146813
601.158442	0.146858
601.368380	0.146929
601.578300	0.147023
601.788202	0.146784
601.998085	0.147033
602.207950	0.147211
602.417797	0.147241
602.627626	0.147463
602.837436	0.147419
603.047228	0.147799
603.257002	0.147771
603.466758	0.147644
603.676496	0.147776
603.886215	0.147841
604.095916	0.147636
604.305599	0.147240
604.515264	0.147178
604.724910	0.147226
604.934538	0.146704
605.144148	0.146546
605.353740	0.146697
605.563314	0.147017
605.772869	0.147033
605.982406	0.147198
606.191925	0.147477
606.401425	0.147410
606.610908	0.147576
606.820372	0.147946
607.029818	0.148426
607.239246	0.148326
607.448655	0.147974
607.658047	0.147734
607.867420	0.147657
608.076775	0.147636
608.286111	0.147980
608.495430	0.148022
608.704730	0.148037
608.914012	0.147955
609.123275	0.147774
609.332521	0.147912
609.541748	0.148115
609.750957	0.148431
609.960148	0.148343
610.169321	0.148394
610.378475	0.148444
610.587611	0.148417
610.796729	0.148488
611.005829	0.148655
611.214910	0.148719
611.423974	0.148519
611.633019	0.148487
611.842045	0.148669
612.051054	0.148517
612.260044	0.148595
612.469017	0.148837
612.677970	0.148656
612.886906	0.148922
613.095824	0.148822
613.304723	0.148982
613.513604	0.149009
613.722467	0.149176
613.931311	0.149446
614.140138	0.149448
614.348946	0.149459
614.557736	0.149577
614.766507	0.149574
614.975261	0.149654
615.183996	0.149752
615.392713	0.150099
615.601412	0.150037
615.810092	0.149673
616.018754	0.149836
616.227399	0.149666
616.436024	0.149711
616.644632	0.149720
616.853222	0.149668
617.061793	0.149653
617.270346	0.149465
617.478880	0.149508
617.687397	0.149963
617.895895	0.149932
618.104375	0.150228
618.312837	0.150360
618.521281	0.150208
618.729706	0.150210
618.938113	0.150523
619.146502	0.150575
619.354873	0.150814
619.563226	0.150841
619.771560	0.151058
619.979876	0.151246
620.188174	0.151356
620.396453	0.151496
620.604715	0.151873
620.812958	0.151820
621.021183	0.151757
621.229390	0.151750
621.437578	0.151699
621.645748	0.151599
621.853900	0.151507
622.062034	0.151517
622.270150	0.151720
622.478247	0.152013
622.686326	0.151935
622.894387	0.152110
623.102430	0.152406
623.310454	0.152607
623.518461	0.152639
623.726449	0.152620
623.934418	0.152595
624.142370	0.152611
624.350303	0.152300
624.558218	0.152482
624.766115	0.152758
624.973994	0.152559
625.181855	0.152385
625.389697	0.152573
625.597521	0.152662
625.805327	0.152802
626.013114	0.152929
626.220883	0.152990
626.428634	0.153103
626.636367	0.152663
626.844082	0.152842
627.051778	0.153142
627.259457	0.153177
627.467117	0.153333
627.674758	0.153255
627.882382	0.153225
628.089987	0.153326
628.297574	0.153567
628.505143	0.153934
628.712694	0.154048
628.920226	0.154043
629.127740	0.154100
629.335236	0.154147
629.542714	0.154482
629.750174	0.154498
629.957615	0.154638
630.165038	0.154561
630.372443	0.154638
630.579829	0.154596
630.787198	0.154864
630.994548	0.154856
631.201880	0.154833
631.409194	0.155005
631.616489	0.155209
631.823766	0.155383
632.031025	0.155595
632.238266	0.155632
632.445489	0.155943
632.652693	0.155921
632.859879	0.156333
633.067047	0.156551
633.274197	0.156589
633.481329	0.156879
633.688442	0.156954
633.895537	0.156943
634.102614	0.157041
634.309672	0.156813
634.516713	0.156906
634.723735	0.156698
634.930739	0.156833
635.137724	0.156894
635.344692	0.156824
635.551641	0.156653
635.758572	0.156719
635.965485	0.156816
636.172379	0.156914
636.379256	0.156970
636.586114	0.157048
636.792954	0.156986
636.999775	0.156959
637.206579	0.157192
637.413364	0.157400
637.620131	0.157601
637.826880	0.157554
638.033610	0.157913
638.240323	0.158034
638.447017	0.158054
638.653692	0.158356
638.860350	0.158441
639.066990	0.158315
639.273611	0.158170
639.480214	0.157918
639.686798	0.158108
639.893365	0.157947
640.099913	0.158088
640.306443	0.158017
640.512955	0.157906
640.719449	0.157857
640.925924	0.157958
641.132381	0.158341
641.338820	0.158793
641.545241	0.159133
641.751644	0.159106
641.958028	0.159006
642.164394	0.159242
642.370742	0.159331
642.577071	0.159506
642.783383	0.159361
642.989676	0.159411
643.195951	0.159228
643.402207	0.158852
643.608446	0.159058
643.814666	0.158954
644.020868	0.159028
644.227052	0.159089
644.433218	0.159235
644.639365	0.159524
644.845494	0.159663
645.051605	0.160004
645.257698	0.160182
645.463772	0.160155
645.669828	0.160322
645.875866	0.160521
646.081886	0.160510
646.287888	0.160701
646.493871	0.160663
646.699836	0.160536
646.905783	0.160587
647.111712	0.160929
647.317622	0.160998
647.523514	0.161441
647.729388	0.161528
647.935244	0.161601
648.141082	0.161576
648.346901	0.161960
648.552702	0.162137
648.758485	0.162241
648.964250	0.162293
649.169996	0.162665
649.375724	0.162249
649.581434	0.162435
649.787126	0.162760
649.992800	0.162714
650.198455	0.162505
650.404092	0.162604
650.609711	0.162348
650.815311	0.162310
651.020894	0.162267
651.226458	0.162491
651.432004	0.162385
651.637532	0.162249
651.843041	0.162259
652.048532	0.162288
652.254006	0.162240
652.459460	0.162530
652.664897	0.162676
652.870315	0.162623
653.075716	0.162625
653.281097	0.162726
653.486461	0.162773
653.691807	0.162920
653.897134	0.163056
654.102443	0.163367
654.307734	0.163405
654.513006	0.163469
654.718261	0.163582
654.923497	0.163906
655.128715	0.164015
655.333915	0.164432
655.539096	0.164691
655.744259	0.164928
655.949404	0.164935
656.154531	0.165049
656.359640	0.165214
656.564730	0.165342
656.769802	0.165283
656.974856	0.165420
657.179892	0.165125
657.384909	0.165102
657.589908	0.165281
657.794889	0.165280
657.999852	0.165232
658.204797	0.165322
658.409723	0.165462
658.614631	0.165748
658.819521	0.165738
659.024393	0.165826
659.229246	0.165935
659.434081	0.165719
659.638898	0.165892
659.843697	0.166157
660.048478	0.166296
660.253240	0.166461
660.457984	0.166572
660.662710	0.166597
660.867417	0.166949
661.072107	0.166867
661.276778	0.167064
661.481431	0.167199
661.686066	0.167300
661.890682	0.167182
662.095281	0.167153
662.299861	0.167069
662.504422	0.167095
662.708966	0.166894
662.913491	0.166963
663.117999	0.167076
663.322488	0.167147
663.526958	0.167055
663.731411	0.167235
663.935845	0.167388
664.140261	0.167434
664.344659	0.167713
664.549038	0.167879
664.753400	0.168376
664.957743	0.168544
665.162068	0.168608
665.366375	0.168608
665.570663	0.168608
665.774933	0.168766
665.979185	0.168912
666.183419	0.168969
666.387635	0.169193
666.591832	0.169088
666.796011	0.169060
667.000172	0.169198
667.204315	0.169697
667.408439	0.169956
667.612545	0.169763
667.816634	0.170079
668.020703	0.170083
668.224755	0.170171
668.428788	0.170225
668.632803	0.170499
668.836800	0.170564
669.040779	0.170404
669.244739	0.170233
669.448681	0.170344
669.652605	0.170158
669.856511	0.170263
670.060399	0.170319
670.264268	0.170339
670.468119	0.170181
670.671952	0.170142
670.875767	0.170449
671.079563	0.170768
671.283341	0.171086
671.487101	0.171319
671.690843	0.171441
671.894567	0.171527
672.098272	0.171590
672.301959	0.171750
672.505628	0.171667
672.709278	0.171708
672.912911	0.171720
673.116525	0.171774
673.320121	0.171712
673.523699	0.171793
673.727258	0.171934
673.930799	0.171922
674.134322	0.171991
674.337827	0.172260
674.541314	0.172192
674.744782	0.172172
674.948232	0.171913
675.151664	0.171966
675.355078	0.172024
675.558474	0.172246
675.761851	0.172472
675.965210	0.172659
676.168551	0.172811
676.371873	0.172939
676.575178	0.173209
676.778464	0.173434
676.981732	0.173520
677.184981	0.173654
677.388213	0.173599
677.591426	0.173677
677.794621	0.173610
677.997798	0.173731
678.200956	0.173820
678.404097	0.173881
678.607219	0.174130
678.810323	0.174283
679.013408	0.174330
679.216476	0.174166
679.419525	0.174153
679.622556	0.174285
679.825569	0.174346
680.028563	0.174242
680.231540	0.174269
680.434498	0.174342
680.637438	0.174350
680.840359	0.174307
681.043263	0.174585
681.246148	0.174533
681.449015	0.174632
681.651864	0.174516
681.854694	0.174601
682.057506	0.174585
682.260301	0.174536
682.463076	0.174566
682.665834	0.174748
682.868573	0.174808
683.071295	0.175110
683.273998	0.175126
683.476682	0.175464
683.679349	0.175478
683.881997	0.175671
684.084627	0.175782
684.287239	0.175742
684.489833	0.175892
684.692408	0.176035
684.894965	0.175942
685.097504	0.176121
685.300025	0.176182
685.502527	0.176425
685.705012	0.176408
685.907478	0.176666
686.109925	0.176780
686.312355	0.176955
686.514766	0.176810
686.717159	0.177120
686.919534	0.177082
687.121891	0.177166
687.324230	0.177351
687.526550	0.177536
687.728852	0.177341
687.931136	0.177692
688.133401	0.177615
688.335649	0.177815
688.537878	0.177791
688.740089	0.177985
688.942281	0.178062
689.144456	0.177770
689.346612	0.177606
689.548750	0.177763
689.750870	0.177725
689.952971	0.177548
690.155055	0.177511
690.357120	0.177814
690.559167	0.177697
690.761195	0.177516
690.963206	0.177717
691.165198	0.177610
691.367172	0.177446
691.569128	0.177463
691.771065	0.177498
691.972984	0.177522
692.174885	0.177325
692.376768	0.177565
692.578633	0.177526
692.780479	0.177677
692.982308	0.177883
693.184118	0.178166
693.385909	0.178146
693.587683	0.178359
693.789438	0.178531
693.991175	0.178402
694.192894	0.178272
694.394595	0.178234
694.596277	0.178313
694.797941	0.178472
694.999587	0.178382
695.201215	0.178380
695.402824	0.178481
695.604416	0.178576
695.805989	0.178670
696.007543	0.178631
696.209080	0.178792
696.410598	0.178611
696.612099	0.178603
696.813580	0.178621
697.015044	0.178770
697.216490	0.178713
697.417917	0.178547
697.619326	0.178784
697.820717	0.179005
698.022089	0.179104
698.223444	0.179388
698.424780	0.179498
698.626098	0.179521
698.827397	0.179644
699.028679	0.179797
699.229942	0.179948
699.431187	0.179802
699.632414	0.179852
699.833622	0.179941
700.034813	0.179939
700.235985	0.180052
700.437139	0.180329
700.638274	0.180308
700.839392	0.180647
701.040491	0.180830
701.241572	0.181221
701.442635	0.181443
701.643679	0.181731
701.844706	0.182076
702.045714	0.182027
702.246704	0.182212
702.447675	0.182348
702.648629	0.182141
702.849564	0.182099
703.050481	0.182219
703.251380	0.182282
703.452260	0.182361
703.653122	0.182437
703.853966	0.182457
704.054792	0.182542
704.255600	0.182570
704.456389	0.182666
704.657160	0.182942
704.857913	0.182731
705.058648	0.182870
705.259365	0.182798
705.460063	0.182400
705.660743	0.182546
705.861405	0.182400
706.062048	0.182338
706.262674	0.182344
706.463281	0.182261
706.663870	0.182135
706.864441	0.181968
707.064993	0.182129
707.265527	0.182272
707.466043	0.182208
707.666541	0.182321
707.867021	0.182482
708.067482	0.182680
708.267925	0.182626
708.468350	0.182886
708.668757	0.182836
708.869145	0.182563
709.069516	0.182598
709.269868	0.182718
709.470201	0.182532
709.670517	0.182584
709.870814	0.182514
710.071093	0.182483
710.271354	0.182455
710.471597	0.182440
710.671821	0.182551
710.872028	0.182323
711.072216	0.182179
711.272385	0.182125
711.472537	0.182110
711.672670	0.181760
711.872785	0.181682
712.072882	0.181577
712.272961	0.181521
712.473021	0.181302
712.673063	0.181442
712.873087	0.181463
713.073093	0.181492
713.273081	0.181160
713.473050	0.181323
713.673001	0.181176
713.872934	0.181096
714.072849	0.181190
714.272745	0.181361
714.472623	0.181415
714.672483	0.181512
714.872325	0.181594
715.072148	0.181640
715.271954	0.181680
715.471741	0.182003
715.671509	0.182090
715.871260	0.181951
716.070992	0.181998
716.270707	0.181884
716.470403	0.181767
716.670080	0.181591
716.869740	0.181584
717.069381	0.181539
717.269004	0.181195
717.468609	0.180986
717.668195	0.181074
717.867764	0.180954
718.067314	0.180948
718.266846	0.180910
718.466360	0.181028
718.665855	0.180914
718.865332	0.180797
719.064791	0.180719
719.264232	0.180792
719.463655	0.180881
719.663059	0.180749
719.862445	0.180836
720.061813	0.180858
720.261163	0.180770
720.460494	0.181286
720.659807	0.181148
720.859102	0.181143
721.058379	0.181145
721.257638	0.180924
721.456878	0.181012
721.656100	0.181060
721.855304	0.181007
722.054490	0.181038
722.253657	0.180512
722.452806	0.180447
722.651937	0.180625
722.851050	0.180427
723.050145	0.180142
723.249221	0.179887
723.448279	0.179478
723.647319	0.179216
723.846340	0.178881
724.045344	0.178743
724.244329	0.178644
724.443296	0.178428
724.642245	0.178402
724.841175	0.178492
725.040088	0.178221
725.238982	0.178208
725.437857	0.178256
725.636715	0.178261
725.835554	0.178155
726.034376	0.178276
726.233179	0.178222
726.431963	0.178242
726.630730	0.178015
726.829478	0.178020
727.028208	0.178035
727.226920	0.177876
727.425614	0.177834
727.624289	0.177999
727.822946	0.177988
728.021585	0.177942
728.220206	0.177722
728.418808	0.177687
728.617392	0.177929
728.815958	0.177876
729.014506	0.177864
729.213036	0.177823
729.411547	0.177664
729.610040	0.177498
729.808515	0.177389
730.006972	0.177479
730.205410	0.177550
730.403831	0.177186
730.602233	0.177092
730.800616	0.176979
730.998982	0.176693
731.197329	0.176484
731.395658	0.176269
731.593969	0.176172
731.792262	0.175901
731.990536	0.175641
732.188793	0.175709
732.387031	0.175598
732.585250	0.175670
732.783452	0.175660
732.981635	0.175622
733.179800	0.175642
733.377947	0.175506
733.576076	0.175521
733.774186	0.175543
733.972278	0.175366
734.170352	0.175261
734.368408	0.175054
734.566446	0.175110
734.764465	0.175109
734.962466	0.175078
735.160449	0.175005
735.358413	0.174818
735.556360	0.174786
735.754288	0.174826
735.952198	0.174900
736.150090	0.174916
736.347963	0.174824
736.545818	0.174812
736.743655	0.174680
736.941474	0.174816
737.139275	0.174932
737.337057	0.174785
737.534821	0.174944
737.732567	0.174525
737.930295	0.174408
738.128005	0.174447
738.325696	0.174385
738.523369	0.174357
738.721024	0.174047
738.918660	0.174123
739.116279	0.174117
739.313879	0.173716
739.511461	0.173845
739.709024	0.173713
739.906570	0.173714
740.104097	0.173676
740.301606	0.173740
740.499097	0.173820
740.696569	0.173561
740.894024	0.173362
741.091460	0.173591
741.288878	0.173516
741.486277	0.173354
741.683659	0.173176
741.881022	0.173146
742.078367	0.172981
742.275694	0.172852
742.473002	0.173017
742.670293	0.173247
742.867565	0.173042
743.064819	0.173127
743.262054	0.173254
743.459272	0.173240
743.656471	0.172990
743.853652	0.172877
744.050815	0.173106
744.247959	0.172742
744.445085	0.172714
744.642194	0.172928
744.839283	0.172854
745.036355	0.172886
745.233408	0.172829
745.430444	0.173049
745.627461	0.173044
745.824459	0.172614
746.021440	0.172791
746.218402	0.172455
746.415346	0.172036
746.612272	0.171772
746.809180	0.171518
747.006069	0.171526
747.202940	0.171221
747.399793	0.170988
747.596628	0.171067
747.793444	0.170718
747.990243	0.170614
748.187023	0.170580
748.383784	0.170619
748.580528	0.170674
748.777253	0.170241
748.973960	0.170124
749.170649	0.170147
749.367320	0.169907
749.563973	0.170002
749.760607	0.169916
749.957223	0.169840
750.153821	0.169687
750.350400	0.169533
750.546962	0.169647
750.743505	0.169596
750.940030	0.169545
751.136536	0.169498
751.333025	0.169352
751.529495	0.169254
751.725947	0.169276
751.922381	0.169135
752.118796	0.168815
752.315194	0.168691
752.511573	0.168580
752.707934	0.168257
752.904276	0.168090
753.100601	0.167720
753.296907	0.167705
753.493195	0.167401
753.689465	0.167059
753.885716	0.166939
754.081949	0.166742
754.278164	0.166489
754.474361	0.166489
754.670540	0.166208
754.866700	0.166139
755.062843	0.165947
755.258967	0.165851
755.455072	0.165903
755.651160	0.165882
755.847229	0.165822
756.043280	0.165734
756.239313	0.165418
756.435328	0.165598
756.631324	0.165627
756.827302	0.165387
757.023262	0.165021
757.219204	0.164799
757.415127	0.164635
757.611033	0.164601
757.806920	0.164270
758.002788	0.164141
758.198639	0.163939
758.394471	0.163857
758.590286	0.163804
758.786081	0.163949
758.981859	0.163924
759.177619	0.163815
759.373360	0.163455
759.569083	0.163404
759.764788	0.163415
759.960474	0.163310
760.156143	0.163150
760.351793	0.163031
760.547425	0.162858
760.743038	0.162868
760.938634	0.162634
761.134211	0.162355
761.329770	0.162506
761.525311	0.162389
761.720833	0.162328
761.916338	0.162245
762.111824	0.162196
762.307292	0.162160
762.502741	0.161801
762.698173	0.161858
762.893586	0.162024
763.088981	0.161682
763.284358	0.161755
763.479716	0.161525
763.675057	0.161292
763.870379	0.161159
764.065683	0.161135
764.260968	0.161243
764.456236	0.161155
764.651485	0.160914
764.846716	0.161196
765.041929	0.161115
765.237123	0.161183
765.432299	0.161328
765.627457	0.161494
765.822597	0.161286
766.017719	0.161104
766.212822	0.161000
766.407907	0.161305
766.602974	0.161197
766.798023	0.161022
766.993054	0.161003
767.188066	0.160868
767.383060	0.160813
767.578036	0.160886
767.772993	0.161029
767.967933	0.161041
768.162854	0.160645
768.357757	0.160486
768.552642	0.160515
768.747508	0.160264
768.942356	0.160012
769.137186	0.159635
769.331998	0.159408
769.526792	0.159380
769.721567	0.159312
769.916324	0.159444
770.111063	0.159448
770.305784	0.159286
770.500486	0.159406
770.695171	0.159496
770.889837	0.159647
771.084484	0.159759
771.279114	0.159578
771.473725	0.159698
771.668318	0.159679
771.862893	0.159738
772.057450	0.159773
772.251988	0.159844
772.446509	0.159896
772.641011	0.159945
772.835494	0.159819
773.029960	0.159930
773.224407	0.159802
773.418836	0.160044
773.613247	0.159851
773.807640	0.159948
774.002014	0.159757
774.196370	0.159913
774.390708	0.159814
774.585028	0.159972
774.779330	0.159835
774.973613	0.159916
775.167878	0.159828
775.362125	0.160160
775.556354	0.160025
775.750564	0.160316
775.944756	0.160161
776.138930	0.160137
776.333086	0.160107
776.527223	0.160249
776.721343	0.160151
776.915444	0.159934
777.109526	0.159660
777.303591	0.159726
777.497637	0.159847
777.691666	0.159697
777.885676	0.159852
778.079667	0.159861
778.273641	0.159895
778.467596	0.160177
778.661533	0.160291
778.855452	0.160792
779.049352	0.160870
779.243235	0.160652
779.437099	0.160820
779.630945	0.160872
779.824773	0.161055
780.018582	0.161188
780.212373	0.160958
780.406146	0.161080
780.599901	0.160674
780.793638	0.160950
780.987356	0.160961
781.181056	0.161240
781.374738	0.161109
781.568402	0.161101
781.762047	0.160940
781.955674	0.161177
782.149283	0.161120
782.342874	0.161194
782.536447	0.161003
782.730001	0.161135
782.923537	0.161078
783.117055	0.161176
783.310555	0.161047
783.504036	0.161287
783.697499	0.161177
783.890944	0.161130
784.084371	0.161030
784.277780	0.160960
784.471170	0.160915
784.664542	0.160859
784.857896	0.160764
785.051231	0.160930
785.244549	0.160693
785.437848	0.160758
785.631129	0.160751
785.824392	0.160907
786.017636	0.160848
786.210863	0.160903
786.404071	0.160920
786.597260	0.161010
786.790432	0.160967
786.983585	0.160998
787.176721	0.160936
787.369838	0.160990
787.562936	0.160983
787.756017	0.161166
787.949079	0.160959
788.142123	0.160851
788.335149	0.160868
788.528156	0.160885
788.721146	0.160919
788.914117	0.161009
789.107070	0.160949
789.300005	0.160784
789.492921	0.160660
789.685819	0.160812
789.878699	0.160815
790.071561	0.160927
790.264405	0.160858
790.457230	0.160662
790.650037	0.160548
790.842826	0.160605
791.035597	0.160816
791.228349	0.161118
791.421084	0.161051
791.613800	0.161181
791.806497	0.161267
791.999177	0.161255
792.191838	0.161616
792.384481	0.161666
792.577106	0.161641
792.769713	0.161667
792.962301	0.161349
793.154871	0.161391
793.347423	0.161393
793.539957	0.161176
793.732473	0.161182
793.924970	0.161096
794.117449	0.160964
794.309910	0.161056
794.502353	0.161184
794.694777	0.161484
794.887183	0.161590
795.079571	0.161750
795.271941	0.162072
795.464293	0.162286
795.656626	0.162517
795.848941	0.162973
796.041238	0.163188
796.233516	0.163373
796.425777	0.163628
796.618019	0.163830
796.810243	0.163948
797.002449	0.164068
797.194636	0.164196
797.386805	0.164286
797.578956	0.164228
797.771089	0.164332
797.963204	0.164238
798.155300	0.164370
798.347378	0.164616
798.539438	0.164646
798.731480	0.164630
798.923503	0.164735
799.115509	0.164883
799.307496	0.165089
799.499465	0.165406
799.691415	0.165491
799.883348	0.165355
800.075262	0.165232
800.267158	0.165387
800.459035	0.165548
800.650895	0.165618
800.842736	0.165529
801.034559	0.165663
801.226364	0.165734
801.418150	0.165882
801.609919	0.165979
801.801669	0.165865
801.993401	0.165768
802.185114	0.166101
802.376810	0.166183
802.568487	0.166218
802.760146	0.166119
802.951787	0.165752
803.143409	0.165904
803.335014	0.165855
803.526600	0.166306
803.718168	0.166269
803.909717	0.165883
804.101249	0.165821
804.292762	0.165868
804.484257	0.166160
804.675734	0.166545
804.867192	0.166597
805.058632	0.166725
805.250054	0.166833
805.441458	0.167222
805.632844	0.167515
805.824211	0.167734
806.015561	0.168128
806.206891	0.168206
806.398204	0.168301
806.589499	0.168315
806.780775	0.168450
806.972033	0.168266
807.163273	0.168358
807.354495	0.168410
807.545698	0.168712
807.736883	0.169014
807.928050	0.169187
808.119199	0.169156
808.310329	0.169534
808.501441	0.169973
808.692535	0.170287
808.883611	0.170479
809.074669	0.170753
809.265708	0.171013
809.456729	0.171029
809.647732	0.171365
809.838717	0.171990
810.029683	0.172163
810.220632	0.172283
810.411562	0.172603
810.602474	0.173028
810.793367	0.173504
810.984242	0.173782
811.175100	0.174297
811.365938	0.174260
811.556759	0.174356
811.747562	0.174548
811.938346	0.174793
812.129112	0.174986
812.319860	0.175010
812.510589	0.175035
812.701300	0.175008
812.891994	0.174756
813.082668	0.174891
813.273325	0.175178
813.463964	0.175311
813.654584	0.175404
813.845186	0.175548
814.035769	0.175727
814.226335	0.175940
814.416882	0.176363
814.607411	0.176733
814.797922	0.177258
814.988415	0.177233
815.178889	0.177342
815.369345	0.177592
815.559783	0.177770
815.750203	0.178086
815.940605	0.178210
816.130988	0.178105
816.321353	0.178252
816.511700	0.178366
816.702028	0.178724
816.892339	0.179261
817.082631	0.179383
817.272905	0.179699
817.463161	0.179772
817.653398	0.180023
817.843617	0.180232
818.033819	0.180397
818.224001	0.180546
818.414166	0.180602
818.604312	0.180320
818.794440	0.180638
818.984550	0.180750
819.174642	0.181216
819.364716	0.181373
819.554771	0.181648
819.744808	0.181787
819.934827	0.181757
820.124827	0.181890
820.314810	0.182251
820.504774	0.182431
820.694720	0.182558
820.884647	0.182531
821.074557	0.182893
821.264448	0.183051
821.454321	0.183419
821.644176	0.183652
821.834012	0.184030
822.023831	0.184267
822.213631	0.184392
822.403413	0.184487
822.593176	0.184695
822.782922	0.184616
822.972649	0.184592
823.162358	0.184630
823.352049	0.184743
823.541721	0.184699
823.731376	0.185220
823.921012	0.185331
824.110629	0.185798
824.300229	0.186204
824.489811	0.186546
824.679374	0.186973
824.868919	0.187395
825.058445	0.188014
825.247954	0.188667
825.437444	0.188584
825.626916	0.189076
825.816370	0.189526
826.005806	0.189734
826.195223	0.189955
826.384622	0.190156
826.574003	0.190419
826.763366	0.190483
826.952711	0.190493
827.142037	0.190773
827.331345	0.190806
827.520635	0.190646
827.709906	0.190661
827.899160	0.190974
828.088395	0.191272
828.277612	0.191345
828.466810	0.191413
828.655991	0.191520
828.845153	0.191900
829.034297	0.192385
829.223423	0.192819
829.412531	0.193244
829.601620	0.193430
829.790691	0.193797
829.979744	0.194038
830.168779	0.194327
830.357795	0.194737
830.546793	0.195034
830.735773	0.195349
830.924735	0.195836
831.113679	0.196058
831.302604	0.196581
831.491511	0.196859
831.680400	0.197416
831.869271	0.198014
832.058123	0.198454
832.246957	0.198783
832.435773	0.199056
832.624571	0.199242
832.813351	0.199425
833.002112	0.199515
833.190855	0.199821
833.379580	0.200083
833.568287	0.200252
833.756975	0.200339
833.945645	0.200552
834.134297	0.200829
834.322931	0.201127
834.511547	0.201366
834.700144	0.201711
834.888723	0.201754
835.077284	0.202119
835.265826	0.202480
835.454351	0.202573
835.642857	0.202685
835.831345	0.202758
836.019815	0.203023
836.208266	0.203473
836.396699	0.203770
836.585114	0.204203
836.773511	0.204118
836.961890	0.204252
837.150250	0.204770
837.338592	0.205152
837.526916	0.205606
837.715222	0.205610
837.903510	0.205844
838.091779	0.205782
838.280030	0.205975
838.468263	0.206222
838.656477	0.206619
838.844674	0.206980
839.032852	0.207269
839.221012	0.207334
839.409153	0.207934
839.597277	0.208380
839.785382	0.209009
839.973469	0.209511
840.161538	0.209908
840.349589	0.210401
840.537621	0.210685
840.725635	0.211115
840.913631	0.211343
841.101609	0.211557
841.289568	0.211674
841.477509	0.211615
841.665432	0.211623
841.853337	0.211986
842.041224	0.211869
842.229092	0.211874
842.416942	0.211737
842.604774	0.212214
842.792588	0.212437
842.980383	0.212614
843.168160	0.213048
843.355919	0.213575
843.543660	0.213712
843.731382	0.214039
843.919087	0.214399
844.106773	0.214691
844.294441	0.214720
844.482090	0.214727
844.669722	0.214889
844.857335	0.215287
845.044930	0.215574
845.232507	0.216001
845.420065	0.216202
845.607605	0.216492
845.795127	0.216975
845.982631	0.217502
846.170117	0.217951
846.357584	0.218672
846.545033	0.219009
846.732464	0.219236
846.919877	0.219432
847.107272	0.220029
847.294648	0.220688
847.482006	0.221281
847.669346	0.221643
847.856667	0.222189
848.043971	0.221997
848.231256	0.222339
848.418523	0.222509
848.605771	0.223082
848.793002	0.222929
848.980214	0.223169
849.167408	0.223142
849.354584	0.223454
849.541742	0.223683
849.728881	0.224655
849.916002	0.224941
850.103105	0.225463
850.290190	0.225884
850.477256	0.226477
850.664304	0.226758
850.851334	0.227066
851.038346	0.227313
851.225340	0.227447
851.412315	0.227334
851.599272	0.227614
851.786211	0.227648
851.973132	0.227807
852.160034	0.228280
852.346918	0.228231
852.533784	0.228449
852.720632	0.228749
852.907462	0.228908
853.094273	0.229068
853.281066	0.228817
853.467841	0.229297
853.654598	0.229267
853.841336	0.229335
854.028056	0.229676
854.214758	0.229980
854.401442	0.230108
854.588107	0.230620
854.774755	0.230782
854.961384	0.231489
855.147995	0.231635
855.334587	0.232041
855.521162	0.232207
855.707718	0.232600
855.894256	0.232888
856.080775	0.233032
856.267277	0.233155
856.453760	0.233556
856.640225	0.233750
856.826672	0.234256
857.013101	0.234323
857.199511	0.234660
857.385903	0.235170
857.572277	0.235364
857.758633	0.235655
857.944970	0.235962
858.131290	0.236137
858.317591	0.236509
858.503873	0.236491
858.690138	0.236972
858.876384	0.237306
859.062612	0.237404
859.248822	0.237576
859.435014	0.237927
859.621188	0.238138
859.807343	0.238567
859.993480	0.238966
860.179599	0.239474
860.365699	0.239687
860.551781	0.239985
860.737846	0.239892
860.923891	0.240231
861.109919	0.240423
861.295929	0.240840
861.481920	0.241013
861.667893	0.241141
861.853848	0.241078
862.039784	0.241278
862.225702	0.241164
862.411603	0.241517
862.597484	0.241574
862.783348	0.242004
862.969193	0.242031
863.155021	0.242470
863.340830	0.242770
863.526620	0.243249
863.712393	0.243590
863.898147	0.244271
864.083883	0.244721
864.269601	0.245074
864.455301	0.245333
864.640982	0.245746
864.826645	0.246088
865.012290	0.246555
865.197917	0.246845
865.383526	0.246941
865.569116	0.247264
865.754688	0.247645
865.940242	0.247939
866.125777	0.248019
866.311295	0.248369
866.496794	0.248679
866.682275	0.248484
866.867737	0.248725
867.053182	0.248810
867.238608	0.248917
867.424016	0.249009
867.609406	0.249681
867.794778	0.250281
867.980131	0.250491
868.165466	0.250574
868.350783	0.250528
868.536082	0.250750
868.721362	0.250936
868.906625	0.250798
869.091869	0.250667
869.277094	0.250578
869.462302	0.250413
869.647491	0.250517
869.832662	0.250746
870.017815	0.251292
870.202950	0.251144
870.388066	0.251408
870.573165	0.251878
870.758245	0.252180
870.943306	0.252510
871.128350	0.252836
871.313375	0.253031
871.498382	0.252744
871.683371	0.252821
871.868342	0.253259
872.053294	0.253627
872.238229	0.253625
872.423144	0.253867
872.608042	0.253889
872.792922	0.254224
872.977783	0.254297
873.162626	0.255007
873.347451	0.255260
873.532258	0.255150
873.717046	0.255180
873.901816	0.255394
874.086568	0.255478
874.271302	0.255575
874.456017	0.255486
874.640715	0.255692
874.825394	0.255570
875.010055	0.255425
875.194697	0.255659
875.379322	0.255983
875.563928	0.256357
875.748516	0.256471
875.933085	0.256631
876.117637	0.256599
876.302170	0.256414
876.486685	0.256488
876.671182	0.256715
876.855661	0.256911
877.040121	0.257242
877.224563	0.257224
877.408987	0.257167
877.593393	0.257340
877.777780	0.257562
877.962150	0.258026
878.146501	0.257918
878.330833	0.258157
878.515148	0.258369
878.699444	0.258391
878.883722	0.258232
879.067982	0.258605
879.252224	0.258549
879.436447	0.258581
879.620653	0.258628
879.804840	0.259116
879.989008	0.259385
880.173159	0.259394
880.357291	0.259273
880.541405	0.260042
880.725501	0.259943
880.909579	0.259997
881.093638	0.260055
881.277680	0.259983
881.461703	0.259980
881.645707	0.260052
881.829694	0.260050
882.013662	0.260197
882.197612	0.260070
882.381544	0.260325
882.565458	0.260549
882.749353	0.260547
882.933230	0.261179
883.117089	0.261295
883.300930	0.261279
883.484753	0.261584
883.668557	0.261573
883.852343	0.261173
884.036111	0.261066
884.219861	0.261073
884.403592	0.261094
884.587305	0.260935
884.771000	0.261047
884.954677	0.261003
885.138335	0.260669
885.321976	0.260497
885.505598	0.261048
885.689201	0.260866
885.872787	0.261125
886.056354	0.261435
886.239904	0.261327
886.423434	0.261342
886.606947	0.261784
886.790442	0.261975
886.973918	0.262152
887.157376	0.261603
887.340816	0.261708
887.524237	0.261731
887.707641	0.261748
887.891026	0.261650
888.074393	0.261972
888.257741	0.261922
888.441072	0.261802
888.624384	0.261654
888.807678	0.261695
888.990954	0.262213
889.174211	0.262310
889.357451	0.262277
889.540672	0.262386
889.723875	0.261864
889.907059	0.261576
890.090226	0.261525
890.273374	0.261724
890.456504	0.261967
890.639616	0.261961
890.822709	0.261684
891.005785	0.261804
891.188842	0.261553
891.371881	0.261578
891.554901	0.261773
891.737904	0.261894
891.920888	0.261995
892.103854	0.262004
892.286802	0.261562
892.469731	0.261014
892.652643	0.261230
892.835536	0.261423
893.018410	0.261485
893.201267	0.261415
893.384106	0.261403
893.566926	0.261095
893.749728	0.261084
893.932511	0.261252
894.115277	0.261421
894.298024	0.260798
894.480753	0.260609
894.663464	0.260428
894.846157	0.259776
895.028831	0.259866
895.211487	0.259961
895.394125	0.259661
895.576745	0.259771
895.759346	0.260076
895.941930	0.260184
896.124495	0.260276
896.307041	0.260653
896.489570	0.260930
896.672080	0.260513
896.854573	0.260180
897.037046	0.260159
897.219502	0.259724
897.401940	0.259790
897.584359	0.259587
897.766760	0.259433
897.949143	0.258726
898.131507	0.258414
898.313854	0.258152
898.496182	0.258396
898.678492	0.258261
898.860783	0.258001
899.043057	0.257367
899.225312	0.257045
899.407549	0.257031
899.589768	0.257460
899.771968	0.257778
899.954151	0.257770
900.136315	0.257621
900.318461	0.257182
900.500588	0.257197
900.682698	0.257204
900.864789	0.257142
901.046862	0.256764
901.228917	0.256018
901.410953	0.255392
901.592971	0.255279
901.774972	0.254769
901.956953	0.255238
902.138917	0.255454
902.320862	0.255183
902.502790	0.254840
902.684699	0.254506
902.866589	0.254368
903.048462	0.254436
903.230316	0.254485
903.412152	0.254546
903.593970	0.254019
903.775770	0.253158
903.957551	0.253108
904.139314	0.253390
904.321059	0.253395
904.502786	0.253342
904.684494	0.253079
904.866185	0.252800
905.047857	0.252501
905.229510	0.252172
905.411146	0.252008
905.592763	0.251983
905.774363	0.251390
905.955943	0.250633
906.137506	0.250287
906.319051	0.249528
906.500577	0.249165
906.682085	0.248791
906.863575	0.248732
907.045046	0.248968
907.226500	0.248451
907.407935	0.248098
907.589352	0.247944
907.770750	0.247547
907.952131	0.247771
908.133493	0.247458
908.314837	0.246885
908.496163	0.246167
908.677470	0.245175
908.858760	0.244694
909.040031	0.244295
909.221284	0.244245
909.402518	0.243851
909.583735	0.243102
909.764933	0.243038
909.946113	0.243117
910.127275	0.242858
910.308418	0.243120
910.489544	0.242837
910.670651	0.242959
910.851740	0.242558
911.032810	0.242421
911.213863	0.242526
911.394897	0.241941
911.575913	0.241449
911.756911	0.241234
911.937890	0.240202
912.118851	0.239671
912.299794	0.239402
912.480719	0.239419
912.661626	0.239419
912.842514	0.238467
913.023384	0.237608
913.204236	0.237737
913.385070	0.237256
913.565886	0.237544
913.746683	0.237311
913.927462	0.236677
914.108223	0.235833
914.288965	0.234726
914.469690	0.234956
914.650396	0.234560
914.831084	0.233942
915.011754	0.233843
915.192405	0.233299
915.373038	0.232623
915.553653	0.232088
915.734250	0.231834
915.914829	0.231528
916.095389	0.230771
916.275931	0.231228
916.456455	0.230731
916.636961	0.229965
916.817448	0.229762
916.997917	0.229353
917.178368	0.229134
917.358801	0.228987
917.539216	0.228458
917.719612	0.228059
917.899990	0.226894
918.080350	0.225936
918.260692	0.225702
918.441015	0.224490
918.621320	0.224161
918.801607	0.223387
918.981876	0.222876
919.162127	0.222490
919.342359	0.222072
919.522573	0.222260
919.702769	0.222301
919.882947	0.221327
920.063106	0.221215
920.243247	0.220694
920.423370	0.220177
920.603475	0.219587
920.783562	0.219157
920.963630	0.218908
921.143680	0.218130
921.323712	0.217333
921.503725	0.217490
921.683721	0.217638
921.863698	0.217791
922.043657	0.217153
922.223598	0.216829
922.403520	0.216361
922.583424	0.216129
922.763311	0.215965
922.943178	0.215501
923.123028	0.214623
923.302859	0.213627
923.482673	0.213469
923.662467	0.213237
923.842244	0.211567
924.022003	0.211274
924.201743	0.209877
924.381465	0.209018
924.561169	0.208838
924.740854	0.208509
924.920522	0.208048
925.100171	0.206903
925.279802	0.206530
925.459414	0.206627
925.639009	0.205713
925.818585	0.205448
925.998143	0.204270
926.177683	0.203404
926.357205	0.202824
926.536708	0.201587
926.716193	0.200560
926.895660	0.200074
927.075109	0.199540
927.254539	0.199441
927.433951	0.198988
927.613345	0.198747
927.792721	0.198017
927.972079	0.197532
928.151418	0.197543
928.330739	0.197136
928.510042	0.196269
928.689327	0.195746
928.868593	0.194679
929.047841	0.193808
929.227071	0.192908
929.406283	0.192711
929.585476	0.191618
929.764652	0.191064
929.943809	0.190437
930.122948	0.189120
930.302068	0.188124
930.481171	0.186884
930.660255	0.186005
930.839321	0.185423
931.018369	0.184578
931.197398	0.184895
931.376409	0.183760
931.555402	0.182729
931.734377	0.182294
931.913334	0.181735
932.092272	0.181728
932.271192	0.181308
932.450094	0.181339
932.628978	0.180827
932.807844	0.179462
932.986691	0.178355
933.165520	0.177884
933.344331	0.177711
933.523123	0.176956
933.701898	0.176717
933.880654	0.176324
934.059392	0.175718
934.238111	0.174933
934.416813	0.174689
934.595496	0.174667
934.774161	0.174094
934.952808	0.173617
935.131437	0.172857
935.310047	0.171337
935.488639	0.170519
935.667213	0.168896
935.845769	0.167383
936.024306	0.166389
936.202825	0.165781
936.381326	0.165000
936.559809	0.163775
936.738274	0.163080
936.916720	0.162448
937.095148	0.161219
937.273558	0.160659
937.451950	0.160137
937.630323	0.159488
937.808678	0.158314
937.987015	0.157364
938.165334	0.156892
938.343635	0.157043
938.521917	0.156573
938.700181	0.155727
938.878427	0.155105
939.056655	0.154436
939.234864	0.153355
939.413055	0.152602
939.591228	0.152444
939.769383	0.151046
939.947519	0.148472
940.125638	0.147309
940.303738	0.146974
940.481820	0.145694
940.659883	0.144666
940.837929	0.143903
941.015956	0.143560
941.193965	0.142685
941.371955	0.142377
941.549928	0.142082
941.727882	0.142826
941.905818	0.142197
942.083736	0.142033
942.261636	0.141451
942.439517	0.140345
942.617380	0.139049
942.795225	0.137223
942.973052	0.136513
943.150860	0.136259
943.328651	0.135462
943.506423	0.135059
943.684176	0.134717
943.861912	0.134174
944.039629	0.134925
944.217328	0.134243
944.395009	0.135339
944.572672	0.133772
944.750317	0.133528
944.927943	0.132097
945.105551	0.131218
945.283141	0.130835
945.460712	0.130451
945.638265	0.127607
945.815801	0.126742
945.993317	0.124612
946.170816	0.124851
946.348297	0.123472
946.525759	0.121863
946.703203	0.120312
946.880629	0.118422
947.058036	0.116933
947.235425	0.117243
947.412797	0.117857
947.590149	0.117682
947.767484	0.117660
947.944800	0.117530
948.122099	0.117762
948.299379	0.119044
948.476640	0.118964
948.653884	0.119575
948.831109	0.120131
949.008316	0.118166
949.185505	0.118010
949.362676	0.116075
949.539828	0.115747
949.716962	0.113822
949.894078	0.111282
950.071176	0.110954
950.248256	0.109563
950.425317	0.107468
950.602360	0.107609
950.779385	0.106999
950.956391	0.107064
951.133380	0.106108
951.310350	0.106720
951.487302	0.106383
951.664235	0.107126
951.841151	0.106896
952.018048	0.107002
952.194927	0.106168
952.371788	0.105402
952.548631	0.105082
952.725455	0.104476
952.902261	0.103278
953.079049	0.104108
953.255819	0.102679
953.432570	0.104296
953.609303	0.104022
953.786018	0.104995
953.962715	0.103880
954.139394	0.103851
954.316054	0.103554
954.492696	0.103381
954.669320	0.103566
954.845926	0.102673
955.022513	0.099445
955.199083	0.098931
955.375634	0.097862
955.552166	0.098774
955.728681	0.098724
955.905177	0.097994
956.081655	0.100040
956.258115	0.099242
956.434557	0.099994
956.610980	0.101607
956.787385	0.101817
956.963772	0.101327
957.140141	0.100550
957.316492	0.099524
957.492824	0.099068
957.669138	0.098554
957.845434	0.098551
958.021712	0.099416
958.197971	0.098684
958.374212	0.099471
958.550435	0.099991
958.726640	0.100677
958.902826	0.101746
959.078995	0.102199
959.255145	0.100380
959.431277	0.100135
959.607390	0.098068
959.783486	0.098775
959.959563	0.096840
960.135622	0.098095
960.311662	0.096418
960.487685	0.094725
960.663689	0.095120
960.839675	0.094818
961.015643	0.094611
961.191593	0.095477
961.367524	0.093707
961.543437	0.095867
961.719332	0.094912
961.895209	0.095456
962.071067	0.096063
962.246907	0.096980
962.422730	0.097987
962.598533	0.096935
962.774319	0.098667
962.950086	0.099114
963.125835	0.096299
963.301566	0.094885
963.477279	0.094636
963.652973	0.095462
963.828650	0.095302
964.004308	0.095291
964.179947	0.097327
964.355569	0.094476
964.531172	0.093550
964.706757	0.093524
964.882324	0.095599
965.057873	0.095901
965.233403	0.094720
965.408916	0.092042
965.584410	0.092138
965.759885	0.093310
965.935343	0.094977
966.110782	0.096069
966.286203	0.096487
966.461606	0.095949
966.636991	0.096720
966.812357	0.099625
966.987705	0.101776
967.163035	0.100972
967.338347	0.096565
967.513641	0.094629
967.688916	0.095127
967.864173	0.096670
968.039412	0.096107
968.214632	0.095654
968.389835	0.093552
968.565019	0.094756
968.740185	0.094764
968.915333	0.097505
969.090462	0.099009
969.265573	0.098262
969.440667	0.096830
969.615741	0.097617
969.790798	0.099266
969.965836	0.099538
970.140856	0.098366
970.315858	0.099264
970.490842	0.099540
970.665808	0.098749
970.840755	0.098696
971.015684	0.099934
971.190595	0.099608
971.365487	0.098800
971.540362	0.099401
971.715218	0.099734
971.890056	0.100451
972.064875	0.099089
972.239677	0.100317
972.414460	0.099613
972.589225	0.099299
972.763972	0.099761
972.938700	0.098616
973.113411	0.097613
973.288103	0.098228
973.462777	0.097617
973.637432	0.097661
973.812070	0.096814
973.986689	0.099264
974.161290	0.101193
974.335873	0.100454
974.510437	0.101363
974.684984	0.103369
974.859512	0.102072
975.034022	0.101800
975.208513	0.103198
975.382987	0.103272
975.557442	0.100022
975.731879	0.100202
975.906298	0.099312
976.080698	0.099616
976.255080	0.097836
976.429445	0.097127
976.603790	0.097119
976.778118	0.097453
976.952427	0.096603
977.126719	0.099669
977.300992	0.096876
977.475246	0.098414
977.649483	0.097433
977.823701	0.099421
977.997901	0.100783
978.172083	0.100801
978.346247	0.101081
978.520392	0.102044
978.694519	0.099973
978.868628	0.100770
979.042719	0.098736
979.216791	0.100255
979.390845	0.099247
979.564882	0.097972
979.738899	0.098791
979.912899	0.096020
980.086880	0.093695
980.260843	0.095309
980.434788	0.095693
980.608715	0.098042
980.782623	0.097881
980.956514	0.098000
981.130386	0.099489
981.304240	0.097129
981.478075	0.098729
981.651892	0.102057
981.825692	0.099746
981.999472	0.099349
982.173235	0.097375
982.346980	0.097439
982.520706	0.096690
982.694414	0.095549
982.868104	0.097185
983.041775	0.096252
983.215428	0.095063
983.389064	0.096192
983.562680	0.095660
983.736279	0.096993
983.909860	0.096170
984.083422	0.096396
984.256966	0.097586
984.430491	0.097158
984.603999	0.097916
984.777488	0.099825
984.950959	0.101388
985.124412	0.102073
985.297847	0.100137
985.471263	0.100200
985.644661	0.099605
985.818041	0.097752
985.991403	0.099134
986.164747	0.098377
986.338072	0.097191
986.511379	0.096530
986.684668	0.096675
986.857938	0.098188
987.031191	0.097708
987.204425	0.098214
987.377641	0.100509
987.550839	0.099076
987.724018	0.099975
987.897179	0.099135
988.070322	0.098297
988.243447	0.097675
988.416554	0.098548
988.589642	0.099435
988.762712	0.099839
988.935764	0.100774
989.108798	0.100746
989.281813	0.100566
989.454811	0.099945
989.627790	0.101131
989.800751	0.101494
989.973693	0.100947
990.146617	0.098596
990.319524	0.099820
990.492412	0.098217
990.665281	0.099958
990.838133	0.099545
991.010966	0.098873
991.183781	0.099395
991.356578	0.099107
991.529356	0.097301
991.702117	0.099799
991.874859	0.097744
992.047583	0.097014
992.220288	0.096532
992.392976	0.097158
992.565645	0.098604
992.738296	0.096562
992.910929	0.095965
993.083543	0.096934
993.256139	0.096447
993.428718	0.097163
993.601277	0.099622
993.773819	0.100338
993.946342	0.098666
994.118848	0.097192
994.291335	0.097982
994.463803	0.098242
994.636254	0.096794
994.808686	0.094894
994.981100	0.094409
995.153496	0.091285
995.325874	0.091386
995.498233	0.093983
995.670574	0.094657
995.842897	0.095128
996.015202	0.095008
996.187488	0.097596
996.359757	0.099803
996.532007	0.098956
996.704239	0.100010
996.876452	0.098388
997.048648	0.096590
997.220825	0.096459
997.392984	0.094913
997.565124	0.094422
997.737247	0.094566
997.909351	0.093267
998.081437	0.094806
998.253505	0.094753
998.425554	0.095204
998.597586	0.095688
998.769599	0.096502
998.941594	0.096516
999.113571	0.097494
999.285529	0.096035
999.457469	0.096890
999.629391	0.096500
999.801295	0.095361
999.973181	0.095569
1000.145048	0.095853
1000.316897	0.094580
1000.488728	0.094878
1000.660541	0.095091
1000.832335	0.095910
1001.004111	0.095906
1001.175869	0.095383
1001.347609	0.095707
1001.519331	0.095181
1001.691034	0.095671
1001.862719	0.098645
1002.034386	0.099737
1002.206035	0.098127
1002.377665	0.096149
1002.549277	0.095431
1002.720871	0.096876
1002.892447	0.097158
1003.064004	0.097588
1003.235544	0.098292
1003.407065	0.097154
1003.578568	0.096092
1003.750052	0.097023
1003.921519	0.098529
1004.092967	0.099377
1004.264397	0.098359
1004.435809	0.099201
1004.607202	0.097867
1004.778577	0.095687
1004.949934	0.095863
1005.121273	0.097103
1005.292594	0.098381
1005.463896	0.099816
1005.635180	0.100206
1005.806446	0.100128
1005.977694	0.100165
1006.148923	0.099943
1006.320135	0.100041
1006.491328	0.099985
1006.662503	0.098414
1006.833659	0.097694
1007.004798	0.097605
1007.175918	0.096789
1007.347020	0.097193
1007.518103	0.096803
1007.689169	0.097129
1007.860216	0.096374
1008.031245	0.096211
1008.202256	0.098164
1008.373248	0.096491
1008.544223	0.095815
1008.715179	0.096083
1008.886117	0.094991
1009.057036	0.093631
1009.227938	0.094595
1009.398821	0.095484
1009.569686	0.095237
1009.740533	0.093895
1009.911361	0.095045
1010.082172	0.094257
1010.252964	0.093878
1010.423738	0.094394
1010.594493	0.095507
1010.765231	0.095551
1010.935950	0.095341
1011.106651	0.094049
1011.277334	0.095147
1011.447998	0.095387
1011.618645	0.096364
1011.789273	0.096352
1011.959882	0.097832
1012.130474	0.097870
1012.301048	0.097079
1012.471603	0.097451
1012.642140	0.099241
1012.812658	0.098301
1012.983159	0.097737
1013.153641	0.098079
1013.324105	0.098267
1013.494551	0.097142
1013.664979	0.096904
1013.835388	0.097070
1014.005779	0.097687
1014.176152	0.097041
1014.346507	0.099263
1014.516843	0.099523
1014.687162	0.097352
1014.857462	0.097974
1015.027744	0.098946
1015.198007	0.100902
1015.368252	0.101643
1015.538480	0.103357
1015.708689	0.100530
1015.878879	0.098353
1016.049052	0.098957
1016.219206	0.099446
1016.389342	0.098424
1016.559460	0.095407
1016.729559	0.093154
1016.899641	0.092588
1017.069704	0.089716
1017.239749	0.092536
1017.409775	0.092647
1017.579784	0.092624
1017.749774	0.091584
1017.919746	0.090563
1018.089700	0.091668
1018.259635	0.093023
1018.429553	0.093424
1018.599452	0.094026
1018.769333	0.092515
1018.939195	0.092344
1019.109040	0.091448
1019.278866	0.092439
1019.448674	0.093681
1019.618464	0.094246
1019.788235	0.092905
1019.957989	0.092142
1020.127724	0.092784
1020.297441	0.093336
1020.467139	0.093860
1020.636820	0.095227
1020.806482	0.095626
1020.976126	0.095433
1021.145752	0.096349
1021.315359	0.096394
1021.484948	0.096227
1021.654519	0.094139
1021.824072	0.094112
1021.993607	0.093310
1022.163123	0.092838
1022.332621	0.093351
1022.502101	0.094051
1022.671563	0.092159
1022.841007	0.092584
1023.010432	0.094151
1023.179839	0.095468
1023.349228	0.095737
1023.518598	0.095504
1023.687951	0.095749
1023.857285	0.095866
1024.026601	0.095881
1024.195899	0.097471
1024.365178	0.097151
1024.534439	0.096125
1024.703682	0.095500
1024.872907	0.095353
1025.042114	0.094992
1025.211302	0.092370
1025.380472	0.090683
1025.549624	0.090375
1025.718758	0.089360
1025.887873	0.088620
1026.056970	0.087807
1026.226049	0.089204
1026.395110	0.088885
1026.564153	0.089068
1026.733177	0.091014
1026.902183	0.093373
1027.071171	0.093795
1027.240141	0.093304
1027.409092	0.094351
1027.578026	0.094620
1027.746940	0.093910
1027.915837	0.093663
1028.084716	0.093904
1028.253576	0.092762
1028.422418	0.091009
1028.591242	0.090655
1028.760048	0.091697
1028.928835	0.092043
1029.097604	0.091751
1029.266355	0.093308
1029.435088	0.094623
1029.603803	0.095545
1029.772499	0.095750
1029.941177	0.095368
1030.109837	0.095041
1030.278478	0.094273
1030.447102	0.094420
1030.615707	0.095190
1030.784294	0.093551
1030.952863	0.093191
1031.121413	0.092206
1031.289945	0.092119
1031.458460	0.092635
1031.626955	0.094539
1031.795433	0.094493
1031.963892	0.094637
1032.132334	0.093930
1032.300756	0.093963
1032.469161	0.092510
1032.637548	0.093192
1032.805916	0.093022
1032.974266	0.093804
1033.142598	0.091262
1033.310911	0.091753
1033.479207	0.090744
1033.647484	0.090351
1033.815743	0.090449
1033.983983	0.091321
1034.152206	0.090534
1034.320410	0.092729
1034.488596	0.092067
1034.656764	0.092758
1034.824914	0.092320
1034.993045	0.091202
1035.161158	0.092378
1035.329253	0.091594
1035.497330	0.092502
1035.665388	0.091142
1035.833428	0.089465
1036.001450	0.088309
1036.169454	0.089375
1036.337440	0.091242
1036.505407	0.093080
1036.673356	0.092119
1036.841287	0.093883
1037.009200	0.092590
1037.177094	0.093598
1037.344970	0.094932
1037.512828	0.095449
1037.680668	0.094675
1037.848489	0.091362
1038.016293	0.091323
1038.184078	0.090131
1038.351845	0.088931
1038.519593	0.089298
1038.687324	0.089371
1038.855036	0.088787
1039.022730	0.089990
1039.190406	0.090239
1039.358063	0.090776
1039.525702	0.090239
1039.693323	0.091171
1039.860926	0.092363
1040.028511	0.093670
1040.196077	0.093947
1040.363625	0.093631
1040.531155	0.094871
1040.698667	0.093960
1040.866161	0.096018
1041.033636	0.096030
1041.201093	0.096859
1041.368532	0.095321
1041.535952	0.094593
1041.703355	0.092370
1041.870739	0.091437
1042.038105	0.088487
1042.205452	0.089523
1042.372782	0.089232
1042.540093	0.088650
1042.707386	0.088104
1042.874661	0.087771
1043.041918	0.087671
1043.209156	0.089446
1043.376376	0.089205
1043.543578	0.090287
1043.710762	0.088421
1043.877927	0.087880
1044.045074	0.088095
1044.212203	0.089297
1044.379314	0.089273
1044.546407	0.087752
1044.713481	0.088684
1044.880537	0.088770
1045.047575	0.086160
1045.214595	0.087211
1045.381596	0.087254
1045.548579	0.086919
1045.715544	0.085630
1045.882491	0.087154
1046.049420	0.087582
1046.216330	0.087001
1046.383222	0.087085
1046.550096	0.089179
1046.716951	0.088670
1046.883789	0.090001
1047.050608	0.090290
1047.217409	0.091723
1047.384192	0.090432
1047.550956	0.090243
1047.717703	0.090350
1047.884431	0.090803
1048.051140	0.092946
1048.217832	0.092718
1048.384505	0.091597
1048.551161	0.093663
1048.717798	0.092244
1048.884416	0.092761
1049.051017	0.094781
1049.217599	0.096364
1049.384163	0.096526
1049.550709	0.094896
1049.717237	0.095874
1049.883746	0.095953
1050.050237	0.096275
1050.216710	0.096927
1050.383165	0.096972
1050.549601	0.096717
1050.716019	0.096334
1050.882420	0.095233
1051.048801	0.092548
1051.215165	0.091052
1051.381510	0.091323
1051.547837	0.087387
1051.714146	0.088585
1051.880437	0.089382
1052.046709	0.088374
1052.212964	0.087968
1052.379200	0.089678
1052.545417	0.091066
1052.711617	0.092342
1052.877798	0.091445
1053.043961	0.093252
1053.210106	0.091882
1053.376233	0.090481
1053.542341	0.091263
1053.708432	0.088856
1053.874504	0.086437
1054.040557	0.087281
1054.206593	0.084734
1054.372610	0.084634
1054.538609	0.084711
1054.704590	0.083954
1054.870553	0.082771
1055.036497	0.082273
1055.202424	0.083823
1055.368331	0.085939
1055.534221	0.087204
1055.700093	0.089990
1055.865946	0.091163
1056.031781	0.090805
1056.197598	0.091130
1056.363397	0.093077
1056.529177	0.093250
1056.694939	0.092260
1056.860683	0.092737
1057.026409	0.093034
1057.192116	0.092210
1057.357806	0.092001
1057.523477	0.090832
1057.689130	0.090076
1057.854764	0.091296
1058.020381	0.091662
1058.185979	0.092136
1058.351559	0.091665
1058.517120	0.091273
1058.682664	0.092105
1058.848189	0.091538
1059.013696	0.092957
1059.179185	0.094716
1059.344656	0.092543
1059.510108	0.092345
1059.675542	0.093005
1059.840958	0.092987
1060.006356	0.092251
1060.171735	0.093086
1060.337096	0.093057
1060.502439	0.091511
1060.667764	0.091845
1060.833071	0.093030
1060.998359	0.091471
1061.163629	0.090449
1061.328881	0.091876
1061.494115	0.089639
1061.659330	0.086982
1061.824527	0.086230
1061.989706	0.087326
1062.154867	0.086459
1062.320010	0.085017
1062.485134	0.085537
1062.650240	0.087014
1062.815328	0.085713
1062.980398	0.087832
1063.145449	0.087914
1063.310482	0.087711
1063.475497	0.088473
1063.640494	0.088408
1063.805473	0.089301
1063.970433	0.089113
1064.135375	0.090600
1064.300299	0.089813
1064.465204	0.089475
1064.630092	0.090445
1064.794961	0.091348
1064.959812	0.091678
1065.124645	0.091759
1065.289459	0.090834
1065.454256	0.091285
1065.619034	0.089980
1065.783793	0.089522
1065.948535	0.089709
1066.113258	0.090997
1066.277964	0.091234
1066.442651	0.090107
1066.607319	0.087090
1066.771970	0.086782
1066.936602	0.086987
1067.101216	0.086113
1067.265812	0.086219
1067.430389	0.085776
1067.594949	0.084453
1067.759490	0.083774
1067.924013	0.084686
1068.088518	0.087641
1068.253004	0.087649
1068.417472	0.088056
1068.581922	0.087163
1068.746354	0.087840
1068.910768	0.087839
1069.075163	0.086664
1069.239540	0.087118
1069.403899	0.086590
1069.568240	0.086332
1069.732562	0.085996
1069.896866	0.085184
1070.061152	0.087424
1070.225420	0.085788
1070.389670	0.086783
1070.553901	0.089970
1070.718114	0.089940
1070.882309	0.092149
1071.046486	0.092063
1071.210644	0.093723
1071.374784	0.093240
1071.538906	0.091447
1071.703010	0.092261
1071.867096	0.092513
1072.031163	0.088604
1072.195212	0.086977
1072.359243	0.084703
1072.523256	0.084975
1072.687250	0.085889
1072.851226	0.087127
1073.015184	0.088611
1073.179124	0.087910
1073.343045	0.085959
1073.506949	0.087957
1073.670834	0.090620
1073.834701	0.091275
1073.998549	0.090632
1074.162380	0.088175
1074.326192	0.088737
1074.489986	0.088200
1074.653761	0.089686
1074.817519	0.091240
1074.981258	0.090896
1075.144979	0.089775
1075.308682	0.089525
1075.472367	0.090802
1075.636033	0.091112
1075.799681	0.089234
1075.963311	0.089211
1076.126923	0.089456
1076.290516	0.088966
1076.454092	0.087931
1076.617649	0.088889
1076.781187	0.089095
1076.944708	0.089451
1077.108210	0.090701
1077.271695	0.092115
1077.435160	0.091114
1077.598608	0.091676
1077.762038	0.092284
1077.925449	0.094537
1078.088842	0.093339
1078.252217	0.092207
1078.415573	0.090060
1078.578912	0.089361
1078.742232	0.087243
1078.905534	0.088153
1079.068817	0.086052
1079.232083	0.085383
1079.395330	0.085602
1079.558559	0.087982
1079.721770	0.089413
1079.884962	0.090937
1080.048136	0.092217
1080.211293	0.093017
1080.374430	0.093354
1080.537550	0.095416
1080.700651	0.092519
1080.863735	0.092634
1081.026800	0.090068
1081.189846	0.088865
1081.352875	0.087863
1081.515885	0.087465
1081.678877	0.087648
1081.841851	0.085193
1082.004807	0.084152
1082.167744	0.085874
1082.330663	0.084484
1082.493564	0.084177
1082.656447	0.082748
1082.819312	0.081940
1082.982158	0.081668
1083.144986	0.081649
1083.307796	0.083125
1083.470587	0.084811
1083.633361	0.086283
1083.796116	0.088447
1083.958853	0.088901
1084.121571	0.089198
1084.284272	0.089787
1084.446954	0.087876
1084.609618	0.089214
1084.772264	0.089016
1084.934892	0.088296
1085.097501	0.087221
1085.260092	0.084509
1085.422665	0.084161
1085.585220	0.085973
1085.747756	0.085392
1085.910274	0.086974
1086.072774	0.087845
1086.235256	0.088886
1086.397720	0.088786
1086.560165	0.089667
1086.722592	0.090628
1086.885001	0.090247
1087.047392	0.091299
1087.209764	0.092323
1087.372119	0.092466
1087.534455	0.091457
1087.696772	0.091740
1087.859072	0.091430
1088.021353	0.090156
1088.183616	0.089105
1088.345861	0.090471
1088.508088	0.088169
1088.670296	0.085350
1088.832486	0.085675
1088.994658	0.086987
1089.156812	0.086922
1089.318948	0.087666
1089.481065	0.086432
1089.643164	0.088169
1089.805245	0.089146
1089.967308	0.091578
1090.129352	0.094288
1090.291378	0.090071
1090.453386	0.086584
1090.615376	0.084200
1090.777347	0.082272
1090.939301	0.086790
1091.101236	0.084610
1091.263153	0.083546
1091.425051	0.081806
1091.586932	0.082283
1091.748794	0.083117
1091.910638	0.084142
1092.072463	0.087181
1092.234271	0.089789
1092.396060	0.087847
1092.557831	0.089262
1092.719584	0.086918
1092.881319	0.088879
1093.043035	0.088206
1093.204733	0.090064
1093.366413	0.090813
1093.528075	0.089120
1093.689718	0.088588
1093.851343	0.087807
1094.012950	0.088675
1094.174539	0.090237
1094.336110	0.089417
1094.497662	0.092730
1094.659196	0.092616
1094.820712	0.090194
1094.982210	0.090152
1095.143689	0.090262
1095.305151	0.090421
1095.466594	0.089797
1095.628018	0.089133
1095.789425	0.088858
1095.950813	0.085168
1096.112183	0.086487
1096.273535	0.088515
1096.434869	0.087886
1096.596184	0.088335
1096.757482	0.088196
1096.918761	0.088625
1097.080021	0.088567
1097.241264	0.088277
1097.402488	0.088961
1097.563694	0.088451
1097.724882	0.087191
1097.886052	0.085395
1098.047203	0.082468
1098.208336	0.083503
1098.369451	0.084027
1098.530548	0.083767
1098.691627	0.083491
1098.852687	0.086068
1099.013729	0.086903
1099.174753	0.088156
1099.335758	0.090204
1099.496746	0.093346
1099.657715	0.094504
1099.818666	0.093231
1099.979599	0.093226
1100.140513	0.094352
1100.301409	0.092789
1100.462287	0.092853
1100.623147	0.093503
1100.783989	0.093322
1100.944812	0.092471
1101.105617	0.091063
1101.266404	0.090203
1101.427173	0.088639
1101.587923	0.086414
1101.748656	0.083387
1101.909370	0.084268
1102.070066	0.082321
1102.230743	0.083835
1102.391403	0.080405
1102.552044	0.079647
1102.712667	0.079845
1102.873271	0.083114
1103.033858	0.083617
1103.194426	0.086975
1103.354976	0.086700
1103.515508	0.090574
1103.676021	0.088486
1103.836517	0.088451
1103.996994	0.088766
1104.157453	0.090472
1104.317893	0.088179
1104.478316	0.090231
1104.638720	0.090048
1104.799106	0.089006
1104.959474	0.083902
1105.119823	0.086829
1105.280155	0.086896
1105.440468	0.084761
1105.600763	0.083201
1105.761039	0.083890
1105.921298	0.082624
1106.081538	0.080068
1106.241760	0.081015
1106.401964	0.082048
1106.562149	0.079222
1106.722316	0.078143
1106.882465	0.079496
1107.042596	0.080005
1107.202709	0.078546
1107.362803	0.076540
1107.522879	0.078928
1107.682937	0.078655
1107.842977	0.079445
1108.002999	0.079269
1108.163002	0.084267
1108.322987	0.083095
1108.482954	0.082176
1108.642902	0.083335
1108.802833	0.086248
1108.962745	0.084980
1109.122639	0.083585
1109.282515	0.083446
1109.442372	0.086160
1109.602211	0.084693
1109.762032	0.087550
1109.921835	0.091277
1110.081620	0.092673
1110.241386	0.090602
1110.401134	0.089045
1110.560864	0.088064
1110.720576	0.088715
1110.880269	0.091138
1111.039945	0.093005
1111.199602	0.091607
1111.359240	0.085869
1111.518861	0.083923
1111.678463	0.083293
1111.838047	0.085181
1111.997613	0.081351
1112.157161	0.081484
1112.316690	0.078819
1112.476202	0.075468
1112.635695	0.074783
1112.795169	0.076652
1112.954626	0.078784
1113.114064	0.081101
1113.273484	0.082865
1113.432886	0.087116
1113.592270	0.088632
1113.751635	0.083881
1113.910983	0.083391
1114.070312	0.080439
1114.229622	0.079103
1114.388915	0.073749
1114.548189	0.071604
1114.707445	0.065439
1114.866683	0.068455
1115.025903	0.064672
1115.185104	0.064887
1115.344287	0.064268
1115.503452	0.067198
1115.662599	0.072896
1115.821727	0.076578
1115.980838	0.073486
1116.139930	0.080224
1116.299004	0.081503
1116.458059	0.086250
1116.617097	0.090747
1116.776116	0.091918
1116.935117	0.089211
1117.094099	0.078801
1117.253064	0.082404
1117.412010	0.085790
1117.570938	0.082930
1117.729848	0.077190
1117.888740	0.070634
1118.047613	0.068769
1118.206468	0.068466
1118.365305	0.069780
1118.524124	0.077539
1118.682924	0.073632
1118.841707	0.068554
1119.000471	0.071607
1119.159216	0.073675
1119.317944	0.076012
1119.476653	0.077796
1119.635344	0.076650
1119.794017	0.076051
1119.952672	0.074430
1120.111308	0.074190
1120.269927	0.077828
1120.428527	0.076178
1120.587108	0.075632
1120.745672	0.078356
1120.904217	0.073816
1121.062744	0.074444
1121.221253	0.076902
1121.379744	0.074947
1121.538216	0.079125
1121.696671	0.083851
1121.855107	0.085687
1122.013524	0.083724
1122.171924	0.081489
1122.330305	0.083991
1122.488668	0.086382
1122.647013	0.086555
1122.805340	0.084019
1122.963648	0.080340
1123.121938	0.073438
1123.280210	0.069980
1123.438464	0.073600
1123.596700	0.074645
1123.754917	0.074741
1123.913116	0.073706
1124.071297	0.073201
1124.229459	0.076204
1124.387604	0.077932
1124.545730	0.081677
1124.703838	0.081542
1124.861928	0.082084
1125.019999	0.080606
1125.178052	0.076938
1125.336088	0.081822
1125.494104	0.079256
1125.652103	0.079236
1125.810083	0.079319
1125.968045	0.079677
1126.125989	0.078616
1126.283915	0.075305
1126.441823	0.071747
1126.599712	0.076114
1126.757583	0.075209
1126.915436	0.076636
1127.073270	0.075711
1127.231087	0.069190
1127.388885	0.070954
1127.546665	0.074512
1127.704426	0.075506
1127.862170	0.078022
1128.019895	0.078952
1128.177602	0.074426
1128.335291	0.075911
1128.492961	0.080172
1128.650614	0.086703
1128.808248	0.084779
1128.965864	0.078829
1129.123461	0.075126
1129.281041	0.079611
1129.438602	0.079506
1129.596145	0.081322
1129.753670	0.084319
1129.911176	0.081361
1130.068665	0.079267
1130.226135	0.084809
1130.383587	0.087373
1130.541020	0.091364
1130.698436	0.091030
1130.855833	0.093319
1131.013212	0.091566
1131.170573	0.086688
1131.327915	0.085887
1131.485239	0.089192
1131.642545	0.086016
1131.799833	0.081765
1131.957103	0.082107
1132.114354	0.080769
1132.271588	0.076477
1132.428803	0.074218
1132.585999	0.076088
1132.743178	0.079294
1132.900338	0.077568
1133.057480	0.074211
1133.214604	0.079210
1133.371710	0.076667
1133.528797	0.076167
1133.685866	0.077725
1133.842917	0.079914
1133.999950	0.084186
1134.156964	0.084443
1134.313960	0.081110
1134.470938	0.078731
1134.627898	0.078117
1134.784840	0.072433
1134.941763	0.071247
1135.098668	0.068689
1135.255555	0.065854
1135.412424	0.060687
1135.569274	0.060735
1135.726107	0.063404
1135.882921	0.063695
1136.039716	0.066274
1136.196494	0.070411
1136.353253	0.070489
1136.509995	0.074470
1136.666717	0.077130
1136.823422	0.079923
1136.980109	0.074284
1137.136777	0.073442
1137.293427	0.073308
1137.450059	0.066936
1137.606672	0.071304
1137.763267	0.070317
1137.919844	0.065079
1138.076403	0.066455
1138.232944	0.064592
1138.389466	0.063628
1138.545971	0.064916
1138.702457	0.064000
1138.858924	0.066051
1139.015374	0.066739
1139.171805	0.069341
1139.328218	0.072349
1139.484613	0.070932
1139.640990	0.072377
1139.797348	0.072696
1139.953688	0.072915
1140.110010	0.078440
1140.266314	0.083757
1140.422600	0.086002
1140.578867	0.079959
1140.735116	0.081948
1140.891347	0.084474
1141.047559	0.080730
1141.203754	0.083560
1141.359930	0.081936
1141.516088	0.079549
1141.672228	0.077704
1141.828349	0.072645
1141.984452	0.074714
1142.140537	0.074854
1142.296604	0.067871
1142.452653	0.069899
1142.608683	0.068079
1142.764695	0.067769
1142.920689	0.068397
1143.076665	0.069237
1143.232622	0.076673
1143.388562	0.081201
1143.544483	0.081191
1143.700385	0.085156
1143.856270	0.085846
1144.012136	0.091155
1144.167985	0.091354
1144.323814	0.088166
1144.479626	0.088832
1144.635420	0.080602
1144.791195	0.079244
1144.946952	0.074570
1145.102691	0.075715
1145.258411	0.072392
1145.414113	0.070624
1145.569798	0.076558
1145.725463	0.083731
1145.881111	0.082500
1146.036741	0.079161
1146.192352	0.078017
1146.347945	0.078818
1146.503519	0.076832
1146.659076	0.076585
1146.814614	0.069230
1146.970134	0.066016
1147.125636	0.061777
1147.281120	0.057796
1147.436585	0.060062
1147.592032	0.060257
1147.747461	0.064485
1147.902872	0.066667
1148.058265	0.060613
1148.213639	0.065882
1148.368995	0.061964
1148.524333	0.061164
1148.679653	0.058526
1148.834954	0.061318
1148.990237	0.066979
1149.145502	0.063348
1149.300749	0.061681
1149.455977	0.068675
1149.611188	0.065330
1149.766380	0.064029
1149.921553	0.069677
1150.076709	0.068787
1150.231846	0.070894
1150.386966	0.066812
1150.542066	0.069258
1150.697149	0.068096
1150.852214	0.071035
1151.007260	0.078601
1151.162288	0.082402
1151.317298	0.077275
1151.472289	0.082334
1151.627263	0.077567
1151.782218	0.069191
1151.937155	0.065356
1152.092073	0.068286
1152.246974	0.064490
1152.401856	0.056123
1152.556720	0.052641
1152.711566	0.054703
1152.866393	0.050912
1153.021203	0.055886
1153.175994	0.064666
1153.330767	0.067194
1153.485521	0.066796
1153.640258	0.068650
1153.794976	0.074900
1153.949676	0.073206
1154.104358	0.067550
1154.259021	0.074442
1154.413667	0.068218
1154.568294	0.063256
1154.722903	0.063175
1154.877493	0.065939
1155.032066	0.064718
1155.186620	0.068527
1155.341156	0.073656
1155.495674	0.075180
1155.650173	0.075154
1155.804654	0.080888
1155.959118	0.082306
1156.113562	0.085093
1156.267989	0.078479
1156.422397	0.082464
1156.576788	0.079684
1156.731160	0.077649
1156.885513	0.077915
1157.039849	0.075780
1157.194166	0.074583
1157.348465	0.076439
1157.502746	0.075534
1157.657009	0.077647
1157.811253	0.074655
1157.965479	0.066541
1158.119687	0.067035
1158.273877	0.065551
1158.428048	0.063250
1158.582201	0.056323
1158.736337	0.058726
1158.890453	0.056105
1159.044552	0.053942
1159.198632	0.049395
1159.352694	0.057246
1159.506738	0.059454
1159.660764	0.063491
1159.814771	0.065487
1159.968761	0.069719
1160.122732	0.070023
1160.276685	0.070468
1160.430619	0.074754
1160.584535	0.079488
1160.738434	0.077403
1160.892313	0.074352
1161.046175	0.070948
1161.200019	0.066982
1161.353844	0.069178
1161.507651	0.058913
1161.661440	0.061929
1161.815210	0.057854
1161.968962	0.053948
1162.122697	0.056024
1162.276412	0.060505
1162.430110	0.060494
1162.583789	0.057043
1162.737451	0.053779
1162.891094	0.062357
1163.044718	0.062374
1163.198325	0.066441
1163.351913	0.068464
1163.505483	0.061533
1163.659035	0.057603
1163.812569	0.059908
1163.966084	0.072415
1164.119581	0.071485
1164.273060	0.067885
1164.426521	0.059312
1164.579964	0.057982
1164.733388	0.053322
1164.886794	0.055569
1165.040182	0.046092
1165.193551	0.046439
1165.346903	0.043877
1165.500236	0.040435
1165.653551	0.037752
1165.806848	0.034371
1165.960126	0.030736
1166.113386	0.033544
1166.266628	0.035407
1166.419852	0.046203
1166.573058	0.050970
1166.726245	0.040803
1166.879414	0.048143
1167.032565	0.047433
1167.185698	0.049944
1167.338812	0.043797
1167.491909	0.051030
1167.644987	0.056329
1167.798046	0.051816
1167.951088	0.047468
1168.104111	0.045735
1168.257117	0.042587
1168.410103	0.038543
1168.563072	0.038725
1168.716023	0.050561
1168.868955	0.046149
1169.021869	0.041603
1169.174765	0.047150
1169.327642	0.046203
1169.480501	0.055597
1169.633343	0.054317
1169.786165	0.061194
1169.938970	0.060158
1170.091757	0.058328
1170.244525	0.060807
1170.397275	0.057533
1170.550007	0.053076
1170.702720	0.050696
1170.855415	0.047132
1171.008092	0.050177
1171.160751	0.053626
1171.313392	0.061118
1171.466014	0.030013
1171.618619	0.072210
1171.771205	0.072210
1171.923772	0.072210
