sample name	sample
index	1051
start time	 04-19-2021  02:38:06 PM


Wavelength (nm)	Absorbance
494.344910	-0.053340
494.563924	-0.053340
494.782919	-0.053340
495.001897	0.002740
495.220856	0.061588
495.439797	0.039624
495.658719	-0.004955
495.877624	0.004630
496.096510	0.002984
496.315378	0.003204
496.534227	-0.017342
496.753059	-0.058505
496.971872	-0.066262
497.190667	0.116050
497.409444	0.161254
497.628203	0.174019
497.846943	0.177980
498.065665	0.179118
498.284369	0.181869
498.503055	0.182485
498.721723	0.182707
498.940372	0.182713
499.159003	0.180762
499.377616	0.179784
499.596210	0.179777
499.814787	0.179250
500.033345	0.179465
500.251885	0.178301
500.470406	0.177676
500.688910	0.177917
500.907395	0.179126
501.125862	0.181331
501.344311	0.181027
501.562742	0.180999
501.781154	0.180315
501.999548	0.180108
502.217924	0.180846
502.436282	0.181301
502.654621	0.181308
502.872942	0.180262
503.091245	0.180194
503.309530	0.181015
503.527797	0.180012
503.746045	0.179998
503.964275	0.179882
504.182487	0.180731
504.400681	0.180276
504.618856	0.182380
504.837013	0.182719
505.055152	0.182334
505.273273	0.182831
505.491376	0.184416
505.709460	0.185693
505.927526	0.186095
506.145574	0.184833
506.363604	0.186651
506.581615	0.186296
506.799608	0.186094
507.017583	0.186396
507.235540	0.186049
507.453478	0.187290
507.671399	0.187346
507.889301	0.187756
508.107185	0.188272
508.325050	0.186871
508.542898	0.186500
508.760727	0.187624
508.978538	0.187797
509.196330	0.188549
509.414105	0.188272
509.631861	0.188268
509.849599	0.188545
510.067319	0.188327
510.285021	0.189644
510.502704	0.189516
510.720369	0.189519
510.938016	0.190408
511.155645	0.190177
511.373255	0.189562
511.590848	0.189903
511.808422	0.190427
512.025977	0.191713
512.243515	0.191507
512.461034	0.192425
512.678536	0.193292
512.896018	0.193286
513.113483	0.193630
513.330930	0.192490
513.548358	0.193849
513.765768	0.194179
513.983160	0.193383
514.200533	0.193794
514.417889	0.193603
514.635226	0.193736
514.852545	0.192966
515.069845	0.192983
515.287128	0.193958
515.504392	0.192700
515.721638	0.192472
515.938866	0.192827
516.156075	0.193501
516.373267	0.193756
516.590440	0.193814
516.807594	0.194327
517.024731	0.194448
517.241850	0.194905
517.458950	0.195673
517.676032	0.196658
517.893095	0.197186
518.110141	0.196182
518.327168	0.196402
518.544177	0.195631
518.761168	0.195927
518.978141	0.196734
519.195095	0.197557
519.412031	0.197732
519.628949	0.197407
519.845849	0.197811
520.062731	0.198787
520.279594	0.199179
520.496439	0.199742
520.713266	0.200484
520.930074	0.201112
521.146865	0.200569
521.363637	0.200219
521.580391	0.200388
521.797127	0.200929
522.013844	0.201303
522.230543	0.201651
522.447224	0.201890
522.663887	0.202622
522.880532	0.201954
523.097158	0.202575
523.313766	0.203779
523.530356	0.203862
523.746928	0.203833
523.963481	0.203809
524.180017	0.203750
524.396534	0.204986
524.613032	0.205299
524.829513	0.206266
525.045975	0.206877
525.262420	0.206881
525.478845	0.207208
525.695253	0.207159
525.911643	0.207800
526.128014	0.209048
526.344367	0.209138
526.560702	0.209941
526.777018	0.209410
526.993316	0.209708
527.209597	0.209660
527.425858	0.210327
527.642102	0.211104
527.858328	0.211775
528.074535	0.211324
528.290724	0.211126
528.506894	0.210893
528.723047	0.212145
528.939181	0.212456
529.155297	0.213174
529.371395	0.213157
529.587475	0.213630
529.803536	0.213352
530.019579	0.213714
530.235604	0.214091
530.451611	0.214466
530.667600	0.214186
530.883570	0.214969
531.099522	0.215305
531.315456	0.215784
531.531372	0.216193
531.747269	0.216072
531.963148	0.216229
532.179009	0.216867
532.394852	0.216939
532.610676	0.217593
532.826482	0.217586
533.042271	0.217807
533.258040	0.218373
533.473792	0.218581
533.689525	0.218566
533.905240	0.219045
534.120937	0.219306
534.336616	0.219768
534.552277	0.219890
534.767919	0.219916
534.983543	0.220313
535.199149	0.220723
535.414736	0.221015
535.630306	0.222095
535.845857	0.222625
536.061390	0.222920
536.276904	0.223431
536.492401	0.223456
536.707879	0.223509
536.923339	0.223781
537.138781	0.223593
537.354204	0.223683
537.569610	0.224187
537.784997	0.224114
538.000366	0.224395
538.215716	0.224452
538.431049	0.224668
538.646363	0.225440
538.861659	0.224772
539.076937	0.224992
539.292196	0.225362
539.507438	0.225286
539.722661	0.225326
539.937866	0.225199
540.153052	0.225301
540.368221	0.225787
540.583371	0.225866
540.798503	0.227287
541.013617	0.228408
541.228712	0.229112
541.443789	0.229259
541.658848	0.229550
541.873889	0.230250
542.088912	0.231082
542.303916	0.230633
542.518902	0.231209
542.733870	0.231514
542.948820	0.231489
543.163752	0.231816
543.378665	0.232289
543.593560	0.232887
543.808437	0.232837
544.023295	0.233147
544.238136	0.234142
544.452958	0.234505
544.667762	0.234471
544.882548	0.234374
545.097315	0.233807
545.312064	0.234289
545.526795	0.234572
545.741508	0.235392
545.956203	0.235143
546.170879	0.235601
546.385537	0.234920
546.600177	0.235425
546.814799	0.235961
547.029402	0.236627
547.243988	0.236547
547.458555	0.237053
547.673103	0.237047
547.887634	0.237428
548.102146	0.237718
548.316640	0.239004
548.531116	0.239403
548.745574	0.239808
548.960013	0.240262
549.174435	0.240809
549.388838	0.241092
549.603222	0.240964
549.817589	0.241270
550.031937	0.241583
550.246267	0.241886
550.460579	0.242125
550.674873	0.242650
550.889148	0.242932
551.103405	0.242807
551.317644	0.243315
551.531865	0.244096
551.746068	0.244323
551.960252	0.244588
552.174418	0.244257
552.388566	0.244559
552.602696	0.244243
552.816807	0.244446
553.030900	0.245451
553.244975	0.245346
553.459032	0.245938
553.673070	0.246061
553.887091	0.246311
554.101093	0.246899
554.315077	0.246713
554.529042	0.246672
554.742990	0.246512
554.956919	0.245812
555.170830	0.246170
555.384722	0.245809
555.598597	0.246257
555.812453	0.246339
556.026291	0.246215
556.240111	0.246555
556.453913	0.247060
556.667696	0.247322
556.881461	0.247883
557.095208	0.247922
557.308937	0.248628
557.522647	0.248492
557.736339	0.248777
557.950013	0.248892
558.163669	0.249080
558.377307	0.249368
558.590926	0.249589
558.804527	0.249991
559.018110	0.250131
559.231675	0.249805
559.445221	0.250191
559.658749	0.250335
559.872259	0.250463
560.085751	0.250755
560.299225	0.250691
560.512680	0.250664
560.726117	0.250582
560.939536	0.250727
561.152937	0.250951
561.366319	0.251228
561.579683	0.251127
561.793029	0.251891
562.006357	0.251995
562.219667	0.252436
562.432958	0.253051
562.646231	0.253304
562.859486	0.253170
563.072723	0.253465
563.285941	0.253500
563.499141	0.253740
563.712323	0.253982
563.925487	0.254108
564.138632	0.253968
564.351760	0.253476
564.564869	0.253921
564.777960	0.254532
564.991032	0.254515
565.204087	0.254453
565.417123	0.254503
565.630141	0.254016
565.843140	0.254303
566.056122	0.254453
566.269085	0.254934
566.482030	0.254580
566.694957	0.254370
566.907866	0.254423
567.120756	0.254810
567.333628	0.255021
567.546482	0.255498
567.759318	0.255488
567.972135	0.255969
568.184935	0.256067
568.397716	0.256062
568.610478	0.255881
568.823223	0.256169
569.035949	0.255851
569.248657	0.256096
569.461347	0.255879
569.674019	0.255614
569.886672	0.255356
570.099308	0.255700
570.311925	0.256158
570.524523	0.256453
570.737104	0.256495
570.949666	0.256761
571.162210	0.256697
571.374736	0.257186
571.587244	0.257895
571.799733	0.257982
572.012205	0.258211
572.224658	0.258001
572.437092	0.258685
572.649509	0.259144
572.861907	0.259210
573.074287	0.259470
573.286649	0.259484
573.498993	0.259664
573.711318	0.260199
573.923625	0.260163
574.135914	0.260832
574.348185	0.260908
574.560438	0.260672
574.772672	0.260978
574.984888	0.261415
575.197086	0.261663
575.409266	0.261407
575.621427	0.261618
575.833570	0.261921
576.045695	0.262157
576.257802	0.262570
576.469890	0.262935
576.681961	0.263242
576.894013	0.263473
577.106046	0.263824
577.318062	0.264039
577.530059	0.264149
577.742039	0.264159
577.954000	0.264034
578.165942	0.264066
578.377867	0.264367
578.589773	0.264635
578.801661	0.264723
579.013531	0.264317
579.225382	0.264547
579.437216	0.264701
579.649031	0.265007
579.860828	0.265060
580.072606	0.264891
580.284367	0.264581
580.496109	0.264862
580.707833	0.264677
580.919539	0.265315
581.131227	0.265340
581.342896	0.265571
581.554547	0.265235
581.766180	0.265708
581.977795	0.265947
582.189391	0.266244
582.400969	0.266095
582.612529	0.266568
582.824071	0.266468
583.035595	0.266875
583.247100	0.267106
583.458587	0.267456
583.670056	0.267613
583.881506	0.267718
584.092939	0.267881
584.304353	0.268080
584.515749	0.268607
584.727127	0.269120
584.938486	0.269276
585.149828	0.269167
585.361151	0.269237
585.572456	0.269565
585.783742	0.270019
585.995011	0.270289
586.206261	0.270834
586.417493	0.270813
586.628706	0.270850
586.839902	0.270902
587.051079	0.271079
587.262238	0.271597
587.473379	0.271292
587.684502	0.271297
587.895606	0.271014
588.106692	0.270567
588.317760	0.270655
588.528810	0.270793
588.739841	0.270757
588.950855	0.271282
589.161850	0.271758
589.372827	0.272147
589.583785	0.272053
589.794726	0.272651
590.005648	0.273118
590.216552	0.273035
590.427437	0.272867
590.638305	0.273546
590.849154	0.273269
591.059985	0.273359
591.270798	0.273149
591.481592	0.273372
591.692369	0.273306
591.903127	0.273396
592.113867	0.273728
592.324588	0.274121
592.535292	0.273799
592.745977	0.274263
592.956644	0.274143
593.167293	0.274720
593.377923	0.274804
593.588536	0.275261
593.799130	0.275049
594.009706	0.275164
594.220263	0.275432
594.430803	0.275569
594.641324	0.275573
594.851827	0.275677
595.062312	0.275940
595.272778	0.276138
595.483227	0.276091
595.693657	0.276635
595.904069	0.277063
596.114462	0.277534
596.324838	0.278159
596.535195	0.278386
596.745534	0.278975
596.955855	0.278888
597.166157	0.279675
597.376441	0.280204
597.586707	0.280639
597.796955	0.280384
598.007185	0.280386
598.217396	0.280299
598.427589	0.280304
598.637764	0.280544
598.847921	0.281054
599.058060	0.280742
599.268180	0.280888
599.478282	0.281049
599.688366	0.281104
599.898431	0.281183
600.108479	0.281613
600.318508	0.282109
600.528519	0.282027
600.738511	0.282502
600.948486	0.282754
601.158442	0.282883
601.368380	0.282756
601.578300	0.283209
601.788202	0.283499
601.998085	0.283818
602.207950	0.283804
602.417797	0.283870
602.627626	0.283748
602.837436	0.284004
603.047228	0.284071
603.257002	0.284152
603.466758	0.284405
603.676496	0.284410
603.886215	0.284585
604.095916	0.284623
604.305599	0.284708
604.515264	0.284420
604.724910	0.284225
604.934538	0.284723
605.144148	0.285199
605.353740	0.285298
605.563314	0.285477
605.772869	0.285061
605.982406	0.285434
606.191925	0.285733
606.401425	0.286292
606.610908	0.286947
606.820372	0.286709
607.029818	0.286765
607.239246	0.286702
607.448655	0.286673
607.658047	0.287239
607.867420	0.287222
608.076775	0.286892
608.286111	0.286888
608.495430	0.286760
608.704730	0.286981
608.914012	0.286922
609.123275	0.287146
609.332521	0.287551
609.541748	0.287507
609.750957	0.287422
609.960148	0.288001
610.169321	0.287983
610.378475	0.287864
610.587611	0.288140
610.796729	0.288342
611.005829	0.288464
611.214910	0.288432
611.423974	0.288639
611.633019	0.289396
611.842045	0.289717
612.051054	0.290148
612.260044	0.290377
612.469017	0.290418
612.677970	0.290631
612.886906	0.290712
613.095824	0.290636
613.304723	0.290833
613.513604	0.290616
613.722467	0.290432
613.931311	0.290520
614.140138	0.290906
614.348946	0.291095
614.557736	0.291325
614.766507	0.291586
614.975261	0.292271
615.183996	0.292335
615.392713	0.292550
615.601412	0.292975
615.810092	0.293112
616.018754	0.293219
616.227399	0.293296
616.436024	0.293512
616.644632	0.293676
616.853222	0.293571
617.061793	0.293701
617.270346	0.293738
617.478880	0.293962
617.687397	0.293806
617.895895	0.293944
618.104375	0.294244
618.312837	0.294231
618.521281	0.294462
618.729706	0.294405
618.938113	0.294590
619.146502	0.294535
619.354873	0.294489
619.563226	0.294904
619.771560	0.294872
619.979876	0.294738
620.188174	0.294868
620.396453	0.294929
620.604715	0.295339
620.812958	0.295731
621.021183	0.296315
621.229390	0.296553
621.437578	0.296862
621.645748	0.297083
621.853900	0.297555
622.062034	0.297637
622.270150	0.297862
622.478247	0.297849
622.686326	0.297759
622.894387	0.297729
623.102430	0.297928
623.310454	0.298040
623.518461	0.298371
623.726449	0.298356
623.934418	0.298731
624.142370	0.298508
624.350303	0.298683
624.558218	0.298884
624.766115	0.299151
624.973994	0.299068
625.181855	0.299117
625.389697	0.299376
625.597521	0.299455
625.805327	0.299456
626.013114	0.299863
626.220883	0.300133
626.428634	0.300368
626.636367	0.300328
626.844082	0.300290
627.051778	0.300290
627.259457	0.300522
627.467117	0.300443
627.674758	0.300536
627.882382	0.300775
628.089987	0.300844
628.297574	0.300823
628.505143	0.301206
628.712694	0.301740
628.920226	0.302173
629.127740	0.302037
629.335236	0.302377
629.542714	0.302679
629.750174	0.302653
629.957615	0.302968
630.165038	0.303407
630.372443	0.303486
630.579829	0.303673
630.787198	0.303710
630.994548	0.303768
631.201880	0.304099
631.409194	0.304137
631.616489	0.304399
631.823766	0.304596
632.031025	0.304459
632.238266	0.304642
632.445489	0.304792
632.652693	0.305019
632.859879	0.305283
633.067047	0.305555
633.274197	0.306025
633.481329	0.306442
633.688442	0.306640
633.895537	0.307086
634.102614	0.307280
634.309672	0.307609
634.516713	0.307794
634.723735	0.308010
634.930739	0.308021
635.137724	0.308271
635.344692	0.308366
635.551641	0.308438
635.758572	0.308464
635.965485	0.308852
636.172379	0.309039
636.379256	0.309202
636.586114	0.309593
636.792954	0.309944
636.999775	0.310166
637.206579	0.310519
637.413364	0.310647
637.620131	0.310757
637.826880	0.310733
638.033610	0.310811
638.240323	0.311293
638.447017	0.311256
638.653692	0.311662
638.860350	0.311342
639.066990	0.311198
639.273611	0.311657
639.480214	0.311915
639.686798	0.312161
639.893365	0.312038
640.099913	0.311798
640.306443	0.311795
640.512955	0.311361
640.719449	0.311967
640.925924	0.312424
641.132381	0.312395
641.338820	0.312642
641.545241	0.312752
641.751644	0.313161
641.958028	0.313384
642.164394	0.313764
642.370742	0.313966
642.577071	0.313959
642.783383	0.314005
642.989676	0.314259
643.195951	0.314457
643.402207	0.314992
643.608446	0.314839
643.814666	0.315035
644.020868	0.315313
644.227052	0.315695
644.433218	0.315850
644.639365	0.315865
644.845494	0.315872
645.051605	0.316061
645.257698	0.315638
645.463772	0.316220
645.669828	0.316610
645.875866	0.316582
646.081886	0.316500
646.287888	0.316643
646.493871	0.317076
646.699836	0.317507
646.905783	0.317480
647.111712	0.318025
647.317622	0.318281
647.523514	0.318216
647.729388	0.318353
647.935244	0.318817
648.141082	0.319223
648.346901	0.319407
648.552702	0.319482
648.758485	0.319948
648.964250	0.320118
649.169996	0.319933
649.375724	0.320265
649.581434	0.320698
649.787126	0.320917
649.992800	0.320943
650.198455	0.320830
650.404092	0.320988
650.609711	0.320993
650.815311	0.321105
651.020894	0.321322
651.226458	0.321257
651.432004	0.321119
651.637532	0.321174
651.843041	0.321215
652.048532	0.321547
652.254006	0.321667
652.459460	0.322046
652.664897	0.322433
652.870315	0.322537
653.075716	0.322889
653.281097	0.323371
653.486461	0.323769
653.691807	0.324082
653.897134	0.324396
654.102443	0.324475
654.307734	0.324776
654.513006	0.324560
654.718261	0.325252
654.923497	0.325464
655.128715	0.325550
655.333915	0.325891
655.539096	0.326239
655.744259	0.326361
655.949404	0.326937
656.154531	0.326747
656.359640	0.327161
656.564730	0.327068
656.769802	0.327260
656.974856	0.327553
657.179892	0.327696
657.384909	0.327623
657.589908	0.327866
657.794889	0.327820
657.999852	0.328068
658.204797	0.328355
658.409723	0.328697
658.614631	0.328978
658.819521	0.328997
659.024393	0.329105
659.229246	0.329547
659.434081	0.329642
659.638898	0.329741
659.843697	0.329983
660.048478	0.330452
660.253240	0.330699
660.457984	0.330942
660.662710	0.331340
660.867417	0.331397
661.072107	0.331537
661.276778	0.332042
661.481431	0.332559
661.686066	0.332830
661.890682	0.332867
662.095281	0.333087
662.299861	0.333179
662.504422	0.333266
662.708966	0.333489
662.913491	0.333813
663.117999	0.333696
663.322488	0.333811
663.526958	0.333982
663.731411	0.334113
663.935845	0.334177
664.140261	0.334325
664.344659	0.334634
664.549038	0.334973
664.753400	0.335120
664.957743	0.335579
665.162068	0.336077
665.366375	0.336368
665.570663	0.336723
665.774933	0.337136
665.979185	0.337777
666.183419	0.338021
666.387635	0.338374
666.591832	0.338640
666.796011	0.338765
667.000172	0.338751
667.204315	0.338966
667.408439	0.339065
667.612545	0.339257
667.816634	0.339205
668.020703	0.339640
668.224755	0.339953
668.428788	0.340276
668.632803	0.340517
668.836800	0.340747
669.040779	0.340957
669.244739	0.341121
669.448681	0.341438
669.652605	0.341567
669.856511	0.341730
670.060399	0.341786
670.264268	0.341806
670.468119	0.341933
670.671952	0.342056
670.875767	0.342153
671.079563	0.342231
671.283341	0.342233
671.487101	0.342532
671.690843	0.342544
671.894567	0.342850
672.098272	0.343032
672.301959	0.343343
672.505628	0.343619
672.709278	0.344078
672.912911	0.344491
673.116525	0.345071
673.320121	0.345557
673.523699	0.346123
673.727258	0.346152
673.930799	0.346753
674.134322	0.347176
674.337827	0.347364
674.541314	0.347713
674.744782	0.348084
674.948232	0.348139
675.151664	0.348376
675.355078	0.348450
675.558474	0.348997
675.761851	0.349137
675.965210	0.349540
676.168551	0.349825
676.371873	0.349931
676.575178	0.350179
676.778464	0.350309
676.981732	0.350365
677.184981	0.350302
677.388213	0.350461
677.591426	0.350610
677.794621	0.350622
677.997798	0.351006
678.200956	0.351303
678.404097	0.351381
678.607219	0.351495
678.810323	0.351759
679.013408	0.352216
679.216476	0.352405
679.419525	0.352422
679.622556	0.352481
679.825569	0.352641
680.028563	0.352872
680.231540	0.353056
680.434498	0.353442
680.637438	0.353718
680.840359	0.354078
681.043263	0.354348
681.246148	0.354891
681.449015	0.355184
681.651864	0.355309
681.854694	0.355511
682.057506	0.355667
682.260301	0.355995
682.463076	0.356218
682.665834	0.356242
682.868573	0.356332
683.071295	0.356371
683.273998	0.356269
683.476682	0.356196
683.679349	0.356289
683.881997	0.356326
684.084627	0.356254
684.287239	0.355908
684.489833	0.355885
684.692408	0.355641
684.894965	0.355883
685.097504	0.356172
685.300025	0.356747
685.502527	0.356635
685.705012	0.357072
685.907478	0.357333
686.109925	0.357670
686.312355	0.357978
686.514766	0.358382
686.717159	0.358503
686.919534	0.358619
687.121891	0.358405
687.324230	0.358891
687.526550	0.358917
687.728852	0.359189
687.931136	0.359536
688.133401	0.359941
688.335649	0.360246
688.537878	0.360261
688.740089	0.360813
688.942281	0.361260
689.144456	0.361313
689.346612	0.361635
689.548750	0.361708
689.750870	0.361897
689.952971	0.362067
690.155055	0.362580
690.357120	0.362943
690.559167	0.362799
690.761195	0.362840
690.963206	0.362980
691.165198	0.362750
691.367172	0.362942
691.569128	0.363234
691.771065	0.363364
691.972984	0.363386
692.174885	0.363596
692.376768	0.363906
692.578633	0.364138
692.780479	0.364315
692.982308	0.365004
693.184118	0.365099
693.385909	0.365238
693.587683	0.365175
693.789438	0.365035
693.991175	0.365056
694.192894	0.365403
694.394595	0.365667
694.596277	0.366066
694.797941	0.366101
694.999587	0.366331
695.201215	0.366510
695.402824	0.367017
695.604416	0.367483
695.805989	0.367845
696.007543	0.367749
696.209080	0.367803
696.410598	0.367980
696.612099	0.368230
696.813580	0.368292
697.015044	0.368572
697.216490	0.368479
697.417917	0.368566
697.619326	0.368441
697.820717	0.368849
698.022089	0.369102
698.223444	0.369227
698.424780	0.369280
698.626098	0.369463
698.827397	0.369601
699.028679	0.369471
699.229942	0.369281
699.431187	0.369351
699.632414	0.369181
699.833622	0.369377
700.034813	0.369190
700.235985	0.369124
700.437139	0.369389
700.638274	0.369352
700.839392	0.369817
701.040491	0.370368
701.241572	0.370854
701.442635	0.371144
701.643679	0.371398
701.844706	0.371917
702.045714	0.372261
702.246704	0.372411
702.447675	0.372270
702.648629	0.372467
702.849564	0.372546
703.050481	0.372573
703.251380	0.372755
703.452260	0.372540
703.653122	0.372407
703.853966	0.372596
704.054792	0.372552
704.255600	0.372718
704.456389	0.372616
704.657160	0.372659
704.857913	0.372605
705.058648	0.372649
705.259365	0.372719
705.460063	0.372465
705.660743	0.372424
705.861405	0.372542
706.062048	0.372641
706.262674	0.372606
706.463281	0.372480
706.663870	0.372386
706.864441	0.372259
707.064993	0.372502
707.265527	0.372908
707.466043	0.373063
707.666541	0.372892
707.867021	0.373106
708.067482	0.373191
708.267925	0.373165
708.468350	0.373395
708.668757	0.373834
708.869145	0.373698
709.069516	0.373627
709.269868	0.373386
709.470201	0.373518
709.670517	0.373513
709.870814	0.373838
710.071093	0.373597
710.271354	0.373518
710.471597	0.373260
710.671821	0.373288
710.872028	0.373063
711.072216	0.373262
711.272385	0.373082
711.472537	0.372708
711.672670	0.372363
711.872785	0.372862
712.072882	0.372998
712.272961	0.372693
712.473021	0.372515
712.673063	0.372782
712.873087	0.372562
713.073093	0.372778
713.273081	0.373137
713.473050	0.373344
713.673001	0.372934
713.872934	0.372951
714.072849	0.373124
714.272745	0.373145
714.472623	0.373017
714.672483	0.373032
714.872325	0.372865
715.072148	0.372840
715.271954	0.372832
715.471741	0.372951
715.671509	0.372677
715.871260	0.372665
716.070992	0.372690
716.270707	0.372769
716.470403	0.372562
716.670080	0.372579
716.869740	0.372431
717.069381	0.372027
717.269004	0.371760
717.468609	0.371590
717.668195	0.371356
717.867764	0.371310
718.067314	0.371332
718.266846	0.371486
718.466360	0.371288
718.665855	0.371355
718.865332	0.371626
719.064791	0.371692
719.264232	0.371772
719.463655	0.371875
719.663059	0.371837
719.862445	0.371614
720.061813	0.371213
720.261163	0.371345
720.460494	0.371044
720.659807	0.370921
720.859102	0.370983
721.058379	0.370910
721.257638	0.370759
721.456878	0.370549
721.656100	0.370598
721.855304	0.370682
722.054490	0.370459
722.253657	0.370577
722.452806	0.370298
722.651937	0.370303
722.851050	0.369971
723.050145	0.369661
723.249221	0.369497
723.448279	0.369016
723.647319	0.368649
723.846340	0.368359
724.045344	0.367795
724.244329	0.367744
724.443296	0.367338
724.642245	0.367652
724.841175	0.367702
725.040088	0.367847
725.238982	0.367770
725.437857	0.367763
725.636715	0.367791
725.835554	0.367834
726.034376	0.367676
726.233179	0.367643
726.431963	0.367132
726.630730	0.366754
726.829478	0.366282
727.028208	0.366250
727.226920	0.366314
727.425614	0.366394
727.624289	0.366211
727.822946	0.366064
728.021585	0.365902
728.220206	0.365672
728.418808	0.365494
728.617392	0.365469
728.815958	0.365369
729.014506	0.365322
729.213036	0.364764
729.411547	0.364863
729.610040	0.364664
729.808515	0.364516
730.006972	0.364699
730.205410	0.364773
730.403831	0.364506
730.602233	0.364055
730.800616	0.363552
730.998982	0.363602
731.197329	0.362904
731.395658	0.362821
731.593969	0.362601
731.792262	0.362418
731.990536	0.362157
732.188793	0.361903
732.387031	0.362244
732.585250	0.362017
732.783452	0.361618
732.981635	0.361700
733.179800	0.361430
733.377947	0.361632
733.576076	0.361369
733.774186	0.361364
733.972278	0.361198
734.170352	0.360771
734.368408	0.360836
734.566446	0.360803
734.764465	0.360739
734.962466	0.360552
735.160449	0.359993
735.358413	0.359869
735.556360	0.359646
735.754288	0.359577
735.952198	0.359326
736.150090	0.359305
736.347963	0.359062
736.545818	0.359097
736.743655	0.358983
736.941474	0.358973
737.139275	0.358444
737.337057	0.358024
737.534821	0.357923
737.732567	0.357548
737.930295	0.357097
738.128005	0.356661
738.325696	0.356072
738.523369	0.355951
738.721024	0.355159
738.918660	0.355010
739.116279	0.355157
739.313879	0.354791
739.511461	0.354658
739.709024	0.354419
739.906570	0.354488
740.104097	0.354340
740.301606	0.353897
740.499097	0.354211
740.696569	0.354097
740.894024	0.353566
741.091460	0.353622
741.288878	0.353603
741.486277	0.353587
741.683659	0.353649
741.881022	0.353669
742.078367	0.353661
742.275694	0.353301
742.473002	0.353466
742.670293	0.353276
742.867565	0.352790
743.064819	0.352660
743.262054	0.352449
743.459272	0.351922
743.656471	0.351797
743.853652	0.351597
744.050815	0.351386
744.247959	0.350733
744.445085	0.350482
744.642194	0.350486
744.839283	0.350092
745.036355	0.349786
745.233408	0.349731
745.430444	0.348909
745.627461	0.348480
745.824459	0.348159
746.021440	0.348317
746.218402	0.348167
746.415346	0.347706
746.612272	0.347427
746.809180	0.347203
747.006069	0.346991
747.202940	0.346967
747.399793	0.346437
747.596628	0.345983
747.793444	0.345494
747.990243	0.345036
748.187023	0.345022
748.383784	0.345032
748.580528	0.344659
748.777253	0.344417
748.973960	0.344462
749.170649	0.344738
749.367320	0.344675
749.563973	0.344501
749.760607	0.344399
749.957223	0.343908
750.153821	0.343554
750.350400	0.343291
750.546962	0.343027
750.743505	0.342653
750.940030	0.342378
751.136536	0.342362
751.333025	0.342124
751.529495	0.342318
751.725947	0.342352
751.922381	0.342115
752.118796	0.342147
752.315194	0.341802
752.511573	0.341483
752.707934	0.341132
752.904276	0.340820
753.100601	0.340569
753.296907	0.339928
753.493195	0.339857
753.689465	0.339509
753.885716	0.339038
754.081949	0.338695
754.278164	0.338530
754.474361	0.338224
754.670540	0.338191
754.866700	0.337972
755.062843	0.337857
755.258967	0.337468
755.455072	0.337295
755.651160	0.337264
755.847229	0.337209
756.043280	0.337116
756.239313	0.337057
756.435328	0.336671
756.631324	0.336338
756.827302	0.336240
757.023262	0.335909
757.219204	0.335948
757.415127	0.335780
757.611033	0.335419
757.806920	0.335127
758.002788	0.334949
758.198639	0.334946
758.394471	0.334748
758.590286	0.334478
758.786081	0.334545
758.981859	0.333848
759.177619	0.333500
759.373360	0.333618
759.569083	0.333415
759.764788	0.333222
759.960474	0.332563
760.156143	0.332564
760.351793	0.332410
760.547425	0.332224
760.743038	0.332042
760.938634	0.332047
761.134211	0.331803
761.329770	0.331806
761.525311	0.331668
761.720833	0.331972
761.916338	0.331812
762.111824	0.331592
762.307292	0.331120
762.502741	0.331338
762.698173	0.331114
762.893586	0.330801
763.088981	0.330318
763.284358	0.330245
763.479716	0.329772
763.675057	0.329476
763.870379	0.329238
764.065683	0.329266
764.260968	0.329074
764.456236	0.328948
764.651485	0.328988
764.846716	0.329099
765.041929	0.329035
765.237123	0.329199
765.432299	0.329318
765.627457	0.329390
765.822597	0.329095
766.017719	0.328861
766.212822	0.328889
766.407907	0.328780
766.602974	0.328652
766.798023	0.328405
766.993054	0.327913
767.188066	0.327311
767.383060	0.326900
767.578036	0.326635
767.772993	0.326456
767.967933	0.325771
768.162854	0.325364
768.357757	0.325134
768.552642	0.324786
768.747508	0.324609
768.942356	0.324757
769.137186	0.324598
769.331998	0.324736
769.526792	0.324706
769.721567	0.324864
769.916324	0.324952
770.111063	0.324691
770.305784	0.324495
770.500486	0.324628
770.695171	0.324662
770.889837	0.324829
771.084484	0.324736
771.279114	0.324675
771.473725	0.324671
771.668318	0.324401
771.862893	0.324481
772.057450	0.324609
772.251988	0.324556
772.446509	0.324273
772.641011	0.324060
772.835494	0.323607
773.029960	0.323412
773.224407	0.323344
773.418836	0.323258
773.613247	0.323187
773.807640	0.322986
774.002014	0.322947
774.196370	0.322977
774.390708	0.322979
774.585028	0.323073
774.779330	0.323209
774.973613	0.323177
775.167878	0.323233
775.362125	0.323328
775.556354	0.323439
775.750564	0.323500
775.944756	0.323182
776.138930	0.323263
776.333086	0.323598
776.527223	0.323640
776.721343	0.323555
776.915444	0.323386
777.109526	0.323468
777.303591	0.323497
777.497637	0.323332
777.691666	0.323485
777.885676	0.323360
778.079667	0.323382
778.273641	0.323567
778.467596	0.323900
778.661533	0.324269
778.855452	0.324004
779.049352	0.324060
779.243235	0.324255
779.437099	0.324549
779.630945	0.324789
779.824773	0.324602
780.018582	0.324289
780.212373	0.323982
780.406146	0.323977
780.599901	0.324164
780.793638	0.324388
780.987356	0.324452
781.181056	0.324466
781.374738	0.324383
781.568402	0.324524
781.762047	0.324834
781.955674	0.325056
782.149283	0.324949
782.342874	0.325004
782.536447	0.324774
782.730001	0.324570
782.923537	0.324574
783.117055	0.324593
783.310555	0.324558
783.504036	0.324272
783.697499	0.324437
783.890944	0.324254
784.084371	0.324207
784.277780	0.324165
784.471170	0.324236
784.664542	0.324032
784.857896	0.324214
785.051231	0.324291
785.244549	0.324365
785.437848	0.324094
785.631129	0.324581
785.824392	0.324473
786.017636	0.324580
786.210863	0.324447
786.404071	0.324629
786.597260	0.324445
786.790432	0.324548
786.983585	0.324372
787.176721	0.324313
787.369838	0.324164
787.562936	0.324121
787.756017	0.324091
787.949079	0.324307
788.142123	0.324369
788.335149	0.324461
788.528156	0.324512
788.721146	0.324768
788.914117	0.324726
789.107070	0.324856
789.300005	0.324991
789.492921	0.325281
789.685819	0.325409
789.878699	0.325403
790.071561	0.325712
790.264405	0.325746
790.457230	0.325686
790.650037	0.325959
790.842826	0.325826
791.035597	0.326106
791.228349	0.326177
791.421084	0.326016
791.613800	0.325992
791.806497	0.325739
791.999177	0.325870
792.191838	0.326175
792.384481	0.326436
792.577106	0.326903
792.769713	0.327024
792.962301	0.327227
793.154871	0.327685
793.347423	0.328199
793.539957	0.328760
793.732473	0.328806
793.924970	0.329259
794.117449	0.329526
794.309910	0.329503
794.502353	0.329616
794.694777	0.329537
794.887183	0.329607
795.079571	0.329627
795.271941	0.329686
795.464293	0.330107
795.656626	0.330074
795.848941	0.330255
796.041238	0.330818
796.233516	0.331218
796.425777	0.331793
796.618019	0.332214
796.810243	0.332392
797.002449	0.332704
797.194636	0.332836
797.386805	0.332879
797.578956	0.332892
797.771089	0.332775
797.963204	0.332828
798.155300	0.332506
798.347378	0.332756
798.539438	0.332997
798.731480	0.333170
798.923503	0.333380
799.115509	0.333620
799.307496	0.334176
799.499465	0.334518
799.691415	0.334999
799.883348	0.335717
800.075262	0.335949
800.267158	0.336187
800.459035	0.336526
800.650895	0.336869
800.842736	0.337561
801.034559	0.337434
801.226364	0.337491
801.418150	0.337819
801.609919	0.338102
801.801669	0.338622
801.993401	0.338984
802.185114	0.338937
802.376810	0.338763
802.568487	0.338661
802.760146	0.339046
802.951787	0.339210
803.143409	0.339245
803.335014	0.339497
803.526600	0.339048
803.718168	0.339211
803.909717	0.339653
804.101249	0.340198
804.292762	0.340489
804.484257	0.340766
804.675734	0.341387
804.867192	0.341675
805.058632	0.341613
805.250054	0.342257
805.441458	0.342601
805.632844	0.342879
805.824211	0.343280
806.015561	0.343932
806.206891	0.344127
806.398204	0.344294
806.589499	0.344487
806.780775	0.345089
806.972033	0.345485
807.163273	0.345761
807.354495	0.345968
807.545698	0.346014
807.736883	0.346136
807.928050	0.346638
808.119199	0.347344
808.310329	0.347762
808.501441	0.348367
808.692535	0.348864
808.883611	0.349537
809.074669	0.350208
809.265708	0.351100
809.456729	0.351417
809.647732	0.351915
809.838717	0.352188
810.029683	0.352627
810.220632	0.352490
810.411562	0.352876
810.602474	0.353049
810.793367	0.353327
810.984242	0.353388
811.175100	0.353833
811.365938	0.354170
811.556759	0.354084
811.747562	0.354320
811.938346	0.354865
812.129112	0.355292
812.319860	0.355933
812.510589	0.356324
812.701300	0.356712
812.891994	0.357091
813.082668	0.357172
813.273325	0.357780
813.463964	0.358022
813.654584	0.358454
813.845186	0.358608
814.035769	0.358580
814.226335	0.358672
814.416882	0.359322
814.607411	0.359692
814.797922	0.360247
814.988415	0.360723
815.178889	0.361245
815.369345	0.361689
815.559783	0.362143
815.750203	0.362947
815.940605	0.363596
816.130988	0.363636
816.321353	0.364213
816.511700	0.364767
816.702028	0.365314
816.892339	0.366103
817.082631	0.366539
817.272905	0.367086
817.463161	0.367462
817.653398	0.367734
817.843617	0.368528
818.033819	0.369078
818.224001	0.369363
818.414166	0.369827
818.604312	0.370264
818.794440	0.370509
818.984550	0.370562
819.174642	0.371003
819.364716	0.371257
819.554771	0.371569
819.744808	0.371800
819.934827	0.372224
820.124827	0.372515
820.314810	0.372774
820.504774	0.373699
820.694720	0.374366
820.884647	0.374620
821.074557	0.375213
821.264448	0.375507
821.454321	0.376032
821.644176	0.376822
821.834012	0.377346
822.023831	0.377641
822.213631	0.377767
822.403413	0.378172
822.593176	0.378834
822.782922	0.379216
822.972649	0.379762
823.162358	0.379945
823.352049	0.379884
823.541721	0.380485
823.731376	0.381197
823.921012	0.381676
824.110629	0.382311
824.300229	0.382504
824.489811	0.383295
824.679374	0.383773
824.868919	0.384460
825.058445	0.384979
825.247954	0.385422
825.437444	0.385884
825.626916	0.386401
825.816370	0.386714
826.005806	0.387203
826.195223	0.387753
826.384622	0.388352
826.574003	0.389005
826.763366	0.389481
826.952711	0.389965
827.142037	0.390602
827.331345	0.391234
827.520635	0.392009
827.709906	0.392274
827.899160	0.392763
828.088395	0.393211
828.277612	0.393420
828.466810	0.394182
828.655991	0.394284
828.845153	0.394532
829.034297	0.394864
829.223423	0.394904
829.412531	0.395769
829.601620	0.396211
829.790691	0.396813
829.979744	0.397500
830.168779	0.398151
830.357795	0.398999
830.546793	0.399843
830.735773	0.400391
830.924735	0.401143
831.113679	0.401943
831.302604	0.402721
831.491511	0.403168
831.680400	0.403527
831.869271	0.404332
832.058123	0.404985
832.246957	0.405353
832.435773	0.406211
832.624571	0.407003
832.813351	0.407475
833.002112	0.408004
833.190855	0.408546
833.379580	0.409288
833.568287	0.410128
833.756975	0.410481
833.945645	0.410979
834.134297	0.411264
834.322931	0.411677
834.511547	0.411890
834.700144	0.412409
834.888723	0.413405
835.077284	0.413767
835.265826	0.413684
835.454351	0.414143
835.642857	0.414642
835.831345	0.415167
836.019815	0.415564
836.208266	0.416102
836.396699	0.416287
836.585114	0.416460
836.773511	0.417386
836.961890	0.417959
837.150250	0.418893
837.338592	0.419467
837.526916	0.420166
837.715222	0.420817
837.903510	0.421699
838.091779	0.422300
838.280030	0.422736
838.468263	0.422953
838.656477	0.423663
838.844674	0.424248
839.032852	0.424866
839.221012	0.425322
839.409153	0.425825
839.597277	0.426227
839.785382	0.426943
839.973469	0.427746
840.161538	0.428609
840.349589	0.429108
840.537621	0.429605
840.725635	0.430205
840.913631	0.430841
841.101609	0.431617
841.289568	0.432408
841.477509	0.433356
841.665432	0.434043
841.853337	0.434777
842.041224	0.435704
842.229092	0.436373
842.416942	0.437328
842.604774	0.438012
842.792588	0.438740
842.980383	0.439438
843.168160	0.439847
843.355919	0.440316
843.543660	0.440775
843.731382	0.441138
843.919087	0.441978
844.106773	0.442303
844.294441	0.442789
844.482090	0.443386
844.669722	0.443829
844.857335	0.444337
845.044930	0.444943
845.232507	0.445756
845.420065	0.446052
845.607605	0.445946
845.795127	0.446423
845.982631	0.446937
846.170117	0.447223
846.357584	0.447588
846.545033	0.448075
846.732464	0.448615
846.919877	0.448854
847.107272	0.449734
847.294648	0.450753
847.482006	0.451463
847.669346	0.452116
847.856667	0.452631
848.043971	0.452827
848.231256	0.453167
848.418523	0.453647
848.605771	0.454292
848.793002	0.454788
848.980214	0.455288
849.167408	0.455773
849.354584	0.456252
849.541742	0.457307
849.728881	0.458833
849.916002	0.459914
850.103105	0.460739
850.290190	0.460985
850.477256	0.461862
850.664304	0.462359
850.851334	0.463004
851.038346	0.463560
851.225340	0.464114
851.412315	0.464295
851.599272	0.464751
851.786211	0.465301
851.973132	0.466146
852.160034	0.466465
852.346918	0.467303
852.533784	0.467967
852.720632	0.468489
852.907462	0.469002
853.094273	0.469629
853.281066	0.470382
853.467841	0.470667
853.654598	0.471236
853.841336	0.472008
854.028056	0.472379
854.214758	0.472929
854.401442	0.473626
854.588107	0.474239
854.774755	0.474990
854.961384	0.475120
855.147995	0.475825
855.334587	0.476397
855.521162	0.476875
855.707718	0.477455
855.894256	0.478280
856.080775	0.478825
856.267277	0.479132
856.453760	0.479463
856.640225	0.480441
856.826672	0.481001
857.013101	0.481631
857.199511	0.482028
857.385903	0.482529
857.572277	0.482937
857.758633	0.483617
857.944970	0.484594
858.131290	0.485441
858.317591	0.485951
858.503873	0.487007
858.690138	0.487789
858.876384	0.488463
859.062612	0.488620
859.248822	0.488888
859.435014	0.489334
859.621188	0.489524
859.807343	0.490119
859.993480	0.490131
860.179599	0.490327
860.365699	0.490391
860.551781	0.490713
860.737846	0.491582
860.923891	0.491792
861.109919	0.492647
861.295929	0.493350
861.481920	0.493691
861.667893	0.494416
861.853848	0.494748
862.039784	0.495551
862.225702	0.495880
862.411603	0.496519
862.597484	0.497351
862.783348	0.497380
862.969193	0.497665
863.155021	0.498008
863.340830	0.498785
863.526620	0.499698
863.712393	0.499862
863.898147	0.501128
864.083883	0.501713
864.269601	0.502508
864.455301	0.503291
864.640982	0.504144
864.826645	0.504689
865.012290	0.505094
865.197917	0.505568
865.383526	0.506329
865.569116	0.506521
865.754688	0.507237
865.940242	0.507719
866.125777	0.507707
866.311295	0.508205
866.496794	0.508977
866.682275	0.509252
866.867737	0.509453
867.053182	0.510311
867.238608	0.510682
867.424016	0.510780
867.609406	0.510860
867.794778	0.511668
867.980131	0.511808
868.165466	0.512093
868.350783	0.512402
868.536082	0.512634
868.721362	0.512461
868.906625	0.512381
869.091869	0.512921
869.277094	0.513149
869.462302	0.513936
869.647491	0.514513
869.832662	0.514244
870.017815	0.514744
870.202950	0.515046
870.388066	0.515489
870.573165	0.516251
870.758245	0.516353
870.943306	0.516489
871.128350	0.516283
871.313375	0.515731
871.498382	0.516621
871.683371	0.517548
871.868342	0.517759
872.053294	0.518087
872.238229	0.518393
872.423144	0.518821
872.608042	0.519807
872.792922	0.520385
872.977783	0.521484
873.162626	0.522081
873.347451	0.521926
873.532258	0.522093
873.717046	0.522660
873.901816	0.523139
874.086568	0.523373
874.271302	0.523567
874.456017	0.523978
874.640715	0.524373
874.825394	0.524003
875.010055	0.524408
875.194697	0.525256
875.379322	0.525608
875.563928	0.526017
875.748516	0.526082
875.933085	0.525823
876.117637	0.525997
876.302170	0.526177
876.486685	0.526590
876.671182	0.527011
876.855661	0.527300
877.040121	0.527152
877.224563	0.527563
877.408987	0.528060
877.593393	0.529089
877.777780	0.529064
877.962150	0.529244
878.146501	0.529523
878.330833	0.529695
878.515148	0.529852
878.699444	0.530779
878.883722	0.530996
879.067982	0.530941
879.252224	0.530976
879.436447	0.531405
879.620653	0.531064
879.804840	0.531273
879.989008	0.531172
880.173159	0.531187
880.357291	0.530623
880.541405	0.530593
880.725501	0.531103
880.909579	0.531401
881.093638	0.531772
881.277680	0.532428
881.461703	0.532639
881.645707	0.532996
881.829694	0.533644
882.013662	0.534331
882.197612	0.534695
882.381544	0.534596
882.565458	0.534877
882.749353	0.534885
882.933230	0.534787
883.117089	0.534905
883.300930	0.534853
883.484753	0.534924
883.668557	0.534848
883.852343	0.534085
884.036111	0.534130
884.219861	0.533852
884.403592	0.534024
884.587305	0.534287
884.771000	0.533982
884.954677	0.534554
885.138335	0.534690
885.321976	0.534956
885.505598	0.535354
885.689201	0.536216
885.872787	0.536415
886.056354	0.536569
886.239904	0.536838
886.423434	0.537655
886.606947	0.537777
886.790442	0.537658
886.973918	0.537171
887.157376	0.538304
887.340816	0.537779
887.524237	0.537964
887.707641	0.538031
887.891026	0.538385
888.074393	0.538375
888.257741	0.538260
888.441072	0.538021
888.624384	0.539034
888.807678	0.538519
888.990954	0.538678
889.174211	0.538115
889.357451	0.538005
889.540672	0.537839
889.723875	0.537851
889.907059	0.537665
890.090226	0.538112
890.273374	0.537609
890.456504	0.537450
890.639616	0.537488
890.822709	0.538318
891.005785	0.537872
891.188842	0.537162
891.371881	0.537486
891.554901	0.537086
891.737904	0.536387
891.920888	0.535806
892.103854	0.535500
892.286802	0.535060
892.469731	0.534507
892.652643	0.534591
892.835536	0.534976
893.018410	0.534293
893.201267	0.534404
893.384106	0.534639
893.566926	0.535400
893.749728	0.535322
893.932511	0.535936
894.115277	0.536086
894.298024	0.535793
894.480753	0.535185
894.663464	0.535359
894.846157	0.535868
895.028831	0.535350
895.211487	0.534559
895.394125	0.534799
895.576745	0.533678
895.759346	0.533547
895.941930	0.533503
896.124495	0.533774
896.307041	0.533160
896.489570	0.532292
896.672080	0.531974
896.854573	0.531945
897.037046	0.531516
897.219502	0.531795
897.401940	0.531254
897.584359	0.531024
897.766760	0.530229
897.949143	0.529701
898.131507	0.529404
898.313854	0.529488
898.496182	0.528823
898.678492	0.527686
898.860783	0.527079
899.043057	0.526377
899.225312	0.526137
899.407549	0.526141
899.589768	0.526274
899.771968	0.526124
899.954151	0.526036
900.136315	0.525975
900.318461	0.526247
900.500588	0.526458
900.682698	0.526409
900.864789	0.526221
901.046862	0.525693
901.228917	0.524733
901.410953	0.524705
901.592971	0.524183
901.774972	0.523843
901.956953	0.523082
902.138917	0.522046
902.320862	0.521724
902.502790	0.521451
902.684699	0.521629
902.866589	0.522458
903.048462	0.521709
903.230316	0.521441
903.412152	0.521341
903.593970	0.520957
903.775770	0.520757
903.957551	0.520806
904.139314	0.520093
904.321059	0.518734
904.502786	0.517754
904.684494	0.517089
904.866185	0.515799
905.047857	0.514938
905.229510	0.514790
905.411146	0.514714
905.592763	0.513998
905.774363	0.513397
905.955943	0.514067
906.137506	0.513054
906.319051	0.512994
906.500577	0.513282
906.682085	0.512897
906.863575	0.512320
907.045046	0.511725
907.226500	0.511502
907.407935	0.512084
907.589352	0.511309
907.770750	0.510656
907.952131	0.509751
908.133493	0.509119
908.314837	0.508770
908.496163	0.508169
908.677470	0.507126
908.858760	0.505552
909.040031	0.504092
909.221284	0.503530
909.402518	0.502841
909.583735	0.502164
909.764933	0.501148
909.946113	0.499850
910.127275	0.499735
910.308418	0.499427
910.489544	0.499537
910.670651	0.498427
910.851740	0.497732
911.032810	0.497766
911.213863	0.497431
911.394897	0.497184
911.575913	0.496730
911.756911	0.496228
911.937890	0.495669
912.118851	0.494422
912.299794	0.494182
912.480719	0.493504
912.661626	0.492699
912.842514	0.491346
913.023384	0.490160
913.204236	0.489271
913.385070	0.487715
913.565886	0.487399
913.746683	0.487019
913.927462	0.486171
914.108223	0.485689
914.288965	0.484968
914.469690	0.484805
914.650396	0.484385
914.831084	0.484320
915.011754	0.483817
915.192405	0.482543
915.373038	0.481415
915.553653	0.480808
915.734250	0.479448
915.914829	0.478859
916.095389	0.477829
916.275931	0.477610
916.456455	0.476298
916.636961	0.475913
916.817448	0.474659
916.997917	0.473965
917.178368	0.472882
917.358801	0.472501
917.539216	0.471023
917.719612	0.470710
917.899990	0.468912
918.080350	0.468427
918.260692	0.466677
918.441015	0.466328
918.621320	0.464836
918.801607	0.463900
918.981876	0.462021
919.162127	0.461317
919.342359	0.460217
919.522573	0.459431
919.702769	0.458492
919.882947	0.457358
920.063106	0.456392
920.243247	0.455856
920.423370	0.454770
920.603475	0.455203
920.783562	0.454385
920.963630	0.453615
921.143680	0.453053
921.323712	0.451873
921.503725	0.451751
921.683721	0.450913
921.863698	0.450967
922.043657	0.450219
922.223598	0.448247
922.403520	0.446829
922.583424	0.445520
922.763311	0.445262
922.943178	0.444899
923.123028	0.443541
923.302859	0.442297
923.482673	0.440875
923.662467	0.439843
923.842244	0.438829
924.022003	0.438303
924.201743	0.437396
924.381465	0.435419
924.561169	0.433648
924.740854	0.432891
924.920522	0.431755
925.100171	0.430459
925.279802	0.429256
925.459414	0.428756
925.639009	0.428509
925.818585	0.427352
925.998143	0.426575
926.177683	0.425719
926.357205	0.424939
926.536708	0.423933
926.716193	0.422642
926.895660	0.422119
927.075109	0.420469
927.254539	0.418278
927.433951	0.416591
927.613345	0.415651
927.792721	0.414668
927.972079	0.412987
928.151418	0.411005
928.330739	0.410564
928.510042	0.408839
928.689327	0.408104
928.868593	0.406789
929.047841	0.405985
929.227071	0.404054
929.406283	0.403805
929.585476	0.402545
929.764652	0.402990
929.943809	0.400399
930.122948	0.398999
930.302068	0.398167
930.481171	0.397774
930.660255	0.396867
930.839321	0.396278
931.018369	0.393776
931.197398	0.392755
931.376409	0.389738
931.555402	0.389588
931.734377	0.388950
931.913334	0.386846
932.092272	0.385302
932.271192	0.383633
932.450094	0.381493
932.628978	0.379900
932.807844	0.378087
932.986691	0.377652
933.165520	0.375972
933.344331	0.373771
933.523123	0.373354
933.701898	0.371899
933.880654	0.370527
934.059392	0.369382
934.238111	0.368645
934.416813	0.367950
934.595496	0.367575
934.774161	0.366716
934.952808	0.366688
935.131437	0.365045
935.310047	0.363271
935.488639	0.361995
935.667213	0.361867
935.845769	0.359619
936.024306	0.358604
936.202825	0.357121
936.381326	0.355997
936.559809	0.354604
936.738274	0.353696
936.916720	0.352714
937.095148	0.351920
937.273558	0.349662
937.451950	0.348904
937.630323	0.348342
937.808678	0.346017
937.987015	0.344070
938.165334	0.342387
938.343635	0.340975
938.521917	0.339559
938.700181	0.339126
938.878427	0.338996
939.056655	0.338146
939.234864	0.336108
939.413055	0.334515
939.591228	0.334358
939.769383	0.333791
939.947519	0.331288
940.125638	0.331386
940.303738	0.328364
940.481820	0.324865
940.659883	0.323691
940.837929	0.320948
941.015956	0.320774
941.193965	0.318109
941.371955	0.315636
941.549928	0.315037
941.727882	0.311898
941.905818	0.310963
942.083736	0.310764
942.261636	0.308399
942.439517	0.308076
942.617380	0.306273
942.795225	0.304055
942.973052	0.301995
943.150860	0.299959
943.328651	0.299388
943.506423	0.297727
943.684176	0.298468
943.861912	0.296885
944.039629	0.296807
944.217328	0.294804
944.395009	0.295766
944.572672	0.295806
944.750317	0.294107
944.927943	0.293252
945.105551	0.292121
945.283141	0.287729
945.460712	0.288025
945.638265	0.284906
945.815801	0.282915
945.993317	0.278626
946.170816	0.278521
946.348297	0.276671
946.525759	0.275230
946.703203	0.273541
946.880629	0.272802
947.058036	0.269398
947.235425	0.266954
947.412797	0.267093
947.590149	0.268320
947.767484	0.264879
947.944800	0.265090
948.122099	0.261033
948.299379	0.259658
948.476640	0.258361
948.653884	0.256708
948.831109	0.256727
949.008316	0.254416
949.185505	0.250480
949.362676	0.250119
949.539828	0.247850
949.716962	0.248757
949.894078	0.247792
950.071176	0.244747
950.248256	0.245931
950.425317	0.244917
950.602360	0.241943
950.779385	0.241715
950.956391	0.239021
951.133380	0.237865
951.310350	0.236112
951.487302	0.233981
951.664235	0.234520
951.841151	0.232962
952.018048	0.229488
952.194927	0.228121
952.371788	0.225617
952.548631	0.223283
952.725455	0.222236
952.902261	0.221117
953.079049	0.219483
953.255819	0.216197
953.432570	0.213434
953.609303	0.213087
953.786018	0.213669
953.962715	0.213545
954.139394	0.212398
954.316054	0.209807
954.492696	0.208313
954.669320	0.207400
954.845926	0.207621
955.022513	0.209729
955.199083	0.209259
955.375634	0.209323
955.552166	0.209968
955.728681	0.210972
955.905177	0.210721
956.081655	0.209730
956.258115	0.209981
956.434557	0.209261
956.610980	0.204747
956.787385	0.204241
956.963772	0.203711
957.140141	0.200880
957.316492	0.197989
957.492824	0.198601
957.669138	0.196796
957.845434	0.196637
958.021712	0.195776
958.197971	0.197217
958.374212	0.195753
958.550435	0.193116
958.726640	0.193112
958.902826	0.193783
959.078995	0.190856
959.255145	0.189286
959.431277	0.188186
959.607390	0.188371
959.783486	0.186673
959.959563	0.187112
960.135622	0.186928
960.311662	0.187426
960.487685	0.187331
960.663689	0.189326
960.839675	0.189891
961.015643	0.189167
961.191593	0.188150
961.367524	0.185649
961.543437	0.182744
961.719332	0.182317
961.895209	0.181432
962.071067	0.178558
962.246907	0.176684
962.422730	0.175265
962.598533	0.174537
962.774319	0.174835
962.950086	0.173917
963.125835	0.176130
963.301566	0.178259
963.477279	0.179221
963.652973	0.180920
963.828650	0.180307
964.004308	0.182489
964.179947	0.181526
964.355569	0.180380
964.531172	0.181661
964.706757	0.180957
964.882324	0.180180
965.057873	0.177938
965.233403	0.176463
965.408916	0.177024
965.584410	0.175405
965.759885	0.176125
965.935343	0.176782
966.110782	0.175808
966.286203	0.174804
966.461606	0.174812
966.636991	0.174402
966.812357	0.174971
966.987705	0.173028
967.163035	0.175650
967.338347	0.173709
967.513641	0.170778
967.688916	0.171740
967.864173	0.172201
968.039412	0.171349
968.214632	0.171391
968.389835	0.172767
968.565019	0.175740
968.740185	0.171276
968.915333	0.171391
969.090462	0.173060
969.265573	0.172921
969.440667	0.172358
969.615741	0.170246
969.790798	0.169507
969.965836	0.168447
970.140856	0.169086
970.315858	0.171741
970.490842	0.172557
970.665808	0.172878
970.840755	0.171710
971.015684	0.171777
971.190595	0.174900
971.365487	0.174895
971.540362	0.174735
971.715218	0.173175
971.890056	0.172036
972.064875	0.174958
972.239677	0.173495
972.414460	0.176127
972.589225	0.174371
972.763972	0.173095
972.938700	0.176114
973.113411	0.175339
973.288103	0.172548
973.462777	0.173034
973.637432	0.169988
973.812070	0.172060
973.986689	0.171221
974.161290	0.171623
974.335873	0.170172
974.510437	0.166995
974.684984	0.167664
974.859512	0.170192
975.034022	0.171352
975.208513	0.170960
975.382987	0.171845
975.557442	0.171132
975.731879	0.173201
975.906298	0.173676
976.080698	0.172245
976.255080	0.172311
976.429445	0.171542
976.603790	0.169327
976.778118	0.168801
976.952427	0.165718
977.126719	0.165519
977.300992	0.166063
977.475246	0.166546
977.649483	0.169434
977.823701	0.168049
977.997901	0.167795
978.172083	0.168200
978.346247	0.171109
978.520392	0.173111
978.694519	0.174596
978.868628	0.171589
979.042719	0.172015
979.216791	0.170596
979.390845	0.170951
979.564882	0.173164
979.738899	0.172991
979.912899	0.170336
980.086880	0.171337
980.260843	0.170179
980.434788	0.171075
980.608715	0.169786
980.782623	0.172537
980.956514	0.173616
981.130386	0.172247
981.304240	0.173245
981.478075	0.174377
981.651892	0.173922
981.825692	0.172830
981.999472	0.172507
982.173235	0.174977
982.346980	0.173264
982.520706	0.171988
982.694414	0.173605
982.868104	0.172953
983.041775	0.172233
983.215428	0.170744
983.389064	0.172575
983.562680	0.172572
983.736279	0.169360
983.909860	0.167850
984.083422	0.170657
984.256966	0.168048
984.430491	0.169285
984.603999	0.171345
984.777488	0.172021
984.950959	0.169108
985.124412	0.169631
985.297847	0.172112
985.471263	0.174838
985.644661	0.173071
985.818041	0.171945
985.991403	0.171836
986.164747	0.170088
986.338072	0.168712
986.511379	0.170099
986.684668	0.170348
986.857938	0.170362
987.031191	0.169247
987.204425	0.170499
987.377641	0.172645
987.550839	0.173630
987.724018	0.172628
987.897179	0.172632
988.070322	0.172762
988.243447	0.172678
988.416554	0.171224
988.589642	0.170421
988.762712	0.170022
988.935764	0.167364
989.108798	0.163808
989.281813	0.166368
989.454811	0.165509
989.627790	0.165464
989.800751	0.165189
989.973693	0.166837
990.146617	0.168342
990.319524	0.167128
990.492412	0.170578
990.665281	0.169866
990.838133	0.169693
991.010966	0.170655
991.183781	0.171730
991.356578	0.171040
991.529356	0.170277
991.702117	0.166373
991.874859	0.168664
992.047583	0.167823
992.220288	0.171051
992.392976	0.170839
992.565645	0.173167
992.738296	0.171740
992.910929	0.174498
993.083543	0.172939
993.256139	0.178539
993.428718	0.176710
993.601277	0.176037
993.773819	0.175427
993.946342	0.174969
994.118848	0.174038
994.291335	0.174007
994.463803	0.174643
994.636254	0.174950
994.808686	0.174130
994.981100	0.174502
995.153496	0.174503
995.325874	0.174818
995.498233	0.172818
995.670574	0.173681
995.842897	0.174283
996.015202	0.171622
996.187488	0.173071
996.359757	0.170902
996.532007	0.170257
996.704239	0.171071
996.876452	0.169924
997.048648	0.171174
997.220825	0.170836
997.392984	0.170347
997.565124	0.170593
997.737247	0.168065
997.909351	0.169323
998.081437	0.170553
998.253505	0.169684
998.425554	0.170551
998.597586	0.170305
998.769599	0.168768
998.941594	0.168332
999.113571	0.168951
999.285529	0.170668
999.457469	0.171625
999.629391	0.171541
999.801295	0.173611
999.973181	0.174859
1000.145048	0.176093
1000.316897	0.175588
1000.488728	0.176038
1000.660541	0.175154
1000.832335	0.173468
1001.004111	0.171869
1001.175869	0.170221
1001.347609	0.168169
1001.519331	0.168027
1001.691034	0.166624
1001.862719	0.169165
1002.034386	0.170627
1002.206035	0.169772
1002.377665	0.171246
1002.549277	0.171192
1002.720871	0.172707
1002.892447	0.173308
1003.064004	0.172010
1003.235544	0.173955
1003.407065	0.170948
1003.578568	0.169448
1003.750052	0.170466
1003.921519	0.169948
1004.092967	0.170283
1004.264397	0.169287
1004.435809	0.167290
1004.607202	0.166626
1004.778577	0.166087
1004.949934	0.167585
1005.121273	0.167869
1005.292594	0.167355
1005.463896	0.168741
1005.635180	0.168637
1005.806446	0.168535
1005.977694	0.169069
1006.148923	0.168355
1006.320135	0.167985
1006.491328	0.168188
1006.662503	0.168035
1006.833659	0.168600
1007.004798	0.166503
1007.175918	0.167128
1007.347020	0.167613
1007.518103	0.167893
1007.689169	0.167582
1007.860216	0.166588
1008.031245	0.165377
1008.202256	0.165185
1008.373248	0.164737
1008.544223	0.164556
1008.715179	0.163439
1008.886117	0.163593
1009.057036	0.165747
1009.227938	0.167467
1009.398821	0.167788
1009.569686	0.166945
1009.740533	0.167798
1009.911361	0.169582
1010.082172	0.169511
1010.252964	0.168883
1010.423738	0.166935
1010.594493	0.165378
1010.765231	0.165208
1010.935950	0.165913
1011.106651	0.166299
1011.277334	0.166278
1011.447998	0.164798
1011.618645	0.166066
1011.789273	0.166693
1011.959882	0.169347
1012.130474	0.171075
1012.301048	0.170003
1012.471603	0.170838
1012.642140	0.171341
1012.812658	0.170472
1012.983159	0.171124
1013.153641	0.168898
1013.324105	0.169654
1013.494551	0.168205
1013.664979	0.166350
1013.835388	0.166625
1014.005779	0.163561
1014.176152	0.161629
1014.346507	0.160194
1014.516843	0.160467
1014.687162	0.163905
1014.857462	0.162711
1015.027744	0.162213
1015.198007	0.162783
1015.368252	0.162968
1015.538480	0.165583
1015.708689	0.167366
1015.878879	0.169328
1016.049052	0.167561
1016.219206	0.164685
1016.389342	0.163883
1016.559460	0.162306
1016.729559	0.161200
1016.899641	0.163306
1017.069704	0.161439
1017.239749	0.161038
1017.409775	0.159883
1017.579784	0.160231
1017.749774	0.162286
1017.919746	0.163558
1018.089700	0.165328
1018.259635	0.164504
1018.429553	0.160777
1018.599452	0.162627
1018.769333	0.163409
1018.939195	0.163947
1019.109040	0.164672
1019.278866	0.164538
1019.448674	0.162877
1019.618464	0.164278
1019.788235	0.165788
1019.957989	0.169062
1020.127724	0.166296
1020.297441	0.166198
1020.467139	0.168577
1020.636820	0.167304
1020.806482	0.167083
1020.976126	0.168959
1021.145752	0.167158
1021.315359	0.166986
1021.484948	0.164790
1021.654519	0.166994
1021.824072	0.167293
1021.993607	0.166527
1022.163123	0.168409
1022.332621	0.167915
1022.502101	0.168009
1022.671563	0.166923
1022.841007	0.166814
1023.010432	0.167386
1023.179839	0.167040
1023.349228	0.166863
1023.518598	0.166100
1023.687951	0.164643
1023.857285	0.165103
1024.026601	0.164578
1024.195899	0.165878
1024.365178	0.166430
1024.534439	0.167277
1024.703682	0.166499
1024.872907	0.167112
1025.042114	0.166570
1025.211302	0.167110
1025.380472	0.166822
1025.549624	0.166441
1025.718758	0.166992
1025.887873	0.167281
1026.056970	0.167355
1026.226049	0.167672
1026.395110	0.166901
1026.564153	0.167094
1026.733177	0.166222
1026.902183	0.166101
1027.071171	0.167430
1027.240141	0.167321
1027.409092	0.165046
1027.578026	0.164474
1027.746940	0.164496
1027.915837	0.163985
1028.084716	0.164477
1028.253576	0.165008
1028.422418	0.165134
1028.591242	0.163333
1028.760048	0.163192
1028.928835	0.165905
1029.097604	0.164960
1029.266355	0.164512
1029.435088	0.164423
1029.603803	0.163126
1029.772499	0.164732
1029.941177	0.164369
1030.109837	0.165096
1030.278478	0.164414
1030.447102	0.163228
1030.615707	0.163703
1030.784294	0.164157
1030.952863	0.164412
1031.121413	0.163814
1031.289945	0.163749
1031.458460	0.165444
1031.626955	0.165748
1031.795433	0.165880
1031.963892	0.164831
1032.132334	0.164887
1032.300756	0.165980
1032.469161	0.163877
1032.637548	0.165592
1032.805916	0.164021
1032.974266	0.162098
1033.142598	0.162259
1033.310911	0.161471
1033.479207	0.163433
1033.647484	0.164127
1033.815743	0.163104
1033.983983	0.164952
1034.152206	0.164558
1034.320410	0.164112
1034.488596	0.166924
1034.656764	0.166727
1034.824914	0.166990
1034.993045	0.166415
1035.161158	0.167057
1035.329253	0.167554
1035.497330	0.166566
1035.665388	0.167149
1035.833428	0.165739
1036.001450	0.162902
1036.169454	0.162768
1036.337440	0.163945
1036.505407	0.163355
1036.673356	0.160914
1036.841287	0.159905
1037.009200	0.162148
1037.177094	0.162440
1037.344970	0.163771
1037.512828	0.165267
1037.680668	0.165729
1037.848489	0.164068
1038.016293	0.163465
1038.184078	0.166324
1038.351845	0.168192
1038.519593	0.167940
1038.687324	0.167801
1038.855036	0.168879
1039.022730	0.167787
1039.190406	0.166691
1039.358063	0.167672
1039.525702	0.169402
1039.693323	0.168952
1039.860926	0.167948
1040.028511	0.168127
1040.196077	0.167238
1040.363625	0.165941
1040.531155	0.163116
1040.698667	0.164507
1040.866161	0.163360
1041.033636	0.161998
1041.201093	0.160524
1041.368532	0.159650
1041.535952	0.158838
1041.703355	0.159208
1041.870739	0.159999
1042.038105	0.162587
1042.205452	0.162594
1042.372782	0.164244
1042.540093	0.163014
1042.707386	0.162023
1042.874661	0.161369
1043.041918	0.158311
1043.209156	0.158617
1043.376376	0.157990
1043.543578	0.159101
1043.710762	0.156188
1043.877927	0.156745
1044.045074	0.157334
1044.212203	0.158765
1044.379314	0.159159
1044.546407	0.161950
1044.713481	0.159826
1044.880537	0.159210
1045.047575	0.158317
1045.214595	0.160241
1045.381596	0.160053
1045.548579	0.161350
1045.715544	0.159935
1045.882491	0.160583
1046.049420	0.159639
1046.216330	0.159830
1046.383222	0.162150
1046.550096	0.161937
1046.716951	0.160853
1046.883789	0.160194
1047.050608	0.160607
1047.217409	0.162000
1047.384192	0.160815
1047.550956	0.161832
1047.717703	0.161925
1047.884431	0.161518
1048.051140	0.160110
1048.217832	0.160598
1048.384505	0.162414
1048.551161	0.160983
1048.717798	0.160054
1048.884416	0.162139
1049.051017	0.161609
1049.217599	0.162715
1049.384163	0.163108
1049.550709	0.164736
1049.717237	0.164661
1049.883746	0.163350
1050.050237	0.163547
1050.216710	0.163662
1050.383165	0.162390
1050.549601	0.164099
1050.716019	0.162076
1050.882420	0.160292
1051.048801	0.160250
1051.215165	0.160148
1051.381510	0.158172
1051.547837	0.159304
1051.714146	0.160995
1051.880437	0.160691
1052.046709	0.160068
1052.212964	0.164038
1052.379200	0.165370
1052.545417	0.164010
1052.711617	0.164315
1052.877798	0.165244
1053.043961	0.165045
1053.210106	0.163110
1053.376233	0.163060
1053.542341	0.162059
1053.708432	0.159831
1053.874504	0.158565
1054.040557	0.157933
1054.206593	0.158969
1054.372610	0.158748
1054.538609	0.158256
1054.704590	0.158173
1054.870553	0.158215
1055.036497	0.158231
1055.202424	0.158523
1055.368331	0.160879
1055.534221	0.161588
1055.700093	0.160497
1055.865946	0.161180
1056.031781	0.162118
1056.197598	0.162597
1056.363397	0.165508
1056.529177	0.164453
1056.694939	0.165190
1056.860683	0.161073
1057.026409	0.164301
1057.192116	0.163426
1057.357806	0.164122
1057.523477	0.162470
1057.689130	0.163318
1057.854764	0.160293
1058.020381	0.160647
1058.185979	0.158804
1058.351559	0.160828
1058.517120	0.158936
1058.682664	0.159720
1058.848189	0.157085
1059.013696	0.159635
1059.179185	0.156726
1059.344656	0.157784
1059.510108	0.158351
1059.675542	0.158819
1059.840958	0.158043
1060.006356	0.156465
1060.171735	0.158473
1060.337096	0.159821
1060.502439	0.155407
1060.667764	0.157844
1060.833071	0.156402
1060.998359	0.157332
1061.163629	0.154924
1061.328881	0.155557
1061.494115	0.156246
1061.659330	0.153001
1061.824527	0.155170
1061.989706	0.157760
1062.154867	0.158783
1062.320010	0.158119
1062.485134	0.158270
1062.650240	0.160654
1062.815328	0.159226
1062.980398	0.160686
1063.145449	0.163006
1063.310482	0.160993
1063.475497	0.160599
1063.640494	0.158792
1063.805473	0.160734
1063.970433	0.161797
1064.135375	0.161865
1064.300299	0.162325
1064.465204	0.159859
1064.630092	0.158576
1064.794961	0.159424
1064.959812	0.160605
1065.124645	0.161594
1065.289459	0.160124
1065.454256	0.158600
1065.619034	0.159907
1065.783793	0.162550
1065.948535	0.164657
1066.113258	0.165382
1066.277964	0.166066
1066.442651	0.163884
1066.607319	0.165164
1066.771970	0.166018
1066.936602	0.166830
1067.101216	0.166147
1067.265812	0.166718
1067.430389	0.165215
1067.594949	0.163591
1067.759490	0.164740
1067.924013	0.164903
1068.088518	0.164100
1068.253004	0.163909
1068.417472	0.162026
1068.581922	0.161614
1068.746354	0.159308
1068.910768	0.160032
1069.075163	0.161208
1069.239540	0.158212
1069.403899	0.158703
1069.568240	0.156826
1069.732562	0.156770
1069.896866	0.157346
1070.061152	0.158675
1070.225420	0.160594
1070.389670	0.161759
1070.553901	0.162454
1070.718114	0.163209
1070.882309	0.162616
1071.046486	0.164965
1071.210644	0.166949
1071.374784	0.168256
1071.538906	0.167725
1071.703010	0.166515
1071.867096	0.165942
1072.031163	0.165108
1072.195212	0.167517
1072.359243	0.168176
1072.523256	0.167689
1072.687250	0.164868
1072.851226	0.167022
1073.015184	0.167095
1073.179124	0.168222
1073.343045	0.168689
1073.506949	0.171252
1073.670834	0.170429
1073.834701	0.170903
1073.998549	0.169922
1074.162380	0.172409
1074.326192	0.171253
1074.489986	0.171636
1074.653761	0.170180
1074.817519	0.168292
1074.981258	0.167442
1075.144979	0.165304
1075.308682	0.166190
1075.472367	0.167425
1075.636033	0.165353
1075.799681	0.164194
1075.963311	0.164964
1076.126923	0.164129
1076.290516	0.165403
1076.454092	0.166292
1076.617649	0.167677
1076.781187	0.166872
1076.944708	0.168799
1077.108210	0.171538
1077.271695	0.173010
1077.435160	0.171380
1077.598608	0.174954
1077.762038	0.174478
1077.925449	0.173475
1078.088842	0.171936
1078.252217	0.172658
1078.415573	0.172406
1078.578912	0.171038
1078.742232	0.169383
1078.905534	0.170580
1079.068817	0.169375
1079.232083	0.171249
1079.395330	0.172083
1079.558559	0.173370
1079.721770	0.174838
1079.884962	0.176419
1080.048136	0.176164
1080.211293	0.175523
1080.374430	0.175451
1080.537550	0.174543
1080.700651	0.177676
1080.863735	0.177553
1081.026800	0.179273
1081.189846	0.178723
1081.352875	0.176108
1081.515885	0.177123
1081.678877	0.177788
1081.841851	0.179363
1082.004807	0.180739
1082.167744	0.177843
1082.330663	0.177218
1082.493564	0.174926
1082.656447	0.174307
1082.819312	0.172530
1082.982158	0.172333
1083.144986	0.174388
1083.307796	0.173214
1083.470587	0.173723
1083.633361	0.172856
1083.796116	0.174514
1083.958853	0.177314
1084.121571	0.175667
1084.284272	0.175290
1084.446954	0.176185
1084.609618	0.172374
1084.772264	0.175025
1084.934892	0.173683
1085.097501	0.174083
1085.260092	0.172889
1085.422665	0.172428
1085.585220	0.174842
1085.747756	0.179487
1085.910274	0.181486
1086.072774	0.184084
1086.235256	0.181826
1086.397720	0.182850
1086.560165	0.183725
1086.722592	0.182223
1086.885001	0.182029
1087.047392	0.183847
1087.209764	0.181992
1087.372119	0.180349
1087.534455	0.179336
1087.696772	0.176741
1087.859072	0.179439
1088.021353	0.181184
1088.183616	0.181030
1088.345861	0.178248
1088.508088	0.175890
1088.670296	0.176012
1088.832486	0.175377
1088.994658	0.177425
1089.156812	0.179093
1089.318948	0.175943
1089.481065	0.173397
1089.643164	0.174493
1089.805245	0.177563
1089.967308	0.180144
1090.129352	0.179049
1090.291378	0.178887
1090.453386	0.176990
1090.615376	0.174679
1090.777347	0.175460
1090.939301	0.176292
1091.101236	0.174368
1091.263153	0.174342
1091.425051	0.172954
1091.586932	0.174034
1091.748794	0.173100
1091.910638	0.173216
1092.072463	0.174527
1092.234271	0.177520
1092.396060	0.179071
1092.557831	0.180523
1092.719584	0.180257
1092.881319	0.181359
1093.043035	0.182597
1093.204733	0.184823
1093.366413	0.188068
1093.528075	0.194214
1093.689718	0.191336
1093.851343	0.188341
1094.012950	0.188627
1094.174539	0.187407
1094.336110	0.182593
1094.497662	0.183678
1094.659196	0.179706
1094.820712	0.177977
1094.982210	0.174455
1095.143689	0.172252
1095.305151	0.173436
1095.466594	0.176039
1095.628018	0.180275
1095.789425	0.184112
1095.950813	0.178559
1096.112183	0.182926
1096.273535	0.183948
1096.434869	0.180451
1096.596184	0.181678
1096.757482	0.182668
1096.918761	0.181582
1097.080021	0.176165
1097.241264	0.176119
1097.402488	0.179473
1097.563694	0.182376
1097.724882	0.184166
1097.886052	0.186858
1098.047203	0.185469
1098.208336	0.182630
1098.369451	0.183794
1098.530548	0.183605
1098.691627	0.183057
1098.852687	0.179070
1099.013729	0.170692
1099.174753	0.166727
1099.335758	0.164689
1099.496746	0.166694
1099.657715	0.166018
1099.818666	0.163891
1099.979599	0.167371
1100.140513	0.169346
1100.301409	0.173013
1100.462287	0.179977
1100.623147	0.183138
1100.783989	0.185313
1100.944812	0.183800
1101.105617	0.189406
1101.266404	0.190233
1101.427173	0.189114
1101.587923	0.187938
1101.748656	0.187665
1101.909370	0.185334
1102.070066	0.182621
1102.230743	0.182653
1102.391403	0.182094
1102.552044	0.184046
1102.712667	0.183032
1102.873271	0.185214
1103.033858	0.184538
1103.194426	0.187538
1103.354976	0.187801
1103.515508	0.188287
1103.676021	0.188622
1103.836517	0.190178
1103.996994	0.185682
1104.157453	0.185958
1104.317893	0.183587
1104.478316	0.183221
1104.638720	0.180547
1104.799106	0.183282
1104.959474	0.181368
1105.119823	0.181260
1105.280155	0.184240
1105.440468	0.182436
1105.600763	0.183731
1105.761039	0.178850
1105.921298	0.182112
1106.081538	0.184239
1106.241760	0.182529
1106.401964	0.185417
1106.562149	0.183745
1106.722316	0.179838
1106.882465	0.177314
1107.042596	0.181238
1107.202709	0.190444
1107.362803	0.188917
1107.522879	0.185125
1107.682937	0.184620
1107.842977	0.182667
1108.002999	0.183127
1108.163002	0.183614
1108.322987	0.189090
1108.482954	0.189429
1108.642902	0.180370
1108.802833	0.175656
1108.962745	0.173956
1109.122639	0.170971
1109.282515	0.172075
1109.442372	0.176985
1109.602211	0.180050
1109.762032	0.179557
1109.921835	0.175073
1110.081620	0.183895
1110.241386	0.187349
1110.401134	0.196771
1110.560864	0.198923
1110.720576	0.206133
1110.880269	0.199675
1111.039945	0.197741
1111.199602	0.195917
1111.359240	0.197112
1111.518861	0.195197
1111.678463	0.195277
1111.838047	0.191400
1111.997613	0.192385
1112.157161	0.187153
1112.316690	0.191522
1112.476202	0.188860
1112.635695	0.187462
1112.795169	0.185533
1112.954626	0.184243
1113.114064	0.184201
1113.273484	0.190300
1113.432886	0.188836
1113.592270	0.185936
1113.751635	0.181763
1113.910983	0.180037
1114.070312	0.186410
1114.229622	0.190706
1114.388915	0.187509
1114.548189	0.185713
1114.707445	0.177168
1114.866683	0.179734
1115.025903	0.180402
1115.185104	0.185278
1115.344287	0.188729
1115.503452	0.185494
1115.662599	0.183916
1115.821727	0.193366
1115.980838	0.197148
1116.139930	0.203186
1116.299004	0.198581
1116.458059	0.203555
1116.617097	0.200470
1116.776116	0.196888
1116.935117	0.197251
1117.094099	0.197153
1117.253064	0.190712
1117.412010	0.189632
1117.570938	0.190744
1117.729848	0.196823
1117.888740	0.193586
1118.047613	0.195696
1118.206468	0.198861
1118.365305	0.200019
1118.524124	0.197640
1118.682924	0.199771
1118.841707	0.196682
1119.000471	0.195562
1119.159216	0.191651
1119.317944	0.186018
1119.476653	0.187627
1119.635344	0.189337
1119.794017	0.188857
1119.952672	0.187964
1120.111308	0.187239
1120.269927	0.192594
1120.428527	0.182315
1120.587108	0.184079
1120.745672	0.191878
1120.904217	0.188414
1121.062744	0.188740
1121.221253	0.187326
1121.379744	0.191445
1121.538216	0.192690
1121.696671	0.194185
1121.855107	0.199066
1122.013524	0.203233
1122.171924	0.202109
1122.330305	0.203868
1122.488668	0.207721
1122.647013	0.211285
1122.805340	0.208951
1122.963648	0.206549
1123.121938	0.199612
1123.280210	0.202210
1123.438464	0.198834
1123.596700	0.198919
1123.754917	0.196757
1123.913116	0.191764
1124.071297	0.189499
1124.229459	0.191877
1124.387604	0.189926
1124.545730	0.194131
1124.703838	0.193843
1124.861928	0.192147
1125.019999	0.189569
1125.178052	0.187822
1125.336088	0.189621
1125.494104	0.192736
1125.652103	0.182875
1125.810083	0.179572
1125.968045	0.179766
1126.125989	0.175693
1126.283915	0.175879
1126.441823	0.178191
1126.599712	0.179162
1126.757583	0.178278
1126.915436	0.174046
1127.073270	0.181430
1127.231087	0.189158
1127.388885	0.188323
1127.546665	0.189357
1127.704426	0.191593
1127.862170	0.194017
1128.019895	0.196581
1128.177602	0.198220
1128.335291	0.196394
1128.492961	0.196040
1128.650614	0.202266
1128.808248	0.199041
1128.965864	0.205491
1129.123461	0.199096
1129.281041	0.200080
1129.438602	0.206076
1129.596145	0.202240
1129.753670	0.210104
1129.911176	0.212150
1130.068665	0.197640
1130.226135	0.197195
1130.383587	0.188945
1130.541020	0.198831
1130.698436	0.199863
1130.855833	0.197025
1131.013212	0.193340
1131.170573	0.186858
1131.327915	0.187500
1131.485239	0.191606
1131.642545	0.196903
1131.799833	0.194518
1131.957103	0.187693
1132.114354	0.183789
1132.271588	0.186019
1132.428803	0.192192
1132.585999	0.197222
1132.743178	0.191655
1132.900338	0.198220
1133.057480	0.195778
1133.214604	0.202592
1133.371710	0.205121
1133.528797	0.209729
1133.685866	0.201111
1133.842917	0.201625
1133.999950	0.193945
1134.156964	0.195903
1134.313960	0.191069
1134.470938	0.190419
1134.627898	0.189134
1134.784840	0.188808
1134.941763	0.185823
1135.098668	0.187388
1135.255555	0.186903
1135.412424	0.195348
1135.569274	0.193489
1135.726107	0.190246
1135.882921	0.192350
1136.039716	0.193345
1136.196494	0.191915
1136.353253	0.189173
1136.509995	0.193732
1136.666717	0.192008
1136.823422	0.189888
1136.980109	0.190507
1137.136777	0.201145
1137.293427	0.197269
1137.450059	0.198323
1137.606672	0.202483
1137.763267	0.205556
1137.919844	0.195348
1138.076403	0.205481
1138.232944	0.202496
1138.389466	0.202322
1138.545971	0.196628
1138.702457	0.200519
1138.858924	0.200332
1139.015374	0.200676
1139.171805	0.194360
1139.328218	0.202819
1139.484613	0.199258
1139.640990	0.201853
1139.797348	0.210751
1139.953688	0.210252
1140.110010	0.200849
1140.266314	0.204604
1140.422600	0.207716
1140.578867	0.209275
1140.735116	0.214197
1140.891347	0.211986
1141.047559	0.210719
1141.203754	0.205376
1141.359930	0.207212
1141.516088	0.216102
1141.672228	0.208442
1141.828349	0.208028
1141.984452	0.211819
1142.140537	0.209552
1142.296604	0.211408
1142.452653	0.215638
1142.608683	0.223744
1142.764695	0.220449
1142.920689	0.223122
1143.076665	0.225039
1143.232622	0.217167
1143.388562	0.217567
1143.544483	0.215460
1143.700385	0.216350
1143.856270	0.214444
1144.012136	0.211387
1144.167985	0.214035
1144.323814	0.212431
1144.479626	0.221102
1144.635420	0.229239
1144.791195	0.227483
1144.946952	0.228174
1145.102691	0.226013
1145.258411	0.219081
1145.414113	0.211426
1145.569798	0.204598
1145.725463	0.207809
1145.881111	0.194386
1146.036741	0.193279
1146.192352	0.191849
1146.347945	0.184024
1146.503519	0.184240
1146.659076	0.187988
1146.814614	0.191076
1146.970134	0.189480
1147.125636	0.191973
1147.281120	0.202061
1147.436585	0.202719
1147.592032	0.206470
1147.747461	0.215312
1147.902872	0.205584
1148.058265	0.202334
1148.213639	0.199043
1148.368995	0.204902
1148.524333	0.191484
1148.679653	0.190734
1148.834954	0.190134
1148.990237	0.190935
1149.145502	0.197712
1149.300749	0.212482
1149.455977	0.225752
1149.611188	0.232528
1149.766380	0.237721
1149.921553	0.239768
1150.076709	0.234642
1150.231846	0.215693
1150.386966	0.225600
1150.542066	0.209121
1150.697149	0.196465
1150.852214	0.185379
1151.007260	0.188772
1151.162288	0.179300
1151.317298	0.185164
1151.472289	0.177773
1151.627263	0.189705
1151.782218	0.181565
1151.937155	0.193324
1152.092073	0.195265
1152.246974	0.197960
1152.401856	0.195908
1152.556720	0.204536
1152.711566	0.199694
1152.866393	0.208257
1153.021203	0.209045
1153.175994	0.204259
1153.330767	0.212315
1153.485521	0.220326
1153.640258	0.218088
1153.794976	0.213730
1153.949676	0.210507
1154.104358	0.204155
1154.259021	0.200487
1154.413667	0.198494
1154.568294	0.202969
1154.722903	0.192371
1154.877493	0.185266
1155.032066	0.195658
1155.186620	0.196314
1155.341156	0.190576
1155.495674	0.181107
1155.650173	0.180596
1155.804654	0.183259
1155.959118	0.176345
1156.113562	0.178135
1156.267989	0.181521
1156.422397	0.172562
1156.576788	0.182299
1156.731160	0.187468
1156.885513	0.199397
1157.039849	0.205072
1157.194166	0.206077
1157.348465	0.200086
1157.502746	0.201404
1157.657009	0.183720
1157.811253	0.185906
1157.965479	0.176718
1158.119687	0.181541
1158.273877	0.192510
1158.428048	0.181720
1158.582201	0.172131
1158.736337	0.175230
1158.890453	0.165435
1159.044552	0.174799
1159.198632	0.177927
1159.352694	0.178710
1159.506738	0.171989
1159.660764	0.172837
1159.814771	0.176043
1159.968761	0.186548
1160.122732	0.195218
1160.276685	0.188112
1160.430619	0.184464
1160.584535	0.176936
1160.738434	0.169887
1160.892313	0.166279
1161.046175	0.144460
1161.200019	0.158585
1161.353844	0.165980
1161.507651	0.165276
1161.661440	0.175926
1161.815210	0.190525
1161.968962	0.181671
1162.122697	0.193135
1162.276412	0.181988
1162.430110	0.200216
1162.583789	0.190070
1162.737451	0.176278
1162.891094	0.175820
1163.044718	0.174082
1163.198325	0.169098
1163.351913	0.163732
1163.505483	0.170107
1163.659035	0.184620
1163.812569	0.182746
1163.966084	0.173652
1164.119581	0.176847
1164.273060	0.168832
1164.426521	0.160838
1164.579964	0.156164
1164.733388	0.184884
1164.886794	0.175351
1165.040182	0.169324
1165.193551	0.166965
1165.346903	0.179357
1165.500236	0.172498
1165.653551	0.174597
1165.806848	0.179943
1165.960126	0.185360
1166.113386	0.174353
1166.266628	0.168584
1166.419852	0.157081
1166.573058	0.161883
1166.726245	0.164844
1166.879414	0.169129
1167.032565	0.173217
1167.185698	0.170569
1167.338812	0.152539
1167.491909	0.133120
1167.644987	0.138424
1167.798046	0.152245
1167.951088	0.154598
1168.104111	0.159036
1168.257117	0.152417
1168.410103	0.139252
1168.563072	0.140068
1168.716023	0.156060
1168.868955	0.176971
1169.021869	0.173489
1169.174765	0.165448
1169.327642	0.147232
1169.480501	0.137962
1169.633343	0.147882
1169.786165	0.157136
1169.938970	0.152074
1170.091757	0.139139
1170.244525	0.124792
1170.397275	0.107685
1170.550007	0.122254
1170.702720	0.133453
1170.855415	0.128962
1171.008092	0.113334
1171.160751	0.103308
1171.313392	0.099417
1171.466014	0.148230
1171.618619	0.070455
1171.771205	0.070455
1171.923772	0.070455
