sample name	sample
index	1412
start time	 05-10-2021  11:41:00 AM
880	0.330978
Peak Time (s)	92.538
Peak Height 	0.331
calc peak height	90,93
Baseline Time (s)	10.537
Baseline Value 	-0.004456
subtract baseline	10,4
Abs	0.219352
Peak Time (s)	92.538
Peak Height 	0.2194
calc peak height	90,93
Baseline Time (s)	11.535
Baseline Value 	0.002673
subtract baseline	10,3
PK_550	0.122870
Peak Time (s)	91.538
Peak Height 	0.1229
calc peak height	90,93
Baseline Time (s)	11.038
Baseline Value 	5.5959E-4
subtract baseline	10,2
PK_880	0.205814
Peak Time (s)	92.538
Peak Height 	0.2058
calc peak height	90,93
Baseline Time (s)	11.038
Baseline Value 	0.002024
subtract baseline	10,1


Time (s)	A880-A510	A880-A775	A880-A975	A880	I510	I775	I975	I880	
0.034500	-0.000894	-0.000895	-0.003861	0.001673	6508.071123	44271.053912	3918.359546	22669.528727
0.537000	-0.001265	-0.000059	-0.004282	0.004503	6481.207550	44081.678980	3910.131554	22540.827433
1.037500	-0.003245	0.000354	-0.001165	0.006067	6451.702700	43972.879657	3914.056104	22470.096446
1.537500	-0.001046	-0.000309	-0.000838	0.001427	6508.859681	44350.356710	3926.694901	22680.744406
2.035500	-0.000841	0.000152	-0.001485	0.000897	6515.055847	44444.881833	3926.395278	22704.938316
2.535500	-0.000434	0.000142	-0.003370	0.001261	6515.416134	44409.154623	3920.655450	22688.319761
3.036500	-0.001050	0.000940	-0.000624	0.001923	6504.643115	44422.076542	3925.971527	22658.085843
3.536500	-0.001243	0.000411	0.002662	0.001044	6510.424002	44455.555384	3936.674842	22698.213580
4.036500	0.001073	0.000600	-0.003022	0.001127	6529.286420	44465.702026	3921.880932	22694.409704
4.536500	0.000338	0.000020	-0.003527	0.000717	6526.543115	44449.512915	3921.642918	22713.187685
5.037500	-0.002572	-0.001277	0.000788	-0.000216	6509.843848	44414.729181	3935.092329	22755.877603
5.535000	0.000063	0.000328	-0.001210	0.000728	6524.122644	44477.866048	3927.531663	22712.670449
6.038000	-0.001530	-0.000055	0.004101	0.000383	6513.582685	44474.309913	3942.112861	22728.462360
6.535000	-0.001913	0.000313	0.002700	0.000337	6510.729890	44513.801395	3938.600787	22730.531487
7.038500	-0.001975	-0.000057	0.001226	0.000293	6510.591052	44482.718048	3934.910431	22732.579258
7.536000	-0.000254	0.000303	0.001874	0.000237	6525.586320	44522.449657	3936.723970	22735.111049
8.039000	-0.000796	-0.000286	0.001727	-0.000165	6524.405606	44504.573967	3937.381984	22753.520125
8.536500	-0.000898	0.000519	-0.000256	0.000350	6519.192915	44532.383878	3930.947563	22729.969067
9.037500	0.000693	-0.000482	0.001318	-0.000833	6542.701259	44549.745147	3938.053751	22784.164764
9.536500	-0.000276	-0.000025	-0.000184	0.000001	6527.397832	44513.621695	3932.028863	22745.912494
10.034500	0.000143	0.001069	-0.000887	0.000744	6524.661888	44547.266413	3928.317092	22711.930103
10.537500	0.000016	0.000464	0.002815	0.000000	6529.882978	44560.627934	3939.770377	22745.971601
11.038000	0.000000	0.000000	0.000807	-0.000459	6533.642022	44560.151417	3935.768365	22767.020732
11.535000	-0.001763	-0.000156	0.000000	-0.000991	6523.209971	44596.177659	3935.057608	22791.404208
12.036000	0.000317	-0.000104	-0.005329	-0.000580	6537.352696	44561.709912	3920.353641	22772.537608
12.536500	-0.000074	-0.000043	0.003823	-0.000626	6534.421786	44571.908356	3944.009130	22774.638200
13.036500	-0.002009	0.000293	0.001484	0.001980	6496.106915	44354.974736	3931.229300	22655.495632
13.539500	-0.001172	0.000245	-0.001189	-0.000415	6523.334332	44579.295433	3930.515773	22764.964689
14.036500	0.000180	0.000301	-0.003553	0.002169	6512.933902	44337.690975	3917.880349	22646.890526
14.537500	-0.000724	0.000845	0.000400	0.002531	6502.274721	44355.047722	3927.036233	22630.413710
15.040500	-0.005366	-0.000383	-0.003400	0.004043	6450.892994	44094.607033	3913.522132	22561.692290
15.535000	-0.001111	0.000157	-0.001918	-0.000577	6525.227960	44586.443391	3929.060607	22772.416176
16.035000	-0.000210	-0.000130	-0.004698	-0.000663	6533.594788	44567.255448	3922.174926	22776.377671
16.536000	-0.000210	0.000569	0.001708	-0.000148	6529.225697	44584.894508	3937.289425	22752.759776
17.036500	-0.001128	-0.000354	0.001604	0.002143	6502.135932	44277.740441	3931.119683	22648.067310
17.539500	-0.000164	-0.000181	-0.005704	0.000582	6523.425688	44443.127981	3916.449231	22719.319084
18.036500	-0.002886	0.000239	0.002623	0.001072	6496.372041	44436.522020	3936.504357	22696.957296
18.537000	-0.002321	0.001052	-0.001000	0.001817	6494.854362	44442.998433	3925.280531	22662.934358
19.036500	-0.000664	0.000510	-0.003841	0.002928	6499.441393	44285.291764	3915.225091	22612.329057
19.534500	0.001292	0.000703	0.000166	0.001568	6527.408355	44433.417481	3928.904254	22674.298459
20.038000	-0.002513	-0.000294	-0.001897	0.000783	6501.931875	44413.147432	3925.631934	22710.151138
20.535000	-0.002276	-0.000130	0.000186	0.001094	6501.303597	44399.150200	3930.170533	22695.930432
21.035500	-0.002595	0.000427	-0.000316	0.002115	6490.057344	44354.860971	3926.269273	22649.342397
21.536000	-0.000544	-0.000491	-0.001495	0.000647	6519.666446	44407.354684	3927.008209	22716.355270
22.036000	-0.001547	-0.000100	-0.000377	0.000804	6509.890193	44429.685856	3929.472257	22709.201101
22.536500	-0.002542	-0.000372	-0.000984	0.001301	6497.334913	44356.237385	3926.640660	22686.471309
23.037000	-0.000790	0.000443	0.001550	0.002088	6505.445706	44358.946249	3931.123298	22650.593571
23.537000	-0.000845	0.000659	0.000656	0.001685	6508.375627	44418.052166	3929.862872	22668.981285
24.037500	0.000069	0.000363	0.001278	0.001594	6516.853030	44398.481622	3931.693022	22673.102994
24.537500	-0.001251	-0.000514	-0.001963	0.001319	6508.045825	44341.074679	3924.095467	22685.681059
25.035000	-0.000048	0.000374	0.005152	0.002207	6510.697132	44341.083285	3940.109454	22645.185134
25.538000	-0.000288	0.001042	0.002804	0.002439	6506.712094	44382.578743	3933.444592	22634.580810
26.035500	-0.002977	-0.000772	-0.004188	0.000790	6497.967934	44366.810740	3919.771144	22709.806895
26.541000	-0.000379	-0.000386	0.001614	0.001294	6515.604330	44355.669846	3933.327831	22686.807006
27.036500	0.000582	0.000152	-0.001068	-0.000804	6541.504933	44607.754677	3931.825637	22782.817631
27.537000	0.000097	0.000888	0.000709	0.000081	6529.879371	44593.448928	3934.121231	22742.242115
28.037000	-0.001763	-0.000456	-0.001272	-0.000383	6518.082214	44509.192653	3930.221623	22763.539171
28.537000	-0.002334	0.000606	0.000790	0.003025	6484.622662	44285.262193	3926.771692	22607.935181
29.034500	-0.005017	-0.000129	0.001708	0.005093	6445.077817	44019.153616	3923.829049	22514.094629
29.538000	-0.000270	0.000686	-0.000301	0.000424	6523.875453	44541.296618	3930.641846	22726.576905
30.035500	-0.001409	-0.000089	0.002334	-0.000200	6519.520345	44526.728332	3939.043474	22755.122340
30.535500	-0.002318	0.000398	-0.002117	0.003375	6481.828663	44232.107886	3918.465032	22591.998735
31.036000	-0.002586	-0.000367	-0.000958	0.001277	6497.166628	44359.101395	3926.771536	22687.593376
31.536000	0.000803	0.000219	-0.002198	-0.000161	6537.923363	44552.518025	3927.275539	22753.325533
32.036500	-0.000914	0.000095	0.000860	-0.000623	6527.283945	44585.003201	3936.326521	22774.529852
32.537000	0.000899	0.000054	0.000481	0.002597	6515.395777	44273.484362	3927.077253	22627.424631
33.036500	0.001842	0.000800	0.002235	-0.001286	6556.342291	44716.295599	3941.599788	22804.934174
33.537000	-0.001417	0.000595	-0.001003	0.001210	6507.557719	44457.312037	3926.826758	22690.649506
34.037500	-0.000498	0.000189	-0.000863	0.001897	6509.513108	44352.985189	3925.426211	22659.285280
34.535000	-0.000262	0.000684	0.002791	0.002956	6502.585994	44299.266969	3932.082208	22611.077914
35.035000	-0.000642	0.000473	-0.000221	0.002428	6503.830296	44329.453093	3925.712993	22635.109479
35.536000	-0.003555	0.000102	0.005821	0.001633	6486.053975	44369.801734	3943.329410	22671.313649
36.035500	-0.001207	-0.000366	0.001522	0.001064	6510.558146	44379.466898	3933.685241	22697.324728
36.536000	-0.004791	0.000668	-0.002786	0.003089	6463.588940	44285.045486	3917.492368	22605.009991
37.036500	-0.000375	0.000586	-0.002370	0.002447	6505.920274	44338.396998	3920.182708	22634.237681
37.537000	-0.000294	0.000685	-0.000787	0.002379	6507.170505	44354.326629	3924.391268	22637.330601
38.037000	-0.000454	0.000667	0.002886	0.002052	6508.579536	44383.852250	3934.654979	22652.247255
38.538000	0.000279	0.000828	0.000296	0.002352	6512.228992	44370.507007	3927.229319	22638.546849
39.035000	-0.000477	0.000392	0.003573	0.002276	6506.497859	44336.089303	3935.845982	22641.999654
39.535000	-0.000658	0.000875	0.001942	0.002222	6505.428709	44387.384856	3931.784617	22644.467923
40.035500	-0.001833	-0.000276	0.002646	0.001439	6502.128867	44352.279697	3935.612994	22680.174891
40.535000	-0.002004	0.000160	0.001831	0.001925	6496.611870	44347.516412	3932.264554	22658.033533
41.036000	-0.001215	-0.000359	-0.002500	0.001228	6509.106032	44364.431615	3922.956380	22689.803371
41.536000	0.000183	0.000806	-0.000001	0.002179	6512.880689	44384.952484	3926.910159	22646.440127
42.036500	0.000124	0.000669	0.004171	0.002266	6511.646417	44363.542778	3937.416549	22642.459226
42.539000	-0.001504	0.000015	-0.002568	0.001624	6503.340609	44362.375088	3921.771315	22671.725784
43.034000	-0.001709	0.000187	-0.000608	0.001616	6501.689774	44379.570756	3926.798511	22672.118518
43.537000	0.000636	0.000984	0.004176	-0.002994	6560.635342	44898.769219	3951.103975	22883.558799
44.034500	0.002170	0.001096	0.003292	-0.000117	6549.178312	44632.510970	3941.311646	22751.352634
44.537500	0.001483	0.000891	0.004437	-0.000065	6542.889259	44607.782033	3944.147529	22748.959329
45.035000	-0.002724	0.000130	-0.001692	0.003896	6474.090904	44157.198864	3918.222731	22568.370643
45.538000	0.001268	0.001270	0.001248	0.000661	6534.890722	44574.489081	3934.016571	22715.708593
46.039000	0.000559	-0.000081	0.002222	-0.000629	6539.831913	44568.721621	3939.864296	22774.814683
46.538500	-0.000873	0.001344	0.000592	0.006143	6470.788641	44059.296263	3918.318010	22466.664637
47.037500	-0.002906	0.000474	-0.002653	0.002808	6481.654301	44293.317957	3918.544302	22617.807852
47.537000	-0.001027	0.000108	0.000359	0.001172	6511.165821	44414.441008	3930.414865	22692.369066
48.040500	0.000261	0.000549	0.000970	-0.000887	6539.488178	44653.887863	3937.293333	22786.641030
48.535000	-0.003163	0.000279	0.001815	0.005296	6458.769541	44038.588991	3923.584872	22504.908100
49.035500	-0.003439	0.000762	-0.003217	0.003572	6470.823178	44247.965355	3915.174603	22583.053899
49.535500	0.001192	0.000869	0.001725	-0.002409	6560.388744	44831.201369	3943.192440	22856.613867
50.035500	0.001130	0.000370	0.003440	-0.000329	6542.131432	44583.152852	3942.245011	22761.053969
50.536000	-0.002608	0.000518	0.001529	0.007605	6444.231054	43843.170784	3916.983047	22400.742310
51.036500	0.027933	-0.030512	0.133800	0.533026	4000.339507	14298.139192	3260.839953	8686.840182
51.536500	-0.008664	-0.024498	-0.003152	0.044036	6109.295506	38446.682816	3817.475960	20828.306524
52.036500	-0.015622	-0.057359	-0.034823	-0.215790	8684.041287	62819.081478	4510.045421	35545.188133
52.537000	-0.015380	-0.115745	-0.029874	-0.293441	9830.031299	65535.000000	4865.072914	41944.567433
53.037500	-0.007298	-0.066137	-0.013909	-0.232594	9031.516355	63935.978900	4663.815509	36834.721192
53.534500	-0.000732	-0.027834	-0.002200	-0.140747	7929.496752	56860.868057	4352.334258	30358.167157
54.035000	-0.003782	-0.024470	-0.003940	-0.143085	7921.173701	57573.510011	4354.454116	30506.643181
54.535500	-0.008224	-0.018985	-0.006498	-0.137214	7802.169343	57524.976130	4324.867589	30135.351555
55.036000	0.009316	-0.020545	0.014963	-0.147266	8126.984262	58602.857634	4438.476988	30774.073377
55.536000	0.019967	-0.013709	0.031186	-0.095626	7651.753414	53146.658763	4311.357396	27644.475834
56.036500	0.031543	-0.001091	0.042564	-0.014961	6945.598776	45865.319766	4090.736377	23442.997411
56.536500	0.041306	0.009116	0.057705	0.045406	6495.177394	41183.193270	3964.597332	20771.703622
57.034500	0.058314	0.019710	0.070984	0.074501	6395.131603	39588.215204	3923.494706	19610.923959
57.540000	0.075975	0.029654	0.094465	0.119981	6175.193634	36708.962043	3868.757019	17945.321245
58.035000	0.087859	0.037176	0.095212	0.142626	6093.821965	35553.270648	3816.952953	17178.810055
58.534500	0.097795	0.045574	0.111491	0.181889	5882.030412	33315.897623	3765.318840	15940.939250
59.035500	0.113538	0.051613	0.126412	0.191440	5925.570029	33071.330698	3777.141636	15656.383307
59.535500	0.127975	0.061628	0.141736	0.215774	5856.280999	32094.042806	3757.390333	14959.004922
60.035500	0.134511	0.068826	0.154994	0.223734	5846.437798	32042.912269	3768.952632	14739.223010
60.535500	0.139090	0.074531	0.154557	0.243291	5744.872994	31129.349658	3726.043748	14216.091563
61.036500	0.150209	0.079586	0.173290	0.255754	5735.927396	30652.545213	3739.287058	13894.775261
61.536500	0.154290	0.087863	0.173031	0.270279	5667.368524	30256.734246	3708.362797	13531.784985
62.037000	0.161169	0.092180	0.169365	0.257836	5795.525896	31331.534264	3726.595966	13842.000966
62.537000	0.162612	0.093603	0.173395	0.255808	5819.160874	31558.036056	3739.396228	13893.416970
63.046500	0.167170	0.097202	0.173744	0.251353	5881.411373	32093.663372	3749.675413	14007.191199
63.540500	0.168582	0.099015	0.174399	0.251094	5893.100771	32233.104993	3751.643963	14013.850207
64.035500	0.167858	0.101133	0.175391	0.252247	5879.973340	32298.265849	3751.296847	13984.253038
64.535500	0.171407	0.102163	0.182336	0.253765	5894.178616	32265.316095	3763.068243	13945.445115
65.036000	0.174866	0.105308	0.179629	0.257188	5894.424720	32246.534521	3749.783378	13858.394967
65.536000	0.173362	0.105370	0.184341	0.258018	5878.113853	32194.768200	3758.175160	13837.403410
66.036000	0.177360	0.107857	0.183320	0.260702	5887.284853	32181.494643	3750.162873	13769.745522
66.536500	0.177650	0.107716	0.186494	0.261811	5881.562119	32097.435720	3754.619139	13741.926387
67.037000	0.176946	0.109186	0.180343	0.268008	5833.785084	31781.829406	3728.288630	13587.739553
67.534500	0.182561	0.110968	0.193168	0.265372	5891.005408	32076.709552	3761.376938	13653.062256
68.034500	0.180983	0.111422	0.191145	0.266810	5869.957308	32010.791128	3753.867673	13617.365965
68.535000	0.183237	0.113062	0.189762	0.268890	5871.168161	31981.341478	3746.411958	13565.956308
69.038500	0.185939	0.114071	0.196382	0.271970	5868.546400	31843.225202	3754.034680	13490.305754
69.536000	0.186947	0.114345	0.195876	0.273986	5861.539541	31727.487597	3748.598537	13441.050863
70.036000	0.188628	0.115855	0.196242	0.276904	5852.976809	31634.272969	3743.129568	13370.181444
70.536000	0.184442	0.114696	0.192561	0.283716	5777.897060	31112.482080	3720.980783	13206.602842
71.037000	0.187746	0.115691	0.195919	0.285877	5785.611893	31036.897376	3723.479396	13155.228647
71.539500	0.188393	0.116063	0.199783	0.283563	5805.693513	31211.195827	3736.492196	13210.239951
72.037000	0.192157	0.118962	0.197382	0.287838	5802.219506	31121.792108	3722.438806	13108.838182
72.540000	0.189019	0.117212	0.197981	0.292970	5746.538750	30678.728238	3713.020034	12988.433792
73.034500	0.189848	0.119133	0.201235	0.295512	5735.140714	30639.105065	3714.493532	12929.316665
73.535000	0.195174	0.120954	0.207533	0.294778	5775.674667	30802.563924	3729.171283	12946.341939
74.036000	0.194158	0.120606	0.206040	0.296113	5759.881700	30694.819461	3723.241071	12915.390115
74.536000	0.194477	0.119989	0.206586	0.303456	5713.204696	30190.701911	3709.139585	12746.762809
75.036000	0.194581	0.120951	0.204204	0.304557	5706.641623	30182.011974	3702.000415	12721.734946
75.536500	0.195744	0.121290	0.209521	0.301933	5731.653713	30368.478255	3718.362482	12781.505664
76.039500	0.198509	0.120819	0.212720	0.303408	5740.228352	30245.872827	3721.954720	12747.866677
76.537000	0.198071	0.120627	0.207203	0.308313	5704.893552	29927.259845	3700.456065	12636.801179
77.034500	0.200279	0.121429	0.208146	0.304846	5742.431327	30193.794585	3709.489403	12715.158357
77.535000	0.196993	0.122264	0.208595	0.306100	5712.355315	30167.520464	3707.832957	12686.743326
78.035000	0.197923	0.123282	0.212781	0.306539	5715.597498	30203.876957	3715.566948	12676.811151
78.535500	0.199945	0.123580	0.206864	0.307355	5723.565105	30171.376381	3701.716336	12658.378131
79.036000	0.197472	0.122821	0.209662	0.310215	5688.498839	29945.401003	3701.592741	12594.071408
79.536000	0.199576	0.123191	0.209447	0.307058	5723.086287	30165.589731	3707.615977	12665.092251
80.036500	0.199231	0.121754	0.211087	0.305834	5728.912680	30152.276183	3713.520800	12692.774069
80.540000	0.198545	0.123362	0.209568	0.311083	5689.839488	29925.094516	3699.629081	12574.619497
81.037000	0.199289	0.123720	0.211315	0.306681	5723.685809	30222.461124	3712.240233	12673.606782
81.534500	0.200798	0.124220	0.211826	0.306027	5738.032097	30295.025536	3714.650711	12688.398935
82.035000	0.202546	0.123906	0.210045	0.306786	5744.614933	30227.595364	3709.406381	12671.241331
82.535000	0.199627	0.123369	0.208496	0.306139	5729.508793	30234.472745	3707.549859	12685.859255
83.035500	0.202145	0.124201	0.210787	0.307129	5739.658920	30224.544842	3710.227358	12663.494519
83.535000	0.203639	0.124875	0.220409	0.308940	5737.549772	30153.192633	3726.469290	12622.691471
84.035500	0.204195	0.124491	0.207798	0.309317	5738.743628	30105.532665	3699.622471	12614.212554
84.536000	0.203411	0.124809	0.213205	0.311704	5717.729423	29976.458404	3705.793934	12560.738612
85.036500	0.204357	0.124426	0.214367	0.311077	5728.134497	29991.606682	3709.468437	12574.754920
85.536500	0.204140	0.123911	0.219301	0.311449	5724.233700	29936.473009	3718.912307	12566.438409
86.037000	0.206681	0.123850	0.218705	0.313116	5730.022542	29829.221946	3714.215237	12529.236856
86.534500	0.203150	0.123003	0.221043	0.316350	5685.513976	29577.733366	3712.362623	12457.493233
87.035000	0.204487	0.125098	0.221102	0.316266	5694.806668	29711.719777	3712.659027	12459.356036
87.535000	0.202582	0.123752	0.215073	0.316057	5683.722623	29641.781500	3700.713015	12463.986679
88.035500	0.205628	0.123305	0.212712	0.318133	5690.057627	29487.113873	3691.712210	12418.175719
88.535500	0.203024	0.122579	0.215402	0.320157	5659.956614	29319.501402	3693.056106	12373.716971
89.036000	0.203927	0.122383	0.214183	0.320604	5662.903779	29280.500591	3689.697080	12363.930599
89.536500	0.202672	0.122702	0.212715	0.321642	5648.093101	29236.865493	3684.665219	12341.230464
90.037000	0.204729	0.122808	0.213981	0.323912	5646.725920	29106.230064	3682.658060	12291.809890
90.537000	0.204407	0.121853	0.218985	0.324550	5640.552581	29010.435589	3691.421968	12277.962452
91.034500	0.203395	0.121408	0.212156	0.330242	5597.810762	28644.615700	3666.522888	12155.314859
91.538000	0.205245	0.122870	0.217708	0.327924	5624.299374	28869.240629	3682.087802	12205.049385
92.035500	0.203346	0.121304	0.218635	0.328374	5609.342151	28749.237680	3683.041754	12195.380838
92.538000	0.205814	0.122506	0.219352	0.330978	5608.476663	28665.993509	3679.278222	12139.557210
93.055000	0.204286	0.121017	0.216605	0.334543	5576.323125	28368.366303	3666.811322	12063.686890
93.536000	0.204605	0.121924	0.224707	0.332640	5590.306606	28533.453604	3686.656991	12104.114802
94.036000	0.201073	0.120447	0.215938	0.332960	5566.108718	28427.746900	3668.610591	12097.302202
94.536500	0.203139	0.120329	0.211621	0.337061	5553.412030	28181.318897	3652.228986	12010.465656
95.037000	0.201263	0.120241	0.218238	0.340018	5523.501142	28004.999551	3659.312040	11948.357792
95.537000	0.205707	0.121519	0.220253	0.338271	5561.884098	28180.204252	3666.657000	11985.013141
