sample name	sample
index	897
start time	 04-08-2021  03:22:04 PM
880	0.534814
Peak Time (s)	102.537
Peak Height 	0.5348
calc peak height	100,103
Baseline Time (s)	9.035
Baseline Value 	-0.002059
subtract baseline	10,4
Abs	0.339025
Peak Time (s)	102.537
Peak Height 	0.339
calc peak height	100,103
Baseline Time (s)	9.035
Baseline Value 	0.003919
subtract baseline	10,3
PK_550	0.193463
Peak Time (s)	102.537
Peak Height 	0.1935
calc peak height	100,103
Baseline Time (s)	10.036
Baseline Value 	4.467E-4
subtract baseline	10,2
PK_880	0.331115
Peak Time (s)	102.036
Peak Height 	0.3311
calc peak height	100,103
Baseline Time (s)	10.036
Baseline Value 	0.001152
subtract baseline	10,1


Time (s)	A880-A510	A880-A775	A880-A975	A880	I510	I775	I975	I880	
0.038000	-0.004050	-0.001108	-0.004871	0.007074	6806.117925	41868.206737	3928.540837	22496.104248
0.535500	-0.003215	-0.000503	-0.004455	0.003094	6849.307088	42281.022099	3938.901994	22676.206025
1.036000	-0.001466	-0.000713	-0.006474	0.002890	6866.964928	42280.484900	3934.613803	22685.517903
1.535500	-0.002425	-0.000868	-0.008755	0.000466	6880.266078	42486.494205	3934.949196	22796.091072
2.036000	-0.001926	-0.000462	-0.002482	0.001586	6874.612516	42421.475586	3947.182506	22744.883254
2.536000	-0.000057	-0.000112	-0.000848	0.000700	6899.711911	42533.987728	3953.220614	22785.383058
3.036500	0.000860	-0.001025	-0.008471	-0.002443	6936.977446	42737.553308	3942.512789	22929.568414
3.537000	-0.000673	-0.000520	-0.003916	-0.000071	6901.127711	42567.093911	3947.718353	22820.667726
4.037500	-0.000869	-0.000262	-0.001098	0.000366	6895.338571	42550.697376	3953.421740	22800.622838
4.534500	-0.001191	-0.000098	-0.006110	-0.000049	6896.198032	42603.590334	3942.436756	22819.661950
5.035000	0.001085	-0.000636	-0.005009	-0.000013	6916.688853	42551.145219	3944.969108	22817.977920
5.535500	0.000288	-0.000736	-0.004313	-0.000084	6910.035659	42548.521317	3946.798432	22821.226924
6.035500	-0.001681	-0.000668	-0.004060	-0.000194	6893.047946	42564.800498	3947.668313	22826.300863
6.536000	-0.001147	0.000229	-0.007493	0.000141	6894.861681	42616.026562	3938.701918	22810.929150
7.036500	-0.001730	-0.000508	-0.003199	-0.000250	6893.112325	42584.463439	3949.859625	22828.846683
7.539000	-0.001420	-0.000609	0.000560	-0.000314	6896.526548	42581.037767	3959.055635	22831.782130
8.037000	0.000059	0.000199	-0.001541	-0.000253	6909.495378	42649.297413	3953.846386	22829.000153
8.534000	-0.000770	-0.000269	-0.002123	-0.000326	6902.566238	42613.177256	3952.620301	22832.309020
9.035000	0.000573	0.000030	0.000000	0.000000	6911.878446	42610.726536	3956.946052	22817.398171
9.537000	0.000761	0.000223	-0.002292	0.000163	6912.115063	42613.469128	3951.044174	22809.958209
10.036000	0.000000	0.000000	-0.003909	0.000047	6906.200229	42603.651949	3947.451023	22815.227525
10.535500	0.000329	-0.000463	0.000929	-0.000338	6912.738746	42596.496448	3960.004027	22832.863375
11.036000	-0.000161	0.000302	0.003271	0.000110	6904.153731	42625.538136	3964.593959	22812.360511
11.536500	-0.000012	-0.000568	0.002682	-0.000086	6907.314637	42564.002702	3963.642019	22821.350347
12.039500	-0.002523	-0.000345	-0.006165	-0.000052	6884.089008	42581.298804	3942.311061	22819.794546
12.536500	-0.001009	-0.000695	-0.003016	-0.000867	6905.331678	42623.708624	3951.776792	22857.137267
13.037500	0.000577	0.000075	-0.000042	-0.002085	6931.070023	42805.597785	3961.882566	22913.092712
13.537500	0.001258	0.000058	-0.002014	-0.000746	6925.010867	42681.422088	3953.893948	22851.575001
14.037500	-0.001447	-0.000891	-0.003376	-0.000439	6897.414616	42566.739160	3949.886978	22837.488810
14.535000	-0.002205	-0.000167	-0.002096	0.001378	6873.975888	42467.302966	3948.604690	22754.417913
15.035500	-0.000317	-0.001468	-0.003414	-0.001118	6913.971586	42576.062866	3951.425166	22868.668166
15.556500	-0.000046	-0.000240	0.000978	-0.000845	6913.957949	42663.253482	3961.350781	22856.137119
16.036000	-0.000465	0.000481	0.003443	-0.000449	6906.487144	42692.941263	3966.372795	22837.972752
16.537000	-0.000275	-0.000609	-0.001093	-0.001467	6917.554884	42686.330577	3957.847796	22884.685953
17.036500	-0.000172	0.000013	-0.001962	-0.000358	6908.343815	42641.933206	3953.086881	22833.816567
17.536500	0.001313	-0.001235	0.000319	-0.004667	6961.749905	42922.515184	3969.037900	23032.282115
18.037000	-0.000872	-0.000764	0.001000	-0.000762	6905.627338	42607.783113	3961.204430	22852.334058
18.540500	-0.000689	-0.000630	-0.004551	0.000220	6898.325807	42530.480904	3945.507279	22807.342037
19.034500	-0.000253	-0.000016	-0.001169	0.000648	6898.389988	42547.395265	3952.573118	22787.728116
19.535500	-0.001031	0.000061	-0.001914	0.000371	6893.827908	42579.697847	3951.451917	22800.438144
20.035500	-0.000861	-0.000138	-0.000908	0.000417	6894.956941	42557.337615	3953.756462	22798.321733
20.536000	-0.001549	0.000484	0.001910	0.000476	6888.148505	42608.743691	3960.409670	22795.630720
21.036000	0.001256	0.000207	-0.002392	0.000854	6910.316497	42548.964930	3949.150229	22778.326024
21.536500	-0.001254	-0.000525	0.000630	0.000808	6887.812528	42486.551078	3956.517051	22780.447070
22.036500	-0.001183	0.000043	0.001261	0.000732	6889.144185	42545.175406	3958.222780	22783.906734
22.537000	-0.003269	-0.000693	-0.001079	-0.000364	6880.131243	42577.933961	3955.224177	22834.063232
23.038000	-0.002238	-0.000626	-0.003248	0.000145	6884.887498	42537.649791	3948.798379	22810.757516
23.535000	-0.002341	-0.000646	-0.008042	0.000035	6884.944466	42545.831112	3937.651414	22815.777817
24.035500	-0.002374	-0.000292	-0.004123	0.000701	6878.594146	42517.488214	3945.380827	22785.337668
24.535500	-0.002842	0.000059	0.000863	0.000408	6876.999142	42576.075757	3958.043293	22798.702943
25.036000	-0.002101	-0.000160	-0.000070	0.000740	6880.715004	42525.913891	3954.995543	22783.535836
25.536000	0.000109	-0.000173	-0.003075	0.000269	6905.169964	42567.627246	3948.914314	22805.070139
26.036000	-0.002411	-0.000567	-0.003461	0.000149	6883.275597	42542.641923	3948.277491	22810.573298
26.536500	0.000479	-0.000440	0.000295	0.000865	6903.104098	42489.016831	3955.573014	22777.818381
27.037000	-0.000802	-0.000955	0.000207	0.000650	6893.365297	42461.773727	3955.879849	22787.659050
27.534500	-0.001341	-0.000189	-0.005104	0.002667	6870.116792	42348.171037	3938.376217	22695.644517
28.037500	-0.000210	-0.000476	-0.004497	-0.003086	6933.048683	42846.980339	3953.550137	22959.227492
28.538000	-0.000931	0.000330	-0.008944	-0.000639	6903.960791	42696.500840	3937.112571	22846.674535
29.043500	-0.000516	0.000426	-0.006489	-0.000151	6903.293530	42660.647195	3941.777692	22824.314429
29.535500	-0.003043	-0.000997	-0.002701	0.002000	6860.744849	42335.329374	3945.673323	22726.014491
30.036000	-0.000248	0.000494	0.000651	-0.000084	6905.133204	42660.769273	3958.720913	22821.248614
30.536500	0.001372	0.000149	-0.003143	-0.000246	6921.463587	42644.015972	3949.983152	22828.644538
31.042500	0.000654	0.000772	0.002192	0.000374	6909.193245	42644.285634	3961.337561	22800.273478
31.536500	-0.003682	-0.000321	-0.002362	0.003400	6842.341188	42269.792691	3943.146083	22662.295325
32.036500	-0.000714	0.000158	-0.001692	0.000961	6891.336289	42534.777321	3950.571587	22773.461898
32.541500	-0.000967	-0.000023	-0.000702	-0.000058	6898.316913	42611.151179	3955.393594	22820.044305
33.054000	-0.001392	-0.000432	-0.002698	-0.000084	6894.679364	42576.199573	3950.662872	22821.244314
33.535000	-0.001025	0.000711	-0.001995	0.004041	6860.536592	42305.218745	3942.495816	22633.223030
34.035500	0.000406	0.000101	-0.001710	-0.000301	6913.118746	42644.692387	3953.556231	22831.207254
34.540000	0.000195	0.000791	0.002956	0.000317	6905.519578	42651.313822	3963.328574	22802.895850
35.035500	-0.000691	-0.000131	-0.000603	0.001310	6888.363877	42476.641522	3952.343366	22757.488120
35.536500	-0.002396	0.000188	0.000136	0.001888	6867.615390	42453.154598	3952.731571	22731.129429
36.036500	-0.000359	0.001125	0.003672	0.002221	6883.093378	42508.140997	3960.450466	22715.976673
36.537000	0.000651	0.000906	-0.003326	0.002535	6889.426060	42459.574340	3942.910392	22701.657091
37.040000	-0.000718	-0.000116	0.001146	0.001556	6885.882732	42455.669423	3955.957913	22746.286577
37.535000	-0.001267	-0.000234	-0.002694	0.002961	6868.122914	42317.354458	3943.399883	22682.248683
38.035000	-0.000199	0.000325	0.000066	0.001939	6887.115276	42460.955404	3952.442311	22728.828020
38.535500	-0.001076	0.000326	-0.000528	0.001527	6882.876624	42498.549534	3952.002034	22747.594995
39.035500	-0.002628	0.000332	-0.001207	0.001801	6866.303546	42474.144549	3949.718611	22735.103740
39.535500	0.000467	0.000504	-0.001615	0.001648	6895.839128	42503.721605	3949.110259	22742.089095
40.036500	-0.000784	-0.000821	-0.003440	0.000675	6893.295532	42471.616870	3947.070857	22786.495678
40.536500	-0.001181	0.000370	-0.004751	0.001403	6883.051431	42513.727146	3942.213390	22753.234691
41.037000	-0.000244	0.000728	-0.002176	0.001959	6886.521139	42495.829080	3947.025550	22727.905837
41.540000	0.001396	0.000242	0.000591	0.001799	6902.955428	42466.206101	3954.038957	22735.210468
42.037500	-0.001949	-0.000894	0.000283	0.000918	6880.479078	42442.971279	3955.415679	22775.410610
42.534500	-0.001497	0.000050	-0.003450	0.001284	6881.257706	42495.500147	3945.593985	22758.667431
43.035000	-0.001461	-0.000623	-0.005208	0.001390	6880.624290	42424.660435	3941.159804	22753.847039
43.534500	-0.002472	0.000245	-0.004796	0.001440	6870.994830	42499.087410	3942.018719	22751.571803
44.035500	-0.001301	-0.000382	-0.001984	0.001240	6883.444969	42460.239567	3949.201164	22760.693030
44.536000	-0.000867	0.000430	-0.002442	0.002034	6880.171955	42461.874069	3946.210289	22724.479473
45.039000	0.002593	0.000296	0.003831	-0.002474	6953.278332	42861.556244	3972.257322	22930.997361
45.536500	-0.001464	-0.000012	-0.005789	0.004303	6854.199069	42216.097249	3932.894543	22621.324217
46.037000	0.002216	0.000069	-0.003656	-0.000601	6932.500200	42669.182096	3949.606428	22844.939663
46.537500	0.000768	0.000703	0.001439	0.000200	6911.834967	42653.910276	3959.935878	22808.233448
47.037500	0.000781	-0.000632	-0.003609	0.000133	6912.567052	42538.235110	3947.962238	22811.308351
47.535000	-0.001554	0.000472	-0.000571	0.005604	6841.654114	42142.267843	3942.162144	22562.409655
48.035500	-0.002564	0.000215	-0.000455	-0.000212	6885.173524	42646.983456	3956.360475	22827.126009
48.552500	-0.001619	-0.000025	-0.001849	0.000790	6884.647620	42533.709717	3950.605103	22781.278258
49.036000	-0.001019	0.000070	-0.000422	0.001963	6879.437252	42435.591819	3951.212542	22727.725895
49.535500	-0.003675	-0.000133	-0.002597	0.004118	6835.938792	42221.877289	3940.879632	22629.697789
50.055500	0.000395	0.000054	0.001827	-0.000370	6913.644798	42646.777699	3962.257550	22834.369363
50.537000	-0.000407	0.000575	-0.001834	0.000097	6902.026648	42651.646490	3952.300917	22812.976379
51.037000	-0.000252	0.000434	-0.002011	0.000447	6900.246609	42606.778113	3951.037788	22796.944791
51.537000	-0.004841	-0.000924	-0.001485	0.003668	6829.510060	42191.046282	3944.595689	22650.126209
52.035000	-0.000388	0.000713	0.004434	0.001267	6891.514160	42557.391467	3964.608452	22759.450280
52.535000	-0.000231	-0.002620	0.000054	-0.011645	7012.485665	43440.299988	3985.535060	23357.839517
53.035500	-0.065773	-0.020080	0.002464	0.230356	4941.745622	25237.576039	3529.441997	14631.080747
53.535500	-0.075863	-0.018288	-0.010121	0.020166	6118.118917	39249.199659	3886.414593	21915.086576
54.036000	-0.058158	-0.025419	-0.008389	-0.134450	7669.977079	53919.868834	4309.574875	30033.541592
54.535500	-0.030511	-0.044707	0.008565	-0.222806	9120.741793	62702.706112	4693.668163	36148.648184
55.036500	-0.015871	-0.031862	0.009924	-0.197609	8972.113067	61027.703240	4598.399294	34276.210139
55.539500	-0.008258	-0.016858	0.010729	-0.145862	8388.419995	56317.712580	4411.510395	30755.174591
56.037000	-0.000224	-0.010364	0.010961	-0.119324	8160.814031	53911.540900	4323.255088	29105.830395
56.534500	0.011733	-0.002273	0.025166	-0.082114	7865.443783	50607.976072	4250.340125	26956.549744
57.036500	0.029555	0.005299	0.033943	-0.062647	7846.777122	49320.783884	4217.746110	25903.323246
57.535000	0.037180	0.013294	0.036626	-0.032821	7601.844158	47048.431805	4138.507393	24378.565791
58.035500	0.053408	0.021027	0.057138	-0.002485	7452.574505	44813.081707	4111.026143	22931.506326
58.536000	0.065192	0.026580	0.062985	0.021116	7331.219540	43109.874056	4062.916808	21873.591734
59.036000	0.078282	0.035123	0.081945	0.047133	7202.198212	41526.882123	4044.331858	20772.087183
59.536500	0.084890	0.042192	0.091951	0.087094	6886.507502	38714.507616	3968.721218	19203.651089
60.039500	0.108669	0.053422	0.119040	0.114133	6856.931801	37436.726952	3968.842179	18221.367407
60.537000	0.118840	0.061617	0.127413	0.145376	6671.032253	35655.252502	3914.521926	17159.969987
61.034500	0.134737	0.071287	0.141778	0.170790	6589.980899	34491.522938	3889.283544	16351.167181
61.537500	0.140583	0.078113	0.154576	0.202438	6378.977954	32740.479005	3847.686315	15407.965240
62.035000	0.148898	0.082201	0.170039	0.223072	6282.566748	31627.573183	3836.585103	14828.987183
62.535500	0.157120	0.090893	0.182426	0.240745	6210.426010	31040.975695	3825.372914	14354.488563
63.035500	0.167239	0.097540	0.187256	0.305224	5824.690470	27541.149509	3707.888626	12778.265858
63.536000	0.167272	0.098609	0.199468	0.295757	5888.666214	28144.516117	3748.732426	12995.287842
64.064000	0.180115	0.105027	0.195486	0.309821	5880.361296	27705.215074	3714.590377	12674.565993
64.536500	0.190735	0.110714	0.200851	0.320731	5878.400521	27409.514536	3704.383472	12432.836444
65.036500	0.195522	0.113565	0.207576	0.327491	5865.042600	27190.560754	3704.318181	12286.072219
65.555500	0.201851	0.116080	0.217171	0.329865	5891.877714	27198.431013	3717.638505	12235.075597
66.037000	0.208663	0.120485	0.216407	0.334624	5905.903291	27178.671758	3707.431290	12133.662761
66.538000	0.217471	0.123490	0.216787	0.337283	5948.315852	27197.948526	3703.257829	12077.490681
67.035500	0.220792	0.127070	0.224891	0.339636	5955.044938	27266.518593	3713.831990	12028.063936
67.535500	0.222517	0.129118	0.226919	0.347604	5911.898019	26937.566193	3702.911403	11862.665753
68.035500	0.234346	0.132639	0.230040	0.345900	6006.219692	27227.661777	3711.769901	11897.774480
68.536000	0.235706	0.135496	0.237875	0.350416	5983.963408	27135.198601	3717.923187	11805.021283
69.039000	0.239702	0.138444	0.238496	0.353181	5992.619670	27145.304300	3713.942812	11748.685231
69.536500	0.239453	0.139287	0.238066	0.360877	5937.143218	26766.864582	3699.039509	11593.809734
70.037000	0.243768	0.140779	0.242523	0.357130	5993.452548	27055.714527	3714.088871	11668.881477
70.537500	0.248937	0.144167	0.253943	0.361694	5997.716152	26990.536093	3726.882971	11577.511027
71.034500	0.252383	0.146383	0.249623	0.364280	6003.797986	26970.104269	3713.994729	11526.183971
71.535000	0.249865	0.146543	0.248762	0.370121	5945.234247	26658.186147	3701.682236	11411.353220
72.035500	0.257267	0.148321	0.254590	0.367458	6015.883739	26901.657177	3717.314766	11463.504094
72.535500	0.261218	0.149610	0.258892	0.369484	6029.583862	26861.055078	3721.556445	11423.786658
73.037500	0.262787	0.152163	0.260081	0.372468	6019.510763	26837.357691	3718.209744	11365.637914
73.536000	0.261391	0.152602	0.258726	0.379346	5961.236360	26486.128813	3703.030780	11233.095120
74.039000	0.267407	0.155388	0.270417	0.377228	6018.521359	26753.215162	3728.654819	11273.696054
74.539500	0.269691	0.157322	0.271179	0.380510	6011.429072	26679.502449	3723.917486	11210.880754
75.037000	0.274514	0.159509	0.267508	0.383184	6026.706364	26652.875080	3712.110183	11160.040735
75.537500	0.275317	0.158920	0.267048	0.387760	5999.931330	26372.863607	3702.860983	11073.782548
76.035000	0.279541	0.159885	0.274964	0.387800	6029.634012	26422.798329	3717.374188	11073.038444
76.535000	0.279857	0.161608	0.277302	0.390881	6009.971375	26349.561530	3715.993558	11015.468815
77.035000	0.280586	0.162632	0.277912	0.394518	5989.433319	26209.301293	3710.394297	10948.043571
77.536000	0.281151	0.163931	0.279685	0.403314	5932.023316	25811.583507	3697.553014	10787.286738
78.039000	0.284258	0.165667	0.279555	0.402261	5960.904978	25958.778162	3699.231253	10806.372264
78.539000	0.287496	0.166608	0.288100	0.407752	5945.229603	25719.195295	3704.800149	10707.413467
79.036500	0.289537	0.167605	0.288154	0.410525	5940.155503	25626.336223	3699.838848	10657.910621
79.537000	0.290416	0.169236	0.288880	0.414493	5918.840054	25504.756065	3693.965217	10587.634241
80.037000	0.291521	0.169887	0.286606	0.418348	5899.976698	25339.098680	3682.976462	10519.956619
80.534500	0.292664	0.170722	0.292537	0.423535	5872.466319	25116.054401	3684.301355	10429.843001
81.034500	0.295821	0.171349	0.294008	0.425891	5877.895567	25028.018454	3682.724023	10389.267662
81.535500	0.296186	0.174099	0.294721	0.430945	5846.260520	24911.359565	3675.039090	10302.976389
82.035000	0.297338	0.173585	0.300105	0.433142	5839.261023	24774.832400	3680.675688	10265.780579
82.538500	0.301631	0.174003	0.296312	0.437131	5841.291117	24596.229878	3666.985852	10198.700960
83.039000	0.302416	0.173846	0.297178	0.439648	5829.710171	24463.524537	3664.113459	10156.704974
83.539000	0.301125	0.174113	0.300611	0.445961	5779.417802	24166.363631	3659.129694	10052.424100
84.036000	0.305857	0.177867	0.302837	0.447631	5799.558713	24268.303463	3660.086883	10025.074282
84.537000	0.304771	0.176692	0.306715	0.451187	5769.069597	24037.564012	3660.645039	9967.228453
85.037500	0.305245	0.177546	0.302930	0.453344	5758.094004	23974.418795	3650.441664	9932.360945
85.535000	0.308677	0.178458	0.307614	0.456080	5762.627526	23886.384441	3653.770858	9888.383788
86.035000	0.308830	0.179476	0.315306	0.460313	5736.162679	23732.134535	3659.721211	9820.906142
86.535500	0.309323	0.179277	0.311789	0.464907	5709.798872	23504.227545	3645.846104	9748.390530
87.035500	0.308665	0.179472	0.311160	0.466305	5696.683547	23447.457722	3642.420133	9726.484824
87.536000	0.310061	0.180113	0.314296	0.469387	5685.971251	23332.700690	3642.510368	9678.428645
88.036500	0.312715	0.180552	0.313630	0.473106	5679.222106	23179.465983	3635.150982	9620.884526
88.536500	0.312995	0.181849	0.320041	0.478273	5648.477203	23000.144547	3637.229820	9541.746514
89.037000	0.313754	0.181526	0.321821	0.479155	5647.708407	22944.649367	3638.735026	9528.335428
89.537500	0.316426	0.181717	0.314478	0.484547	5630.750438	22706.886343	3617.673721	9446.923320
90.037500	0.317948	0.183102	0.321193	0.485445	5634.632707	22729.046494	3627.217586	9433.466904
90.535000	0.314432	0.183248	0.321841	0.488618	5593.326154	22591.799591	3623.058911	9386.126073
91.035000	0.316607	0.183913	0.322485	0.490745	5593.615540	22525.842074	3620.628826	9354.585028
91.535500	0.316817	0.185732	0.319487	0.495964	5563.093765	22373.342852	3607.308122	9277.846157
92.036000	0.316158	0.185276	0.324225	0.494597	5567.383011	22414.100390	3617.180994	9297.852606
92.539000	0.322076	0.185359	0.326692	0.496828	5589.860695	22318.182336	3617.565515	9265.231638
93.036500	0.322055	0.186486	0.326086	0.499703	5572.195197	22240.453433	3611.915853	9223.437133
93.536500	0.320357	0.186827	0.326253	0.503247	5540.511039	22098.835973	3606.477523	9172.282649
94.036500	0.322507	0.186843	0.327315	0.503283	5553.239644	22097.955669	3608.126310	9171.768781
94.536500	0.323967	0.187597	0.328316	0.506077	5545.202520	22008.318178	3605.249270	9131.741511
95.037500	0.326583	0.189409	0.332608	0.509828	5538.383313	21923.504635	3606.116448	9078.415144
95.537500	0.324390	0.188551	0.320217	0.510196	5523.052711	21870.084458	3585.959123	9073.199886
96.035000	0.324380	0.188579	0.330048	0.512737	5507.877991	21761.024537	3597.403698	9037.367813
96.536000	0.327110	0.189864	0.330466	0.514880	5511.359707	21723.913791	3594.676985	9007.302466
97.038500	0.325821	0.189135	0.331455	0.516659	5493.201705	21615.917520	3593.432568	8982.460831
97.539000	0.326478	0.190426	0.335385	0.518451	5486.516692	21594.460169	3596.806311	8957.540024
98.036500	0.327264	0.189421	0.331002	0.519863	5482.840308	21491.102469	3587.702276	8937.982080
98.537000	0.327438	0.190924	0.330584	0.524269	5458.099520	21367.663704	3580.213064	8877.333309
99.042500	0.329399	0.191019	0.328088	0.523504	5474.005237	21404.170765	3577.547735	8887.823445
99.537500	0.328060	0.191187	0.331964	0.527122	5445.155839	21258.313229	3577.944581	8838.399259
100.035000	0.326699	0.191221	0.334147	0.526772	5439.311017	21274.485385	3581.851401	8843.157473
100.535000	0.329450	0.192153	0.329400	0.529092	5441.802982	21216.083367	3571.007295	8811.664651
101.035500	0.329431	0.191200	0.328662	0.529197	5441.085571	21171.663400	3569.723354	8810.233505
101.538500	0.329051	0.192597	0.334581	0.532829	5418.011972	21078.279105	3573.208454	8761.273251
102.036000	0.331115	0.191440	0.336256	0.531867	5435.391296	21070.092877	3577.246684	8774.191679
102.536500	0.330395	0.193463	0.339025	0.534814	5414.340084	21031.643748	3576.973725	8734.671478
103.036500	0.329115	0.194368	0.338249	0.535717	5401.893651	21031.712944	3574.400955	8722.617599
103.537000	0.327424	0.192805	0.329554	0.536733	5386.545261	20924.780194	3559.706455	8709.082883
104.037000	0.334643	0.195563	0.342162	0.538913	5415.189415	20948.680957	3575.497661	8680.143964
104.534000	0.329407	0.192520	0.335397	0.538126	5389.884877	20855.561654	3566.399565	8690.583294
105.035000	0.330401	0.194323	0.332773	0.539191	5389.486348	20885.990047	3560.846660	8676.476564
105.596000	0.331723	0.193704	0.341384	0.539988	5392.454610	20827.629373	3572.664791	8665.933936
106.036000	0.330502	0.194896	0.335447	0.541258	5378.381255	20824.466259	3561.756821	8649.189703
106.537500	0.329658	0.195725	0.336035	0.543647	5360.234371	20760.405197	3559.059630	8617.812570
107.036500	0.332177	0.194450	0.335526	0.541064	5388.931689	20814.064420	3562.167198	8651.741566
107.536000	0.332049	0.195337	0.332915	0.543642	5373.674062	20744.767072	3554.420881	8617.885998
108.037000	0.330379	0.195361	0.331816	0.543138	5367.122699	20766.371878	3553.537160	8624.486019
108.566500	0.329283	0.196008	0.333950	0.545675	5346.834008	20689.088254	3552.940462	8591.316410
109.035000	0.331199	0.195114	0.338785	0.542710	5374.127138	20773.768019	3564.592996	8630.092927
