sample name	sample
index	866
start time	 04-08-2021  01:12:31 PM


Wavelength (nm)	Absorbance
494.344910	-0.013874
494.563924	-0.013874
494.782919	-0.013874
495.001897	-0.017768
495.220856	-0.010573
495.439797	-0.002413
495.658719	-0.001497
495.877624	0.006719
496.096510	0.004964
496.315378	0.001700
496.534227	0.005976
496.753059	0.006430
496.971872	0.007919
497.190667	0.034837
497.409444	0.053142
497.628203	0.061807
497.846943	0.066993
498.065665	0.071018
498.284369	0.072681
498.503055	0.074580
498.721723	0.074895
498.940372	0.074922
499.159003	0.076105
499.377616	0.076459
499.596210	0.076780
499.814787	0.076970
500.033345	0.076771
500.251885	0.077575
500.470406	0.077246
500.688910	0.077667
500.907395	0.078966
501.125862	0.079041
501.344311	0.079584
501.562742	0.079031
501.781154	0.078669
501.999548	0.078551
502.217924	0.078349
502.436282	0.079419
502.654621	0.080259
502.872942	0.080417
503.091245	0.080845
503.309530	0.080791
503.527797	0.081603
503.746045	0.082015
503.964275	0.081847
504.182487	0.081972
504.400681	0.081242
504.618856	0.081638
504.837013	0.081344
505.055152	0.081568
505.273273	0.080487
505.491376	0.080051
505.709460	0.079681
505.927526	0.079950
506.145574	0.079709
506.363604	0.080203
506.581615	0.079452
506.799608	0.079754
507.017583	0.079837
507.235540	0.080930
507.453478	0.081451
507.671399	0.081916
507.889301	0.082008
508.107185	0.081588
508.325050	0.081545
508.542898	0.082128
508.760727	0.082414
508.978538	0.082732
509.196330	0.082679
509.414105	0.083803
509.631861	0.083347
509.849599	0.083954
510.067319	0.084504
510.285021	0.084784
510.502704	0.085460
510.720369	0.085448
510.938016	0.085641
511.155645	0.086310
511.373255	0.085363
511.590848	0.086324
511.808422	0.086704
512.025977	0.086961
512.243515	0.087084
512.461034	0.086445
512.678536	0.086501
512.896018	0.086532
513.113483	0.086310
513.330930	0.086674
513.548358	0.085822
513.765768	0.086161
513.983160	0.086624
514.200533	0.087222
514.417889	0.087427
514.635226	0.087760
514.852545	0.087436
515.069845	0.087650
515.287128	0.087947
515.504392	0.087950
515.721638	0.087815
515.938866	0.088181
516.156075	0.087607
516.373267	0.086655
516.590440	0.087155
516.807594	0.087747
517.024731	0.088158
517.241850	0.088345
517.458950	0.089279
517.676032	0.089840
517.893095	0.089814
518.110141	0.090651
518.327168	0.092696
518.544177	0.092349
518.761168	0.092554
518.978141	0.092141
519.195095	0.092322
519.412031	0.092191
519.628949	0.091970
519.845849	0.092075
520.062731	0.092154
520.279594	0.091496
520.496439	0.091613
520.713266	0.091983
520.930074	0.092771
521.146865	0.093561
521.363637	0.093958
521.580391	0.094617
521.797127	0.094974
522.013844	0.095459
522.230543	0.096090
522.447224	0.096132
522.663887	0.096433
522.880532	0.096102
523.097158	0.095924
523.313766	0.096256
523.530356	0.095861
523.746928	0.096353
523.963481	0.096329
524.180017	0.096374
524.396534	0.097020
524.613032	0.096879
524.829513	0.097143
525.045975	0.096700
525.262420	0.097161
525.478845	0.097718
525.695253	0.097650
525.911643	0.097321
526.128014	0.097470
526.344367	0.097355
526.560702	0.097879
526.777018	0.098174
526.993316	0.099039
527.209597	0.098595
527.425858	0.098430
527.642102	0.098766
527.858328	0.099281
528.074535	0.099257
528.290724	0.099488
528.506894	0.099102
528.723047	0.098978
528.939181	0.098842
529.155297	0.099104
529.371395	0.099378
529.587475	0.099412
529.803536	0.099663
530.019579	0.100138
530.235604	0.100497
530.451611	0.101093
530.667600	0.101794
530.883570	0.101991
531.099522	0.102564
531.315456	0.103226
531.531372	0.103844
531.747269	0.104470
531.963148	0.104739
532.179009	0.105410
532.394852	0.106023
532.610676	0.106521
532.826482	0.107146
533.042271	0.107560
533.258040	0.107432
533.473792	0.107609
533.689525	0.107698
533.905240	0.107842
534.120937	0.107618
534.336616	0.107335
534.552277	0.107336
534.767919	0.107936
534.983543	0.108175
535.199149	0.108824
535.414736	0.109051
535.630306	0.108924
535.845857	0.109443
536.061390	0.109817
536.276904	0.110377
536.492401	0.110293
536.707879	0.109990
536.923339	0.110344
537.138781	0.110152
537.354204	0.110215
537.569610	0.110792
537.784997	0.110916
538.000366	0.110958
538.215716	0.111188
538.431049	0.111540
538.646363	0.111542
538.861659	0.111068
539.076937	0.111124
539.292196	0.111259
539.507438	0.111723
539.722661	0.111422
539.937866	0.111751
540.153052	0.112010
540.368221	0.112219
540.583371	0.112674
540.798503	0.113441
541.013617	0.113840
541.228712	0.114161
541.443789	0.114078
541.658848	0.114974
541.873889	0.115238
542.088912	0.115114
542.303916	0.115181
542.518902	0.115059
542.733870	0.115286
542.948820	0.115785
543.163752	0.115959
543.378665	0.115866
543.593560	0.115579
543.808437	0.115673
544.023295	0.116055
544.238136	0.116421
544.452958	0.116944
544.667762	0.116557
544.882548	0.116567
545.097315	0.116815
545.312064	0.117487
545.526795	0.117693
545.741508	0.117613
545.956203	0.117924
546.170879	0.118459
546.385537	0.118392
546.600177	0.118937
546.814799	0.118647
547.029402	0.118770
547.243988	0.118652
547.458555	0.118958
547.673103	0.119504
547.887634	0.120027
548.102146	0.119950
548.316640	0.120368
548.531116	0.120260
548.745574	0.120981
548.960013	0.121428
549.174435	0.121446
549.388838	0.121816
549.603222	0.121810
549.817589	0.121720
550.031937	0.121836
550.246267	0.121781
550.460579	0.122285
550.674873	0.122396
550.889148	0.122237
551.103405	0.122116
551.317644	0.122051
551.531865	0.122323
551.746068	0.122320
551.960252	0.122512
552.174418	0.122767
552.388566	0.122468
552.602696	0.122678
552.816807	0.122633
553.030900	0.123173
553.244975	0.123076
553.459032	0.123142
553.673070	0.123534
553.887091	0.123589
554.101093	0.123793
554.315077	0.124787
554.529042	0.124579
554.742990	0.125117
554.956919	0.125412
555.170830	0.125524
555.384722	0.125544
555.598597	0.125042
555.812453	0.125028
556.026291	0.125383
556.240111	0.125003
556.453913	0.125345
556.667696	0.124933
556.881461	0.125148
557.095208	0.125583
557.308937	0.125926
557.522647	0.126403
557.736339	0.126654
557.950013	0.126693
558.163669	0.127052
558.377307	0.127428
558.590926	0.127735
558.804527	0.127754
559.018110	0.128147
559.231675	0.128309
559.445221	0.128273
559.658749	0.128504
559.872259	0.128760
560.085751	0.128702
560.299225	0.128640
560.512680	0.128717
560.726117	0.128536
560.939536	0.128305
561.152937	0.128245
561.366319	0.128669
561.579683	0.128696
561.793029	0.128526
562.006357	0.128733
562.219667	0.128324
562.432958	0.128639
562.646231	0.128905
562.859486	0.129120
563.072723	0.129547
563.285941	0.129389
563.499141	0.129852
563.712323	0.129727
563.925487	0.130036
564.138632	0.130602
564.351760	0.130761
564.564869	0.130865
564.777960	0.130871
564.991032	0.130729
565.204087	0.131202
565.417123	0.131090
565.630141	0.131572
565.843140	0.131473
566.056122	0.132171
566.269085	0.132012
566.482030	0.132103
566.694957	0.132280
566.907866	0.132307
567.120756	0.132167
567.333628	0.132434
567.546482	0.132232
567.759318	0.132206
567.972135	0.131916
568.184935	0.132404
568.397716	0.132797
568.610478	0.133008
568.823223	0.133170
569.035949	0.133307
569.248657	0.133332
569.461347	0.133773
569.674019	0.134117
569.886672	0.134471
570.099308	0.134173
570.311925	0.133970
570.524523	0.133820
570.737104	0.134329
570.949666	0.134153
571.162210	0.134019
571.374736	0.134257
571.587244	0.134417
571.799733	0.134456
572.012205	0.134622
572.224658	0.134659
572.437092	0.135111
572.649509	0.134932
572.861907	0.135355
573.074287	0.135719
573.286649	0.135269
573.498993	0.135213
573.711318	0.134958
573.923625	0.135610
574.135914	0.136235
574.348185	0.136219
574.560438	0.136397
574.772672	0.136492
574.984888	0.136641
575.197086	0.136993
575.409266	0.137314
575.621427	0.137507
575.833570	0.137414
576.045695	0.137103
576.257802	0.137315
576.469890	0.137645
576.681961	0.138147
576.894013	0.138324
577.106046	0.138705
577.318062	0.138640
577.530059	0.138812
577.742039	0.139028
577.954000	0.139242
578.165942	0.139259
578.377867	0.139581
578.589773	0.139389
578.801661	0.139250
579.013531	0.139039
579.225382	0.139470
579.437216	0.139865
579.649031	0.139937
579.860828	0.140302
580.072606	0.140839
580.284367	0.140414
580.496109	0.140552
580.707833	0.140669
580.919539	0.140803
581.131227	0.140497
581.342896	0.140387
581.554547	0.140283
581.766180	0.140120
581.977795	0.139997
582.189391	0.139945
582.400969	0.140066
582.612529	0.140246
582.824071	0.140500
583.035595	0.140751
583.247100	0.140554
583.458587	0.140716
583.670056	0.140852
583.881506	0.140593
584.092939	0.141101
584.304353	0.141198
584.515749	0.141270
584.727127	0.141412
584.938486	0.141351
585.149828	0.141744
585.361151	0.141720
585.572456	0.141736
585.783742	0.142303
585.995011	0.142096
586.206261	0.142018
586.417493	0.142507
586.628706	0.142461
586.839902	0.142579
587.051079	0.142678
587.262238	0.142738
587.473379	0.142708
587.684502	0.142509
587.895606	0.142669
588.106692	0.142757
588.317760	0.142496
588.528810	0.142849
588.739841	0.143056
588.950855	0.143254
589.161850	0.143654
589.372827	0.143933
589.583785	0.143922
589.794726	0.144115
590.005648	0.144047
590.216552	0.144194
590.427437	0.143884
590.638305	0.144121
590.849154	0.143776
591.059985	0.143698
591.270798	0.144146
591.481592	0.144341
591.692369	0.144396
591.903127	0.144818
592.113867	0.144899
592.324588	0.145059
592.535292	0.145020
592.745977	0.145274
592.956644	0.145626
593.167293	0.145356
593.377923	0.145882
593.588536	0.145941
593.799130	0.146025
594.009706	0.145952
594.220263	0.145966
594.430803	0.146016
594.641324	0.146597
594.851827	0.146212
595.062312	0.146608
595.272778	0.146128
595.483227	0.146485
595.693657	0.146505
595.904069	0.146608
596.114462	0.146789
596.324838	0.146801
596.535195	0.146510
596.745534	0.146827
596.955855	0.146866
597.166157	0.146891
597.376441	0.147067
597.586707	0.147289
597.796955	0.147538
598.007185	0.147608
598.217396	0.147811
598.427589	0.148207
598.637764	0.148396
598.847921	0.148238
599.058060	0.148480
599.268180	0.148391
599.478282	0.148592
599.688366	0.148858
599.898431	0.149173
600.108479	0.149033
600.318508	0.148873
600.528519	0.149078
600.738511	0.149422
600.948486	0.149619
601.158442	0.149714
601.368380	0.149639
601.578300	0.149729
601.788202	0.149924
601.998085	0.150149
602.207950	0.150207
602.417797	0.149975
602.627626	0.150142
602.837436	0.150566
603.047228	0.150537
603.257002	0.150906
603.466758	0.150856
603.676496	0.150766
603.886215	0.150829
604.095916	0.151211
604.305599	0.151548
604.515264	0.151462
604.724910	0.151312
604.934538	0.151274
605.144148	0.151139
605.353740	0.151138
605.563314	0.151394
605.772869	0.151702
605.982406	0.151820
606.191925	0.151752
606.401425	0.151749
606.610908	0.151636
606.820372	0.152007
607.029818	0.152055
607.239246	0.152425
607.448655	0.152657
607.658047	0.153045
607.867420	0.152865
608.076775	0.153194
608.286111	0.153202
608.495430	0.153453
608.704730	0.153513
608.914012	0.153640
609.123275	0.153818
609.332521	0.153684
609.541748	0.153268
609.750957	0.153261
609.960148	0.153512
610.169321	0.153860
610.378475	0.153749
610.587611	0.153930
610.796729	0.154169
611.005829	0.153929
611.214910	0.154066
611.423974	0.154167
611.633019	0.154336
611.842045	0.154318
612.051054	0.154146
612.260044	0.154460
612.469017	0.154627
612.677970	0.154474
612.886906	0.154610
613.095824	0.154762
613.304723	0.154877
613.513604	0.155100
613.722467	0.155001
613.931311	0.155216
614.140138	0.155303
614.348946	0.155034
614.557736	0.154985
614.766507	0.155037
614.975261	0.154977
615.183996	0.155170
615.392713	0.155038
615.601412	0.155158
615.810092	0.155260
616.018754	0.155419
616.227399	0.155986
616.436024	0.156528
616.644632	0.156917
616.853222	0.157201
617.061793	0.157428
617.270346	0.157457
617.478880	0.157754
617.687397	0.157811
617.895895	0.157643
618.104375	0.157296
618.312837	0.157212
618.521281	0.157192
618.729706	0.156955
618.938113	0.156969
619.146502	0.157248
619.354873	0.157053
619.563226	0.157443
619.771560	0.157815
619.979876	0.158090
620.188174	0.158156
620.396453	0.158252
620.604715	0.158838
620.812958	0.158845
621.021183	0.158737
621.229390	0.158736
621.437578	0.158717
621.645748	0.158713
621.853900	0.158776
622.062034	0.158798
622.270150	0.158948
622.478247	0.158831
622.686326	0.159050
622.894387	0.159180
623.102430	0.159470
623.310454	0.159463
623.518461	0.159686
623.726449	0.159736
623.934418	0.159889
624.142370	0.159975
624.350303	0.159958
624.558218	0.160251
624.766115	0.160539
624.973994	0.160505
625.181855	0.160592
625.389697	0.160532
625.597521	0.160548
625.805327	0.160775
626.013114	0.160985
626.220883	0.161334
626.428634	0.161305
626.636367	0.161450
626.844082	0.161612
627.051778	0.161669
627.259457	0.161894
627.467117	0.162126
627.674758	0.161977
627.882382	0.161697
628.089987	0.161758
628.297574	0.161699
628.505143	0.161574
628.712694	0.161915
628.920226	0.162207
629.127740	0.162219
629.335236	0.162436
629.542714	0.162884
629.750174	0.163104
629.957615	0.162957
630.165038	0.163050
630.372443	0.163290
630.579829	0.163493
630.787198	0.163633
630.994548	0.163716
631.201880	0.163800
631.409194	0.163744
631.616489	0.163929
631.823766	0.164369
632.031025	0.164555
632.238266	0.164807
632.445489	0.164547
632.652693	0.164884
632.859879	0.165102
633.067047	0.165105
633.274197	0.165138
633.481329	0.165343
633.688442	0.165391
633.895537	0.165608
634.102614	0.165762
634.309672	0.165937
634.516713	0.165701
634.723735	0.165516
634.930739	0.165551
635.137724	0.165729
635.344692	0.165732
635.551641	0.165495
635.758572	0.165448
635.965485	0.165363
636.172379	0.165670
636.379256	0.165831
636.586114	0.166072
636.792954	0.166124
636.999775	0.166110
637.206579	0.166152
637.413364	0.166317
637.620131	0.166551
637.826880	0.166640
638.033610	0.166511
638.240323	0.166408
638.447017	0.166471
638.653692	0.166748
638.860350	0.167023
639.066990	0.167323
639.273611	0.167376
639.480214	0.167388
639.686798	0.167808
639.893365	0.168060
640.099913	0.168471
640.306443	0.168614
640.512955	0.168659
640.719449	0.168682
640.925924	0.168749
641.132381	0.169005
641.338820	0.169151
641.545241	0.169045
641.751644	0.169378
641.958028	0.169436
642.164394	0.169726
642.370742	0.170032
642.577071	0.170217
642.783383	0.170225
642.989676	0.170418
643.195951	0.170617
643.402207	0.170870
643.608446	0.171008
643.814666	0.171104
644.020868	0.171130
644.227052	0.171088
644.433218	0.171121
644.639365	0.171160
644.845494	0.171255
645.051605	0.171272
645.257698	0.171268
645.463772	0.171365
645.669828	0.171591
645.875866	0.171832
646.081886	0.172199
646.287888	0.172326
646.493871	0.172573
646.699836	0.172667
646.905783	0.172943
647.111712	0.172991
647.317622	0.172721
647.523514	0.172552
647.729388	0.172564
647.935244	0.172705
648.141082	0.172864
648.346901	0.172975
648.552702	0.173085
648.758485	0.173123
648.964250	0.173369
649.169996	0.173660
649.375724	0.173947
649.581434	0.174093
649.787126	0.173959
649.992800	0.173856
650.198455	0.174076
650.404092	0.174335
650.609711	0.174463
650.815311	0.174737
651.020894	0.175000
651.226458	0.174948
651.432004	0.175227
651.637532	0.175368
651.843041	0.175715
652.048532	0.175832
652.254006	0.176183
652.459460	0.176111
652.664897	0.176022
652.870315	0.175853
653.075716	0.175966
653.281097	0.176059
653.486461	0.176170
653.691807	0.176369
653.897134	0.176426
654.102443	0.176227
654.307734	0.176557
654.513006	0.176741
654.718261	0.177025
654.923497	0.177245
655.128715	0.177546
655.333915	0.177749
655.539096	0.177995
655.744259	0.178195
655.949404	0.178507
656.154531	0.178570
656.359640	0.178924
656.564730	0.179223
656.769802	0.179519
656.974856	0.179458
657.179892	0.179956
657.384909	0.179785
657.589908	0.179965
657.794889	0.180059
657.999852	0.180199
658.204797	0.180318
658.409723	0.180363
658.614631	0.180667
658.819521	0.180985
659.024393	0.180755
659.229246	0.180988
659.434081	0.180954
659.638898	0.181160
659.843697	0.181495
660.048478	0.181413
660.253240	0.181254
660.457984	0.181287
660.662710	0.181211
660.867417	0.181434
661.072107	0.181759
661.276778	0.182131
661.481431	0.182172
661.686066	0.182018
661.890682	0.182451
662.095281	0.183083
662.299861	0.183147
662.504422	0.183456
662.708966	0.183422
662.913491	0.183542
663.117999	0.183827
663.322488	0.183892
663.526958	0.184395
663.731411	0.184390
663.935845	0.184279
664.140261	0.184436
664.344659	0.184357
664.549038	0.184558
664.753400	0.184767
664.957743	0.184854
665.162068	0.185097
665.366375	0.184864
665.570663	0.184923
665.774933	0.185233
665.979185	0.185423
666.183419	0.185595
666.387635	0.185776
666.591832	0.185864
666.796011	0.185895
667.000172	0.186083
667.204315	0.186648
667.408439	0.187020
667.612545	0.187075
667.816634	0.187289
668.020703	0.187336
668.224755	0.187468
668.428788	0.187726
668.632803	0.187740
668.836800	0.187832
669.040779	0.187659
669.244739	0.187469
669.448681	0.187651
669.652605	0.187859
669.856511	0.188271
670.060399	0.188639
670.264268	0.188502
670.468119	0.188628
670.671952	0.188850
670.875767	0.189021
671.079563	0.189231
671.283341	0.189485
671.487101	0.189324
671.690843	0.189278
671.894567	0.189132
672.098272	0.189438
672.301959	0.189600
672.505628	0.189677
672.709278	0.190098
672.912911	0.190357
673.116525	0.190384
673.320121	0.190504
673.523699	0.190822
673.727258	0.191118
673.930799	0.191382
674.134322	0.191501
674.337827	0.191555
674.541314	0.191405
674.744782	0.191555
674.948232	0.191508
675.151664	0.191877
675.355078	0.191796
675.558474	0.191919
675.761851	0.191846
675.965210	0.191990
676.168551	0.192199
676.371873	0.192520
676.575178	0.192576
676.778464	0.192761
676.981732	0.192915
677.184981	0.193234
677.388213	0.193446
677.591426	0.193752
677.794621	0.194057
677.997798	0.194170
678.200956	0.194246
678.404097	0.194490
678.607219	0.194816
678.810323	0.194915
679.013408	0.194857
679.216476	0.194880
679.419525	0.194804
679.622556	0.194817
679.825569	0.195093
680.028563	0.195030
680.231540	0.195216
680.434498	0.195157
680.637438	0.195116
680.840359	0.195488
681.043263	0.195658
681.246148	0.195899
681.449015	0.195801
681.651864	0.195864
681.854694	0.196032
682.057506	0.195923
682.260301	0.196142
682.463076	0.196218
682.665834	0.196233
682.868573	0.196330
683.071295	0.196425
683.273998	0.196886
683.476682	0.197041
683.679349	0.197314
683.881997	0.197692
684.084627	0.198103
684.287239	0.198474
684.489833	0.198718
684.692408	0.198965
684.894965	0.198973
685.097504	0.199067
685.300025	0.199208
685.502527	0.199263
685.705012	0.199037
685.907478	0.198982
686.109925	0.199006
686.312355	0.199047
686.514766	0.199020
686.717159	0.199197
686.919534	0.199257
687.121891	0.199372
687.324230	0.199543
687.526550	0.199822
687.728852	0.199773
687.931136	0.199810
688.133401	0.199979
688.335649	0.200027
688.537878	0.200238
688.740089	0.200295
688.942281	0.200224
689.144456	0.200270
689.346612	0.200420
689.548750	0.200492
689.750870	0.200771
689.952971	0.200795
690.155055	0.200924
690.357120	0.201033
690.559167	0.201306
690.761195	0.201486
690.963206	0.201656
691.165198	0.201938
691.367172	0.202367
691.569128	0.202110
691.771065	0.202355
691.972984	0.202705
692.174885	0.202959
692.376768	0.203002
692.578633	0.203254
692.780479	0.203446
692.982308	0.203390
693.184118	0.203276
693.385909	0.203732
693.587683	0.203714
693.789438	0.203729
693.991175	0.203598
694.192894	0.203726
694.394595	0.203735
694.596277	0.203898
694.797941	0.204065
694.999587	0.204354
695.201215	0.204476
695.402824	0.204675
695.604416	0.204756
695.805989	0.205144
696.007543	0.205143
696.209080	0.205232
696.410598	0.205484
696.612099	0.205443
696.813580	0.205294
697.015044	0.205304
697.216490	0.205375
697.417917	0.205518
697.619326	0.205452
697.820717	0.205680
698.022089	0.205766
698.223444	0.205617
698.424780	0.205551
698.626098	0.205687
698.827397	0.205798
699.028679	0.205893
699.229942	0.205935
699.431187	0.205975
699.632414	0.206152
699.833622	0.206196
700.034813	0.206100
700.235985	0.206410
700.437139	0.206653
700.638274	0.206752
700.839392	0.206852
701.040491	0.206905
701.241572	0.207146
701.442635	0.206930
701.643679	0.207107
701.844706	0.207582
702.045714	0.207629
702.246704	0.207533
702.447675	0.207591
702.648629	0.207364
702.849564	0.207443
703.050481	0.207454
703.251380	0.207716
703.452260	0.207874
703.653122	0.207724
703.853966	0.207914
704.054792	0.208045
704.255600	0.208112
704.456389	0.208163
704.657160	0.208187
704.857913	0.208033
705.058648	0.208225
705.259365	0.207945
705.460063	0.207841
705.660743	0.207806
705.861405	0.207838
706.062048	0.207926
706.262674	0.207999
706.463281	0.207926
706.663870	0.208025
706.864441	0.207803
707.064993	0.207957
707.265527	0.207962
707.466043	0.207867
707.666541	0.207918
707.867021	0.207822
708.067482	0.207971
708.267925	0.207980
708.468350	0.207963
708.668757	0.207951
708.869145	0.208061
709.069516	0.208134
709.269868	0.208277
709.470201	0.208030
709.670517	0.208092
709.870814	0.208116
710.071093	0.208257
710.271354	0.208318
710.471597	0.208069
710.671821	0.208300
710.872028	0.208407
711.072216	0.208492
711.272385	0.208538
711.472537	0.208440
711.672670	0.208410
711.872785	0.208548
712.072882	0.208469
712.272961	0.208604
712.473021	0.208210
712.673063	0.208020
712.873087	0.207856
713.073093	0.208138
713.273081	0.208063
713.473050	0.208265
713.673001	0.208026
713.872934	0.208102
714.072849	0.208060
714.272745	0.208357
714.472623	0.208556
714.672483	0.208273
714.872325	0.208200
715.072148	0.208276
715.271954	0.208211
715.471741	0.208259
715.671509	0.208188
715.871260	0.208469
716.070992	0.207986
716.270707	0.207859
716.470403	0.207781
716.670080	0.207541
716.869740	0.207378
717.069381	0.207204
717.269004	0.207053
717.468609	0.207023
717.668195	0.206773
717.867764	0.206959
718.067314	0.207013
718.266846	0.207352
718.466360	0.207269
718.665855	0.207331
718.865332	0.207040
719.064791	0.207053
719.264232	0.206916
719.463655	0.206865
719.663059	0.207012
719.862445	0.206646
720.061813	0.206397
720.261163	0.206417
720.460494	0.206742
720.659807	0.206970
720.859102	0.206841
721.058379	0.206843
721.257638	0.206727
721.456878	0.206613
721.656100	0.206898
721.855304	0.206979
722.054490	0.206838
722.253657	0.206374
722.452806	0.206193
722.651937	0.206166
722.851050	0.205980
723.050145	0.205859
723.249221	0.205580
723.448279	0.205430
723.647319	0.205505
723.846340	0.205558
724.045344	0.205526
724.244329	0.205551
724.443296	0.205540
724.642245	0.205679
724.841175	0.205776
725.040088	0.205807
725.238982	0.205606
725.437857	0.205282
725.636715	0.205013
725.835554	0.204805
726.034376	0.204680
726.233179	0.204331
726.431963	0.204218
726.630730	0.204233
726.829478	0.204076
727.028208	0.204025
727.226920	0.203959
727.425614	0.203935
727.624289	0.203818
727.822946	0.203654
728.021585	0.203765
728.220206	0.203527
728.418808	0.203306
728.617392	0.203164
728.815958	0.203152
729.014506	0.203044
729.213036	0.203128
729.411547	0.203205
729.610040	0.203251
729.808515	0.203135
730.006972	0.202848
730.205410	0.202839
730.403831	0.202779
730.602233	0.202566
730.800616	0.202336
730.998982	0.202105
731.197329	0.201941
731.395658	0.201787
731.593969	0.201785
731.792262	0.201844
731.990536	0.201734
732.188793	0.201505
732.387031	0.201402
732.585250	0.201344
732.783452	0.201149
732.981635	0.201218
733.179800	0.201095
733.377947	0.201088
733.576076	0.200990
733.774186	0.200863
733.972278	0.200813
734.170352	0.200787
734.368408	0.200736
734.566446	0.200816
734.764465	0.200729
734.962466	0.200544
735.160449	0.200256
735.358413	0.200075
735.556360	0.199829
735.754288	0.199677
735.952198	0.199531
736.150090	0.199311
736.347963	0.199167
736.545818	0.198837
736.743655	0.198691
736.941474	0.198504
737.139275	0.198513
737.337057	0.198411
737.534821	0.198356
737.732567	0.198325
737.930295	0.198447
738.128005	0.198198
738.325696	0.197874
738.523369	0.197847
738.721024	0.197547
738.918660	0.197452
739.116279	0.197371
739.313879	0.197323
739.511461	0.197065
739.709024	0.196961
739.906570	0.196886
740.104097	0.196998
740.301606	0.196711
740.499097	0.196769
740.696569	0.196622
740.894024	0.196508
741.091460	0.196292
741.288878	0.196009
741.486277	0.195657
741.683659	0.195733
741.881022	0.195561
742.078367	0.195412
742.275694	0.195119
742.473002	0.194869
742.670293	0.194738
742.867565	0.194531
743.064819	0.194473
743.262054	0.194323
743.459272	0.194122
743.656471	0.193883
743.853652	0.193651
744.050815	0.193758
744.247959	0.193583
744.445085	0.193402
744.642194	0.193316
744.839283	0.193296
745.036355	0.193231
745.233408	0.192800
745.430444	0.192791
745.627461	0.192901
745.824459	0.192396
746.021440	0.192261
746.218402	0.192006
746.415346	0.191843
746.612272	0.191563
746.809180	0.191523
747.006069	0.191623
747.202940	0.191437
747.399793	0.191253
747.596628	0.191432
747.793444	0.191219
747.990243	0.191225
748.187023	0.191193
748.383784	0.191037
748.580528	0.190822
748.777253	0.190447
748.973960	0.190498
749.170649	0.190371
749.367320	0.190207
749.563973	0.190258
749.760607	0.189990
749.957223	0.189728
750.153821	0.189647
750.350400	0.189480
750.546962	0.189371
750.743505	0.188904
750.940030	0.188721
751.136536	0.188436
751.333025	0.188475
751.529495	0.188350
751.725947	0.188193
751.922381	0.188341
752.118796	0.188328
752.315194	0.188371
752.511573	0.188334
752.707934	0.188393
752.904276	0.188403
753.100601	0.188043
753.296907	0.187991
753.493195	0.187992
753.689465	0.187547
753.885716	0.187375
754.081949	0.187266
754.278164	0.187176
754.474361	0.186944
754.670540	0.186811
754.866700	0.186803
755.062843	0.186838
755.258967	0.186796
755.455072	0.186702
755.651160	0.186498
755.847229	0.186234
756.043280	0.186360
756.239313	0.186368
756.435328	0.186333
756.631324	0.186374
756.827302	0.186201
757.023262	0.185978
757.219204	0.185800
757.415127	0.186003
757.611033	0.186147
757.806920	0.185927
758.002788	0.185710
758.198639	0.185768
758.394471	0.185488
758.590286	0.185395
758.786081	0.185420
758.981859	0.185305
759.177619	0.185010
759.373360	0.185025
759.569083	0.184819
759.764788	0.184630
759.960474	0.184405
760.156143	0.184153
760.351793	0.183750
760.547425	0.183388
760.743038	0.183545
760.938634	0.183465
761.134211	0.183115
761.329770	0.183138
761.525311	0.183036
761.720833	0.182773
761.916338	0.182991
762.111824	0.183084
762.307292	0.183120
762.502741	0.182925
762.698173	0.182808
762.893586	0.182728
763.088981	0.182517
763.284358	0.182361
763.479716	0.182552
763.675057	0.182260
763.870379	0.182186
764.065683	0.182102
764.260968	0.181884
764.456236	0.181731
764.651485	0.181610
764.846716	0.181589
765.041929	0.181623
765.237123	0.181595
765.432299	0.181437
765.627457	0.181240
765.822597	0.181369
766.017719	0.181486
766.212822	0.181513
766.407907	0.181323
766.602974	0.181257
766.798023	0.181180
766.993054	0.180900
767.188066	0.181123
767.383060	0.181391
767.578036	0.181030
767.772993	0.180931
767.967933	0.180917
768.162854	0.181086
768.357757	0.181139
768.552642	0.180976
768.747508	0.180959
768.942356	0.180902
769.137186	0.180721
769.331998	0.180898
769.526792	0.180914
769.721567	0.180672
769.916324	0.180630
770.111063	0.180373
770.305784	0.180505
770.500486	0.180373
770.695171	0.180030
770.889837	0.180051
771.084484	0.179825
771.279114	0.179581
771.473725	0.179578
771.668318	0.179295
771.862893	0.179373
772.057450	0.179475
772.251988	0.179545
772.446509	0.179760
772.641011	0.179727
772.835494	0.179841
773.029960	0.180058
773.224407	0.179924
773.418836	0.180220
773.613247	0.180004
773.807640	0.179731
774.002014	0.179624
774.196370	0.179413
774.390708	0.179223
774.585028	0.178975
774.779330	0.178718
774.973613	0.178799
775.167878	0.178571
775.362125	0.178811
775.556354	0.178742
775.750564	0.178735
775.944756	0.178581
776.138930	0.178702
776.333086	0.178995
776.527223	0.179231
776.721343	0.179313
776.915444	0.179299
777.109526	0.179001
777.303591	0.179137
777.497637	0.179013
777.691666	0.179049
777.885676	0.178965
778.079667	0.178808
778.273641	0.178561
778.467596	0.178532
778.661533	0.178565
778.855452	0.178865
779.049352	0.178798
779.243235	0.178897
779.437099	0.179203
779.630945	0.179174
779.824773	0.179200
780.018582	0.179378
780.212373	0.179498
780.406146	0.179758
780.599901	0.179769
780.793638	0.179841
780.987356	0.180006
781.181056	0.180015
781.374738	0.179978
781.568402	0.179920
781.762047	0.179805
781.955674	0.179763
782.149283	0.179549
782.342874	0.179398
782.536447	0.179331
782.730001	0.179199
782.923537	0.179039
783.117055	0.179237
783.310555	0.179343
783.504036	0.179302
783.697499	0.179401
783.890944	0.179574
784.084371	0.179673
784.277780	0.179869
784.471170	0.180016
784.664542	0.180166
784.857896	0.180278
785.051231	0.180301
785.244549	0.180464
785.437848	0.180069
785.631129	0.179862
785.824392	0.179828
786.017636	0.179925
786.210863	0.179943
786.404071	0.179790
786.597260	0.179596
786.790432	0.179745
786.983585	0.180022
787.176721	0.180520
787.369838	0.180828
787.562936	0.180994
787.756017	0.181158
787.949079	0.181394
788.142123	0.181831
788.335149	0.182375
788.528156	0.182493
788.721146	0.182336
788.914117	0.182257
789.107070	0.182260
789.300005	0.182544
789.492921	0.182591
789.685819	0.182448
789.878699	0.182546
790.071561	0.182224
790.264405	0.182196
790.457230	0.182407
790.650037	0.182659
790.842826	0.182850
791.035597	0.182711
791.228349	0.182586
791.421084	0.182784
791.613800	0.182828
791.806497	0.182916
791.999177	0.182991
792.191838	0.182780
792.384481	0.182889
792.577106	0.182835
792.769713	0.182985
792.962301	0.183078
793.154871	0.183022
793.347423	0.182753
793.539957	0.182733
793.732473	0.182798
793.924970	0.183081
794.117449	0.182944
794.309910	0.183087
794.502353	0.183270
794.694777	0.183543
794.887183	0.183907
795.079571	0.184181
795.271941	0.184491
795.464293	0.184767
795.656626	0.184958
795.848941	0.185087
796.041238	0.185208
796.233516	0.185363
796.425777	0.185511
796.618019	0.185671
796.810243	0.185784
797.002449	0.185839
797.194636	0.185915
797.386805	0.186117
797.578956	0.186625
797.771089	0.186606
797.963204	0.186446
798.155300	0.186163
798.347378	0.185888
798.539438	0.186058
798.731480	0.185935
798.923503	0.185981
799.115509	0.185941
799.307496	0.185843
799.499465	0.185982
799.691415	0.186424
799.883348	0.187082
800.075262	0.187437
800.267158	0.187791
800.459035	0.188242
800.650895	0.188387
800.842736	0.188485
801.034559	0.188500
801.226364	0.188911
801.418150	0.188878
801.609919	0.188800
801.801669	0.189159
801.993401	0.188930
802.185114	0.188979
802.376810	0.189099
802.568487	0.189228
802.760146	0.189534
802.951787	0.189591
803.143409	0.189641
803.335014	0.189815
803.526600	0.189749
803.718168	0.190051
803.909717	0.190346
804.101249	0.190663
804.292762	0.190828
804.484257	0.191214
804.675734	0.191339
804.867192	0.191601
805.058632	0.191759
805.250054	0.191965
805.441458	0.192253
805.632844	0.192408
805.824211	0.192568
806.015561	0.193051
806.206891	0.193175
806.398204	0.193253
806.589499	0.193677
806.780775	0.193874
806.972033	0.194003
807.163273	0.194105
807.354495	0.194311
807.545698	0.194401
807.736883	0.194309
807.928050	0.194270
808.119199	0.194547
808.310329	0.194428
808.501441	0.194574
808.692535	0.194763
808.883611	0.195314
809.074669	0.195575
809.265708	0.195895
809.456729	0.195969
809.647732	0.196337
809.838717	0.196733
810.029683	0.197148
810.220632	0.197355
810.411562	0.197784
810.602474	0.197677
810.793367	0.197915
810.984242	0.198035
811.175100	0.198701
811.365938	0.198857
811.556759	0.198984
811.747562	0.199227
811.938346	0.199360
812.129112	0.199511
812.319860	0.199778
812.510589	0.200042
812.701300	0.200264
812.891994	0.200098
813.082668	0.200137
813.273325	0.200397
813.463964	0.200468
813.654584	0.200660
813.845186	0.200893
814.035769	0.201007
814.226335	0.200866
814.416882	0.201204
814.607411	0.201614
814.797922	0.201646
814.988415	0.201615
815.178889	0.202013
815.369345	0.202543
815.559783	0.202754
815.750203	0.203105
815.940605	0.203462
816.130988	0.203750
816.321353	0.203958
816.511700	0.204542
816.702028	0.204859
816.892339	0.205107
817.082631	0.205467
817.272905	0.205788
817.463161	0.205807
817.653398	0.206016
817.843617	0.206281
818.033819	0.206711
818.224001	0.206926
818.414166	0.207121
818.604312	0.207233
818.794440	0.207395
818.984550	0.207407
819.174642	0.207959
819.364716	0.208096
819.554771	0.208243
819.744808	0.208374
819.934827	0.208512
820.124827	0.208847
820.314810	0.209126
820.504774	0.209070
820.694720	0.209349
820.884647	0.209475
821.074557	0.210069
821.264448	0.210303
821.454321	0.210467
821.644176	0.210826
821.834012	0.211141
822.023831	0.211543
822.213631	0.211934
822.403413	0.212177
822.593176	0.212657
822.782922	0.212732
822.972649	0.212794
823.162358	0.213112
823.352049	0.213538
823.541721	0.213987
823.731376	0.213937
823.921012	0.214196
824.110629	0.214350
824.300229	0.214251
824.489811	0.214516
824.679374	0.215125
824.868919	0.215197
825.058445	0.215185
825.247954	0.215206
825.437444	0.215695
825.626916	0.215967
825.816370	0.216311
826.005806	0.216614
826.195223	0.217088
826.384622	0.217060
826.574003	0.217464
826.763366	0.217746
826.952711	0.218077
827.142037	0.218350
827.331345	0.218749
827.520635	0.219258
827.709906	0.219957
827.899160	0.220134
828.088395	0.220460
828.277612	0.220822
828.466810	0.221366
828.655991	0.221776
828.845153	0.221906
829.034297	0.222403
829.223423	0.222690
829.412531	0.222938
829.601620	0.223485
829.790691	0.223891
829.979744	0.224228
830.168779	0.224531
830.357795	0.224579
830.546793	0.225014
830.735773	0.224823
830.924735	0.224908
831.113679	0.225046
831.302604	0.224980
831.491511	0.225228
831.680400	0.225437
831.869271	0.225476
832.058123	0.225808
832.246957	0.226011
832.435773	0.226398
832.624571	0.226806
832.813351	0.226572
833.002112	0.226737
833.190855	0.227138
833.379580	0.227435
833.568287	0.227894
833.756975	0.228127
833.945645	0.228427
834.134297	0.228442
834.322931	0.228728
834.511547	0.229373
834.700144	0.229887
834.888723	0.230154
835.077284	0.230410
835.265826	0.230734
835.454351	0.231113
835.642857	0.231521
835.831345	0.232130
836.019815	0.232429
836.208266	0.232599
836.396699	0.232733
836.585114	0.232849
836.773511	0.233158
836.961890	0.233275
837.150250	0.233738
837.338592	0.233605
837.526916	0.234242
837.715222	0.234422
837.903510	0.235080
838.091779	0.235576
838.280030	0.235931
838.468263	0.236188
838.656477	0.236488
838.844674	0.236613
839.032852	0.237507
839.221012	0.237720
839.409153	0.238126
839.597277	0.238337
839.785382	0.238807
839.973469	0.239200
840.161538	0.239616
840.349589	0.239999
840.537621	0.240565
840.725635	0.240754
840.913631	0.240823
841.101609	0.241319
841.289568	0.241781
841.477509	0.241945
841.665432	0.242569
841.853337	0.243241
842.041224	0.243511
842.229092	0.243744
842.416942	0.244092
842.604774	0.244171
842.792588	0.244270
842.980383	0.244376
843.168160	0.244724
843.355919	0.244723
843.543660	0.244821
843.731382	0.245263
843.919087	0.245664
844.106773	0.246095
844.294441	0.246567
844.482090	0.247020
844.669722	0.247234
844.857335	0.247924
845.044930	0.248260
845.232507	0.248496
845.420065	0.248838
845.607605	0.249284
845.795127	0.249297
845.982631	0.249816
846.170117	0.250216
846.357584	0.250726
846.545033	0.250808
846.732464	0.251000
846.919877	0.251423
847.107272	0.252093
847.294648	0.252534
847.482006	0.253101
847.669346	0.253290
847.856667	0.253697
848.043971	0.254234
848.231256	0.254650
848.418523	0.255444
848.605771	0.255801
848.793002	0.255533
848.980214	0.255510
849.167408	0.255834
849.354584	0.256278
849.541742	0.256363
849.728881	0.256499
849.916002	0.256695
850.103105	0.256790
850.290190	0.257285
850.477256	0.258069
850.664304	0.258441
850.851334	0.258503
851.038346	0.259039
851.225340	0.259585
851.412315	0.259703
851.599272	0.259912
851.786211	0.260252
851.973132	0.260378
852.160034	0.260352
852.346918	0.260864
852.533784	0.261422
852.720632	0.261590
852.907462	0.261674
853.094273	0.262013
853.281066	0.262185
853.467841	0.262158
853.654598	0.262271
853.841336	0.262411
854.028056	0.262555
854.214758	0.263076
854.401442	0.263199
854.588107	0.263677
854.774755	0.264282
854.961384	0.264881
855.147995	0.265545
855.334587	0.265754
855.521162	0.266544
855.707718	0.266684
855.894256	0.266602
856.080775	0.266795
856.267277	0.267108
856.453760	0.267254
856.640225	0.267558
856.826672	0.267697
857.013101	0.268396
857.199511	0.268495
857.385903	0.268978
857.572277	0.269207
857.758633	0.270085
857.944970	0.270527
858.131290	0.270941
858.317591	0.271437
858.503873	0.271896
858.690138	0.272503
858.876384	0.272680
859.062612	0.272804
859.248822	0.273301
859.435014	0.273550
859.621188	0.273788
859.807343	0.273925
859.993480	0.273952
860.179599	0.273999
860.365699	0.273805
860.551781	0.274760
860.737846	0.275003
860.923891	0.275357
861.109919	0.275356
861.295929	0.275632
861.481920	0.276086
861.667893	0.276812
861.853848	0.277009
862.039784	0.277688
862.225702	0.277663
862.411603	0.278459
862.597484	0.278983
862.783348	0.279181
862.969193	0.279259
863.155021	0.279705
863.340830	0.279688
863.526620	0.280270
863.712393	0.280142
863.898147	0.280133
864.083883	0.280176
864.269601	0.280407
864.455301	0.280934
864.640982	0.281152
864.826645	0.281222
865.012290	0.281268
865.197917	0.281725
865.383526	0.282168
865.569116	0.282576
865.754688	0.283109
865.940242	0.282968
866.125777	0.283186
866.311295	0.283642
866.496794	0.283739
866.682275	0.284183
866.867737	0.284071
867.053182	0.284282
867.238608	0.284498
867.424016	0.284791
867.609406	0.285303
867.794778	0.285638
867.980131	0.286010
868.165466	0.286338
868.350783	0.286563
868.536082	0.286984
868.721362	0.287018
868.906625	0.287166
869.091869	0.287299
869.277094	0.287173
869.462302	0.287310
869.647491	0.287189
869.832662	0.287581
870.017815	0.287512
870.202950	0.287820
870.388066	0.288031
870.573165	0.288456
870.758245	0.288367
870.943306	0.288665
871.128350	0.288638
871.313375	0.289052
871.498382	0.289039
871.683371	0.289213
871.868342	0.289289
872.053294	0.289727
872.238229	0.289658
872.423144	0.289920
872.608042	0.290234
872.792922	0.290791
872.977783	0.291021
873.162626	0.291282
873.347451	0.291615
873.532258	0.292390
873.717046	0.292664
873.901816	0.293008
874.086568	0.293276
874.271302	0.293349
874.456017	0.293793
874.640715	0.294334
874.825394	0.294671
875.010055	0.294921
875.194697	0.294515
875.379322	0.294779
875.563928	0.294763
875.748516	0.294885
875.933085	0.295128
876.117637	0.295077
876.302170	0.294536
876.486685	0.294524
876.671182	0.294704
876.855661	0.294900
877.040121	0.294533
877.224563	0.294661
877.408987	0.294399
877.593393	0.294410
877.777780	0.294194
877.962150	0.294652
878.146501	0.294910
878.330833	0.294293
878.515148	0.294066
878.699444	0.294792
878.883722	0.294738
879.067982	0.295213
879.252224	0.295293
879.436447	0.295565
879.620653	0.296088
879.804840	0.296215
879.989008	0.296994
880.173159	0.297330
880.357291	0.296822
880.541405	0.297327
880.725501	0.297632
880.909579	0.298259
881.093638	0.298437
881.277680	0.298243
881.461703	0.297933
881.645707	0.297868
881.829694	0.297852
882.013662	0.298330
882.197612	0.298619
882.381544	0.298489
882.565458	0.298482
882.749353	0.298502
882.933230	0.298477
883.117089	0.298823
883.300930	0.298923
883.484753	0.299348
883.668557	0.299393
883.852343	0.299248
884.036111	0.299190
884.219861	0.299293
884.403592	0.299312
884.587305	0.299165
884.771000	0.299573
884.954677	0.299829
885.138335	0.299546
885.321976	0.299989
885.505598	0.299996
885.689201	0.300141
885.872787	0.300013
886.056354	0.300237
886.239904	0.300381
886.423434	0.300635
886.606947	0.300841
886.790442	0.300995
886.973918	0.300526
887.157376	0.300787
887.340816	0.300875
887.524237	0.300671
887.707641	0.300140
887.891026	0.300120
888.074393	0.299854
888.257741	0.299596
888.441072	0.299615
888.624384	0.299667
888.807678	0.299327
888.990954	0.299124
889.174211	0.299247
889.357451	0.299284
889.540672	0.299336
889.723875	0.298825
889.907059	0.299038
890.090226	0.299002
890.273374	0.299170
890.456504	0.299411
890.639616	0.299575
890.822709	0.299527
891.005785	0.300084
891.188842	0.300104
891.371881	0.300228
891.554901	0.299901
891.737904	0.300082
891.920888	0.299801
892.103854	0.299482
892.286802	0.299330
892.469731	0.299235
892.652643	0.299252
892.835536	0.299394
893.018410	0.299369
893.201267	0.299231
893.384106	0.299495
893.566926	0.299223
893.749728	0.299628
893.932511	0.300023
894.115277	0.300173
894.298024	0.299796
894.480753	0.299371
894.663464	0.299429
894.846157	0.299482
895.028831	0.298874
895.211487	0.299161
895.394125	0.298524
895.576745	0.298253
895.759346	0.297954
895.941930	0.297806
896.124495	0.297893
896.307041	0.297684
896.489570	0.297585
896.672080	0.297927
896.854573	0.297498
897.037046	0.297843
897.219502	0.297530
897.401940	0.297647
897.584359	0.297657
897.766760	0.297569
897.949143	0.297719
898.131507	0.297634
898.313854	0.296926
898.496182	0.296784
898.678492	0.295817
898.860783	0.295418
899.043057	0.294721
899.225312	0.294077
899.407549	0.293497
899.589768	0.293098
899.771968	0.292935
899.954151	0.292830
900.136315	0.292629
900.318461	0.293025
900.500588	0.292794
900.682698	0.292759
900.864789	0.292775
901.046862	0.292853
901.228917	0.292673
901.410953	0.292209
901.592971	0.291656
901.774972	0.291528
901.956953	0.291287
902.138917	0.291447
902.320862	0.291429
902.502790	0.291244
902.684699	0.290433
902.866589	0.289972
903.048462	0.290078
903.230316	0.289778
903.412152	0.289318
903.593970	0.289216
903.775770	0.288589
903.957551	0.288081
904.139314	0.288080
904.321059	0.288677
904.502786	0.288572
904.684494	0.288362
904.866185	0.288759
905.047857	0.288823
905.229510	0.288250
905.411146	0.288360
905.592763	0.287961
905.774363	0.287456
905.955943	0.287005
906.137506	0.286840
906.319051	0.286399
906.500577	0.285784
906.682085	0.285405
906.863575	0.285422
907.045046	0.284968
907.226500	0.285265
907.407935	0.285220
907.589352	0.284607
907.770750	0.284144
907.952131	0.284253
908.133493	0.283879
908.314837	0.283555
908.496163	0.283225
908.677470	0.282449
908.858760	0.281712
909.040031	0.280823
909.221284	0.281006
909.402518	0.280539
909.583735	0.280238
909.764933	0.280257
909.946113	0.279656
910.127275	0.279508
910.308418	0.279605
910.489544	0.279242
910.670651	0.279690
910.851740	0.279152
911.032810	0.279143
911.213863	0.278249
911.394897	0.277618
911.575913	0.276942
911.756911	0.276390
911.937890	0.275591
912.118851	0.275353
912.299794	0.274348
912.480719	0.273356
912.661626	0.272404
912.842514	0.272154
913.023384	0.272074
913.204236	0.272470
913.385070	0.271673
913.565886	0.271585
913.746683	0.271577
913.927462	0.271028
914.108223	0.270738
914.288965	0.270794
914.469690	0.269683
914.650396	0.268700
914.831084	0.267683
915.011754	0.267798
915.192405	0.267592
915.373038	0.266639
915.553653	0.266510
915.734250	0.266568
915.914829	0.265813
916.095389	0.265221
916.275931	0.264948
916.456455	0.265334
916.636961	0.264406
916.817448	0.263603
916.997917	0.263338
917.178368	0.262744
917.358801	0.262179
917.539216	0.261642
917.719612	0.261565
917.899990	0.261288
918.080350	0.260292
918.260692	0.259862
918.441015	0.259825
918.621320	0.259288
918.801607	0.258475
918.981876	0.257919
919.162127	0.257553
919.342359	0.257490
919.522573	0.256942
919.702769	0.256836
919.882947	0.256411
920.063106	0.255491
920.243247	0.254845
920.423370	0.254801
920.603475	0.254122
920.783562	0.253393
920.963630	0.252745
921.143680	0.252234
921.323712	0.251180
921.503725	0.250406
921.683721	0.250126
921.863698	0.249449
922.043657	0.248982
922.223598	0.248565
922.403520	0.248250
922.583424	0.247637
922.763311	0.247179
922.943178	0.246609
923.123028	0.246179
923.302859	0.245463
923.482673	0.244369
923.662467	0.243088
923.842244	0.242080
924.022003	0.241132
924.201743	0.241287
924.381465	0.239963
924.561169	0.239533
924.740854	0.239121
924.920522	0.238366
925.100171	0.238442
925.279802	0.238363
925.459414	0.238195
925.639009	0.237550
925.818585	0.236348
925.998143	0.235996
926.177683	0.235251
926.357205	0.234117
926.536708	0.234034
926.716193	0.233385
926.895660	0.232894
927.075109	0.232309
927.254539	0.231778
927.433951	0.230667
927.613345	0.230178
927.792721	0.229423
927.972079	0.228796
928.151418	0.227348
928.330739	0.226689
928.510042	0.225107
928.689327	0.223907
928.868593	0.223229
929.047841	0.223074
929.227071	0.222011
929.406283	0.221295
929.585476	0.220681
929.764652	0.220687
929.943809	0.219997
930.122948	0.220231
930.302068	0.219782
930.481171	0.219821
930.660255	0.219184
930.839321	0.218190
931.018369	0.216918
931.197398	0.216387
931.376409	0.215464
931.555402	0.214357
931.734377	0.213540
931.913334	0.211722
932.092272	0.210577
932.271192	0.209608
932.450094	0.209608
932.628978	0.209180
932.807844	0.208113
932.986691	0.206569
933.165520	0.206083
933.344331	0.205042
933.523123	0.204936
933.701898	0.203756
933.880654	0.202156
934.059392	0.201152
934.238111	0.200265
934.416813	0.199592
934.595496	0.199492
934.774161	0.199149
934.952808	0.198023
935.131437	0.197471
935.310047	0.197195
935.488639	0.197153
935.667213	0.196519
935.845769	0.195399
936.024306	0.194186
936.202825	0.192993
936.381326	0.191747
936.559809	0.191442
936.738274	0.191329
936.916720	0.189929
937.095148	0.189031
937.273558	0.188476
937.451950	0.188717
937.630323	0.188381
937.808678	0.187697
937.987015	0.186420
938.165334	0.185235
938.343635	0.183265
938.521917	0.182951
938.700181	0.181814
938.878427	0.181361
939.056655	0.180036
939.234864	0.179547
939.413055	0.178526
939.591228	0.178465
939.769383	0.177996
939.947519	0.177783
940.125638	0.176941
940.303738	0.177038
940.481820	0.175344
940.659883	0.174075
940.837929	0.172804
941.015956	0.171439
941.193965	0.170356
941.371955	0.169944
941.549928	0.169209
941.727882	0.168869
941.905818	0.167577
942.083736	0.166506
942.261636	0.166145
942.439517	0.165216
942.617380	0.164264
942.795225	0.163790
942.973052	0.161187
943.150860	0.160398
943.328651	0.158512
943.506423	0.157735
943.684176	0.157303
943.861912	0.157077
944.039629	0.156478
944.217328	0.156664
944.395009	0.155873
944.572672	0.156820
944.750317	0.155248
944.927943	0.154215
945.105551	0.152628
945.283141	0.151842
945.460712	0.150764
945.638265	0.149771
945.815801	0.148603
945.993317	0.146694
946.170816	0.145142
946.348297	0.143281
946.525759	0.142260
946.703203	0.140736
946.880629	0.139451
947.058036	0.137539
947.235425	0.136435
947.412797	0.134972
947.590149	0.134549
947.767484	0.133684
947.944800	0.133716
948.122099	0.132390
948.299379	0.132308
948.476640	0.131292
948.653884	0.130607
948.831109	0.131666
949.008316	0.130687
949.185505	0.129354
949.362676	0.127641
949.539828	0.126856
949.716962	0.126692
949.894078	0.125295
950.071176	0.125014
950.248256	0.124207
950.425317	0.121883
950.602360	0.121956
950.779385	0.120682
950.956391	0.120903
951.133380	0.120634
951.310350	0.118584
951.487302	0.117479
951.664235	0.116316
951.841151	0.115891
952.018048	0.113590
952.194927	0.111577
952.371788	0.111291
952.548631	0.110431
952.725455	0.110326
952.902261	0.111035
953.079049	0.110805
953.255819	0.110206
953.432570	0.110581
953.609303	0.109318
953.786018	0.109813
953.962715	0.108350
954.139394	0.106047
954.316054	0.102461
954.492696	0.100379
954.669320	0.098892
954.845926	0.097967
955.022513	0.095380
955.199083	0.094190
955.375634	0.092212
955.552166	0.091336
955.728681	0.090220
955.905177	0.091016
956.081655	0.090292
956.258115	0.089406
956.434557	0.087892
956.610980	0.087816
956.787385	0.087820
956.963772	0.088108
957.140141	0.087680
957.316492	0.087907
957.492824	0.087880
957.669138	0.088912
957.845434	0.089989
958.021712	0.088698
958.197971	0.086970
958.374212	0.087629
958.550435	0.087559
958.726640	0.088299
958.902826	0.088924
959.078995	0.086996
959.255145	0.084198
959.431277	0.082194
959.607390	0.083303
959.783486	0.083831
959.959563	0.082446
960.135622	0.079608
960.311662	0.079388
960.487685	0.078136
960.663689	0.077338
960.839675	0.078132
961.015643	0.077736
961.191593	0.076370
961.367524	0.077190
961.543437	0.075965
961.719332	0.076936
961.895209	0.074019
962.071067	0.072752
962.246907	0.073896
962.422730	0.072908
962.598533	0.073504
962.774319	0.073384
962.950086	0.071319
963.125835	0.072713
963.301566	0.074310
963.477279	0.075356
963.652973	0.075116
963.828650	0.073863
964.004308	0.074277
964.179947	0.073483
964.355569	0.073534
964.531172	0.073265
964.706757	0.073118
964.882324	0.070285
965.057873	0.068940
965.233403	0.068040
965.408916	0.069335
965.584410	0.068861
965.759885	0.068234
965.935343	0.065855
966.110782	0.064292
966.286203	0.063695
966.461606	0.065264
966.636991	0.066425
966.812357	0.067384
966.987705	0.065898
967.163035	0.066102
967.338347	0.067253
967.513641	0.069355
967.688916	0.070027
967.864173	0.069747
968.039412	0.066624
968.214632	0.065355
968.389835	0.064971
968.565019	0.065425
968.740185	0.066250
968.915333	0.066656
969.090462	0.065035
969.265573	0.064751
969.440667	0.063416
969.615741	0.065611
969.790798	0.066780
969.965836	0.066892
970.140856	0.067216
970.315858	0.064653
970.490842	0.062981
970.665808	0.065968
970.840755	0.065886
971.015684	0.066857
971.190595	0.065888
971.365487	0.065348
971.540362	0.064440
971.715218	0.064618
971.890056	0.065903
972.064875	0.065286
972.239677	0.063008
972.414460	0.063262
972.589225	0.063080
972.763972	0.064149
972.938700	0.064779
973.113411	0.064760
973.288103	0.064812
973.462777	0.065197
973.637432	0.064556
973.812070	0.063892
973.986689	0.064131
974.161290	0.063707
974.335873	0.063129
974.510437	0.061161
974.684984	0.062050
974.859512	0.060898
975.034022	0.059735
975.208513	0.062315
975.382987	0.062095
975.557442	0.061584
975.731879	0.062791
975.906298	0.063285
976.080698	0.063559
976.255080	0.062726
976.429445	0.062171
976.603790	0.063501
976.778118	0.062227
976.952427	0.063785
977.126719	0.065349
977.300992	0.065893
977.475246	0.064049
977.649483	0.065053
977.823701	0.063209
977.997901	0.062338
978.172083	0.061593
978.346247	0.059948
978.520392	0.060098
978.694519	0.057643
978.868628	0.057652
979.042719	0.059414
979.216791	0.059412
979.390845	0.061970
979.564882	0.064191
979.738899	0.064442
979.912899	0.066238
980.086880	0.064873
980.260843	0.066402
980.434788	0.065204
980.608715	0.064928
980.782623	0.067043
980.956514	0.068232
981.130386	0.067722
981.304240	0.067429
981.478075	0.066102
981.651892	0.067163
981.825692	0.068134
981.999472	0.067944
982.173235	0.068040
982.346980	0.066537
982.520706	0.065752
982.694414	0.066134
982.868104	0.066257
983.041775	0.068375
983.215428	0.068267
983.389064	0.069868
983.562680	0.070638
983.736279	0.070557
983.909860	0.070051
984.083422	0.070100
984.256966	0.071740
984.430491	0.073777
984.603999	0.073319
984.777488	0.074979
984.950959	0.072573
985.124412	0.072547
985.297847	0.073144
985.471263	0.073677
985.644661	0.074039
985.818041	0.070796
985.991403	0.070380
986.164747	0.070658
986.338072	0.069227
986.511379	0.069657
986.684668	0.069655
986.857938	0.069012
987.031191	0.067285
987.204425	0.067774
987.377641	0.069858
987.550839	0.068374
987.724018	0.069004
987.897179	0.068984
988.070322	0.069561
988.243447	0.071311
988.416554	0.073358
988.589642	0.075251
988.762712	0.073168
988.935764	0.073067
989.108798	0.074265
989.281813	0.072418
989.454811	0.072451
989.627790	0.071761
989.800751	0.071396
989.973693	0.069860
990.146617	0.068868
990.319524	0.069717
990.492412	0.070374
990.665281	0.070731
990.838133	0.071816
991.010966	0.070884
991.183781	0.070530
991.356578	0.068225
991.529356	0.067393
991.702117	0.066095
991.874859	0.066179
992.047583	0.065421
992.220288	0.063500
992.392976	0.063233
992.565645	0.063942
992.738296	0.063332
992.910929	0.063833
993.083543	0.064544
993.256139	0.066658
993.428718	0.066077
993.601277	0.066350
993.773819	0.067456
993.946342	0.066584
994.118848	0.066207
994.291335	0.068136
994.463803	0.068499
994.636254	0.069734
994.808686	0.069890
994.981100	0.069980
995.153496	0.070615
995.325874	0.072290
995.498233	0.074206
995.670574	0.075203
995.842897	0.073791
996.015202	0.074344
996.187488	0.073855
996.359757	0.074170
996.532007	0.074968
996.704239	0.074070
996.876452	0.071883
997.048648	0.072454
997.220825	0.072886
997.392984	0.072429
997.565124	0.072107
997.737247	0.071254
997.909351	0.070805
998.081437	0.070630
998.253505	0.070827
998.425554	0.071362
998.597586	0.070429
998.769599	0.069030
998.941594	0.070350
999.113571	0.070530
999.285529	0.067732
999.457469	0.068297
999.629391	0.068291
999.801295	0.067759
999.973181	0.067216
1000.145048	0.067653
1000.316897	0.068001
1000.488728	0.067505
1000.660541	0.068595
1000.832335	0.072392
1001.004111	0.070758
1001.175869	0.070727
1001.347609	0.070888
1001.519331	0.072158
1001.691034	0.071968
1001.862719	0.072903
1002.034386	0.073778
1002.206035	0.073092
1002.377665	0.072507
1002.549277	0.074943
1002.720871	0.075409
1002.892447	0.075539
1003.064004	0.073237
1003.235544	0.074347
1003.407065	0.075005
1003.578568	0.073971
1003.750052	0.074207
1003.921519	0.074383
1004.092967	0.073273
1004.264397	0.072421
1004.435809	0.072500
1004.607202	0.072268
1004.778577	0.070572
1004.949934	0.068921
1005.121273	0.069876
1005.292594	0.070498
1005.463896	0.069335
1005.635180	0.069493
1005.806446	0.071353
1005.977694	0.070532
1006.148923	0.071734
1006.320135	0.070964
1006.491328	0.071015
1006.662503	0.069183
1006.833659	0.069479
1007.004798	0.071134
1007.175918	0.070852
1007.347020	0.069460
1007.518103	0.069123
1007.689169	0.069927
1007.860216	0.070781
1008.031245	0.072945
1008.202256	0.074259
1008.373248	0.073737
1008.544223	0.072127
1008.715179	0.071967
1008.886117	0.073614
1009.057036	0.074170
1009.227938	0.075131
1009.398821	0.074279
1009.569686	0.072127
1009.740533	0.071418
1009.911361	0.071011
1010.082172	0.071944
1010.252964	0.072090
1010.423738	0.070500
1010.594493	0.070908
1010.765231	0.069669
1010.935950	0.070966
1011.106651	0.070639
1011.277334	0.072518
1011.447998	0.072972
1011.618645	0.073118
1011.789273	0.071763
1011.959882	0.073169
1012.130474	0.072713
1012.301048	0.072260
1012.471603	0.072279
1012.642140	0.073185
1012.812658	0.070910
1012.983159	0.070660
1013.153641	0.071087
1013.324105	0.072959
1013.494551	0.071419
1013.664979	0.071990
1013.835388	0.071415
1014.005779	0.071636
1014.176152	0.071549
1014.346507	0.073212
1014.516843	0.072773
1014.687162	0.072146
1014.857462	0.072209
1015.027744	0.073453
1015.198007	0.075024
1015.368252	0.076936
1015.538480	0.076543
1015.708689	0.076787
1015.878879	0.075666
1016.049052	0.074927
1016.219206	0.074891
1016.389342	0.075142
1016.559460	0.074389
1016.729559	0.072220
1016.899641	0.071808
1017.069704	0.071476
1017.239749	0.071187
1017.409775	0.071802
1017.579784	0.071586
1017.749774	0.072740
1017.919746	0.072059
1018.089700	0.071325
1018.259635	0.072591
1018.429553	0.071661
1018.599452	0.072062
1018.769333	0.072692
1018.939195	0.074334
1019.109040	0.074206
1019.278866	0.073206
1019.448674	0.075010
1019.618464	0.076044
1019.788235	0.074521
1019.957989	0.073513
1020.127724	0.074713
1020.297441	0.073962
1020.467139	0.072883
1020.636820	0.072771
1020.806482	0.071785
1020.976126	0.069459
1021.145752	0.067867
1021.315359	0.069402
1021.484948	0.071669
1021.654519	0.069490
1021.824072	0.069446
1021.993607	0.068228
1022.163123	0.070142
1022.332621	0.071038
1022.502101	0.071636
1022.671563	0.072824
1022.841007	0.073095
1023.010432	0.073288
1023.179839	0.073894
1023.349228	0.074851
1023.518598	0.074828
1023.687951	0.074240
1023.857285	0.073899
1024.026601	0.073402
1024.195899	0.073187
1024.365178	0.072584
1024.534439	0.072161
1024.703682	0.070387
1024.872907	0.068353
1025.042114	0.068239
1025.211302	0.068894
1025.380472	0.070799
1025.549624	0.071092
1025.718758	0.070287
1025.887873	0.069365
1026.056970	0.067844
1026.226049	0.069543
1026.395110	0.071601
1026.564153	0.072841
1026.733177	0.073423
1026.902183	0.070752
1027.071171	0.071345
1027.240141	0.071667
1027.409092	0.071589
1027.578026	0.073764
1027.746940	0.074710
1027.915837	0.074105
1028.084716	0.074389
1028.253576	0.073479
1028.422418	0.074801
1028.591242	0.074350
1028.760048	0.074263
1028.928835	0.075452
1029.097604	0.074112
1029.266355	0.071433
1029.435088	0.071548
1029.603803	0.070863
1029.772499	0.070121
1029.941177	0.069994
1030.109837	0.071165
1030.278478	0.071707
1030.447102	0.070837
1030.615707	0.071713
1030.784294	0.073227
1030.952863	0.071743
1031.121413	0.072920
1031.289945	0.072291
1031.458460	0.071600
1031.626955	0.070438
1031.795433	0.069802
1031.963892	0.069918
1032.132334	0.069558
1032.300756	0.070132
1032.469161	0.071822
1032.637548	0.071102
1032.805916	0.071451
1032.974266	0.071475
1033.142598	0.070396
1033.310911	0.072255
1033.479207	0.071525
1033.647484	0.071720
1033.815743	0.071426
1033.983983	0.071458
1034.152206	0.070142
1034.320410	0.070823
1034.488596	0.072450
1034.656764	0.072803
1034.824914	0.070935
1034.993045	0.071384
1035.161158	0.069970
1035.329253	0.069059
1035.497330	0.068196
1035.665388	0.070570
1035.833428	0.069058
1036.001450	0.068590
1036.169454	0.069207
1036.337440	0.069267
1036.505407	0.069467
1036.673356	0.071328
1036.841287	0.072848
1037.009200	0.072434
1037.177094	0.070131
1037.344970	0.069816
1037.512828	0.068528
1037.680668	0.067668
1037.848489	0.067873
1038.016293	0.069110
1038.184078	0.067930
1038.351845	0.068073
1038.519593	0.069119
1038.687324	0.071051
1038.855036	0.071987
1039.022730	0.072304
1039.190406	0.072707
1039.358063	0.073145
1039.525702	0.070653
1039.693323	0.071578
1039.860926	0.071289
1040.028511	0.070890
1040.196077	0.070011
1040.363625	0.070282
1040.531155	0.070404
1040.698667	0.072368
1040.866161	0.072667
1041.033636	0.074209
1041.201093	0.071954
1041.368532	0.071866
1041.535952	0.070552
1041.703355	0.069962
1041.870739	0.068868
1042.038105	0.068745
1042.205452	0.067699
1042.372782	0.067303
1042.540093	0.066910
1042.707386	0.068303
1042.874661	0.069073
1043.041918	0.070410
1043.209156	0.070308
1043.376376	0.070991
1043.543578	0.070585
1043.710762	0.070267
1043.877927	0.071130
1044.045074	0.072082
1044.212203	0.072727
1044.379314	0.071217
1044.546407	0.071715
1044.713481	0.071054
1044.880537	0.072215
1045.047575	0.073035
1045.214595	0.073049
1045.381596	0.071552
1045.548579	0.071046
1045.715544	0.070891
1045.882491	0.071562
1046.049420	0.071235
1046.216330	0.073145
1046.383222	0.071750
1046.550096	0.072808
1046.716951	0.071314
1046.883789	0.072844
1047.050608	0.071800
1047.217409	0.071946
1047.384192	0.072039
1047.550956	0.072020
1047.717703	0.069893
1047.884431	0.070243
1048.051140	0.067732
1048.217832	0.069481
1048.384505	0.068809
1048.551161	0.070450
1048.717798	0.070472
1048.884416	0.068864
1049.051017	0.068306
1049.217599	0.069649
1049.384163	0.070730
1049.550709	0.072186
1049.717237	0.071035
1049.883746	0.071544
1050.050237	0.070769
1050.216710	0.070821
1050.383165	0.070546
1050.549601	0.070327
1050.716019	0.069949
1050.882420	0.068130
1051.048801	0.067383
1051.215165	0.068055
1051.381510	0.067575
1051.547837	0.068302
1051.714146	0.067039
1051.880437	0.067481
1052.046709	0.069443
1052.212964	0.068772
1052.379200	0.070218
1052.545417	0.072168
1052.711617	0.072181
1052.877798	0.072441
1053.043961	0.071200
1053.210106	0.071299
1053.376233	0.071209
1053.542341	0.068997
1053.708432	0.069952
1053.874504	0.071046
1054.040557	0.068473
1054.206593	0.068035
1054.372610	0.066396
1054.538609	0.066983
1054.704590	0.068145
1054.870553	0.068506
1055.036497	0.069072
1055.202424	0.068128
1055.368331	0.067077
1055.534221	0.068214
1055.700093	0.068498
1055.865946	0.068968
1056.031781	0.069356
1056.197598	0.069695
1056.363397	0.071367
1056.529177	0.071716
1056.694939	0.073385
1056.860683	0.073633
1057.026409	0.072082
1057.192116	0.071593
1057.357806	0.072904
1057.523477	0.072327
1057.689130	0.070205
1057.854764	0.069159
1058.020381	0.067595
1058.185979	0.068543
1058.351559	0.069030
1058.517120	0.070000
1058.682664	0.069728
1058.848189	0.068758
1059.013696	0.070291
1059.179185	0.072380
1059.344656	0.073345
1059.510108	0.076232
1059.675542	0.074342
1059.840958	0.074351
1060.006356	0.076506
1060.171735	0.077806
1060.337096	0.076944
1060.502439	0.075496
1060.667764	0.075821
1060.833071	0.073621
1060.998359	0.072407
1061.163629	0.072837
1061.328881	0.070655
1061.494115	0.067952
1061.659330	0.069088
1061.824527	0.071640
1061.989706	0.071880
1062.154867	0.070481
1062.320010	0.073605
1062.485134	0.072956
1062.650240	0.071718
1062.815328	0.073751
1062.980398	0.074735
1063.145449	0.073023
1063.310482	0.072022
1063.475497	0.072493
1063.640494	0.072422
1063.805473	0.071142
1063.970433	0.071716
1064.135375	0.072891
1064.300299	0.072299
1064.465204	0.071885
1064.630092	0.070499
1064.794961	0.069865
1064.959812	0.069545
1065.124645	0.070774
1065.289459	0.069365
1065.454256	0.068195
1065.619034	0.067575
1065.783793	0.067542
1065.948535	0.070136
1066.113258	0.073231
1066.277964	0.073963
1066.442651	0.073056
1066.607319	0.072187
1066.771970	0.073153
1066.936602	0.076107
1067.101216	0.077462
1067.265812	0.077081
1067.430389	0.076284
1067.594949	0.074907
1067.759490	0.074252
1067.924013	0.075478
1068.088518	0.076404
1068.253004	0.077352
1068.417472	0.076443
1068.581922	0.077323
1068.746354	0.076873
1068.910768	0.076675
1069.075163	0.076692
1069.239540	0.077168
1069.403899	0.075695
1069.568240	0.075086
1069.732562	0.074130
1069.896866	0.071826
1070.061152	0.069961
1070.225420	0.071918
1070.389670	0.071033
1070.553901	0.072216
1070.718114	0.072321
1070.882309	0.073729
1071.046486	0.073842
1071.210644	0.074564
1071.374784	0.076080
1071.538906	0.076993
1071.703010	0.075809
1071.867096	0.074028
1072.031163	0.071723
1072.195212	0.072102
1072.359243	0.072529
1072.523256	0.073807
1072.687250	0.073801
1072.851226	0.073273
1073.015184	0.073120
1073.179124	0.072531
1073.343045	0.075072
1073.506949	0.076000
1073.670834	0.075174
1073.834701	0.075048
1073.998549	0.074746
1074.162380	0.075543
1074.326192	0.077080
1074.489986	0.077544
1074.653761	0.078130
1074.817519	0.076163
1074.981258	0.074847
1075.144979	0.076254
1075.308682	0.075703
1075.472367	0.074072
1075.636033	0.073217
1075.799681	0.072061
1075.963311	0.071899
1076.126923	0.071818
1076.290516	0.073422
1076.454092	0.073805
1076.617649	0.072361
1076.781187	0.073298
1076.944708	0.073410
1077.108210	0.074283
1077.271695	0.074200
1077.435160	0.072773
1077.598608	0.070913
1077.762038	0.068998
1077.925449	0.070206
1078.088842	0.069271
1078.252217	0.068569
1078.415573	0.070197
1078.578912	0.067673
1078.742232	0.068431
1078.905534	0.068055
1079.068817	0.070862
1079.232083	0.072333
1079.395330	0.072914
1079.558559	0.074659
1079.721770	0.075395
1079.884962	0.073551
1080.048136	0.074698
1080.211293	0.071928
1080.374430	0.072370
1080.537550	0.073877
1080.700651	0.071895
1080.863735	0.072858
1081.026800	0.073960
1081.189846	0.071987
1081.352875	0.072991
1081.515885	0.072949
1081.678877	0.076470
1081.841851	0.075848
1082.004807	0.075296
1082.167744	0.076194
1082.330663	0.075284
1082.493564	0.074985
1082.656447	0.076532
1082.819312	0.076236
1082.982158	0.076592
1083.144986	0.074955
1083.307796	0.076943
1083.470587	0.073961
1083.633361	0.075938
1083.796116	0.075519
1083.958853	0.074859
1084.121571	0.072810
1084.284272	0.073361
1084.446954	0.072861
1084.609618	0.073310
1084.772264	0.073196
1084.934892	0.075087
1085.097501	0.074998
1085.260092	0.076368
1085.422665	0.075169
1085.585220	0.078876
1085.747756	0.077030
1085.910274	0.077097
1086.072774	0.076844
1086.235256	0.076797
1086.397720	0.076359
1086.560165	0.074439
1086.722592	0.073301
1086.885001	0.075812
1087.047392	0.072772
1087.209764	0.074333
1087.372119	0.075106
1087.534455	0.075529
1087.696772	0.074134
1087.859072	0.073392
1088.021353	0.075156
1088.183616	0.074652
1088.345861	0.073416
1088.508088	0.073923
1088.670296	0.074325
1088.832486	0.074562
1088.994658	0.074716
1089.156812	0.076098
1089.318948	0.078537
1089.481065	0.077013
1089.643164	0.077521
1089.805245	0.076664
1089.967308	0.075563
1090.129352	0.074721
1090.291378	0.075135
1090.453386	0.073914
1090.615376	0.074462
1090.777347	0.072775
1090.939301	0.075434
1091.101236	0.077391
1091.263153	0.079488
1091.425051	0.080743
1091.586932	0.081098
1091.748794	0.080693
1091.910638	0.081767
1092.072463	0.081481
1092.234271	0.077074
1092.396060	0.076875
1092.557831	0.074635
1092.719584	0.074108
1092.881319	0.073488
1093.043035	0.070867
1093.204733	0.070491
1093.366413	0.071426
1093.528075	0.070736
1093.689718	0.075920
1093.851343	0.075809
1094.012950	0.074737
1094.174539	0.074591
1094.336110	0.075468
1094.497662	0.075778
1094.659196	0.074411
1094.820712	0.074123
1094.982210	0.074237
1095.143689	0.072986
1095.305151	0.073088
1095.466594	0.073253
1095.628018	0.073400
1095.789425	0.074025
1095.950813	0.076974
1096.112183	0.076685
1096.273535	0.074419
1096.434869	0.073896
1096.596184	0.071233
1096.757482	0.070549
1096.918761	0.069095
1097.080021	0.068372
1097.241264	0.067479
1097.402488	0.066609
1097.563694	0.066337
1097.724882	0.069376
1097.886052	0.070824
1098.047203	0.074877
1098.208336	0.072750
1098.369451	0.074531
1098.530548	0.076147
1098.691627	0.078184
1098.852687	0.079749
1099.013729	0.082412
1099.174753	0.081578
1099.335758	0.079593
1099.496746	0.078741
1099.657715	0.080106
1099.818666	0.079508
1099.979599	0.076179
1100.140513	0.076666
1100.301409	0.074219
1100.462287	0.075240
1100.623147	0.073940
1100.783989	0.075329
1100.944812	0.072832
1101.105617	0.074690
1101.266404	0.076380
1101.427173	0.076460
1101.587923	0.074850
1101.748656	0.076050
1101.909370	0.076045
1102.070066	0.076495
1102.230743	0.079730
1102.391403	0.083969
1102.552044	0.082313
1102.712667	0.080030
1102.873271	0.081904
1103.033858	0.082610
1103.194426	0.081708
1103.354976	0.080208
1103.515508	0.079175
1103.676021	0.074984
1103.836517	0.073571
1103.996994	0.073035
1104.157453	0.076473
1104.317893	0.074068
1104.478316	0.073161
1104.638720	0.075220
1104.799106	0.074478
1104.959474	0.075163
1105.119823	0.076313
1105.280155	0.074598
1105.440468	0.076779
1105.600763	0.073821
1105.761039	0.076102
1105.921298	0.075696
1106.081538	0.074225
1106.241760	0.074595
1106.401964	0.075849
1106.562149	0.073836
1106.722316	0.075661
1106.882465	0.074430
1107.042596	0.075428
1107.202709	0.075506
1107.362803	0.079071
1107.522879	0.077968
1107.682937	0.078560
1107.842977	0.079220
1108.002999	0.078809
1108.163002	0.078839
1108.322987	0.079080
1108.482954	0.077957
1108.642902	0.076891
1108.802833	0.073435
1108.962745	0.075304
1109.122639	0.075125
1109.282515	0.073358
1109.442372	0.075764
1109.602211	0.075527
1109.762032	0.074745
1109.921835	0.076678
1110.081620	0.076663
1110.241386	0.077433
1110.401134	0.077256
1110.560864	0.077422
1110.720576	0.077917
1110.880269	0.077425
1111.039945	0.076402
1111.199602	0.077929
1111.359240	0.078510
1111.518861	0.078358
1111.678463	0.077682
1111.838047	0.079405
1111.997613	0.076153
1112.157161	0.077319
1112.316690	0.076123
1112.476202	0.078364
1112.635695	0.077301
1112.795169	0.076196
1112.954626	0.075705
1113.114064	0.076091
1113.273484	0.075304
1113.432886	0.077831
1113.592270	0.079135
1113.751635	0.078627
1113.910983	0.077025
1114.070312	0.074656
1114.229622	0.073161
1114.388915	0.076528
1114.548189	0.075108
1114.707445	0.073407
1114.866683	0.073569
1115.025903	0.071899
1115.185104	0.075690
1115.344287	0.074465
1115.503452	0.077667
1115.662599	0.077858
1115.821727	0.076171
1115.980838	0.078714
1116.139930	0.078770
1116.299004	0.077030
1116.458059	0.078424
1116.617097	0.076608
1116.776116	0.076066
1116.935117	0.077761
1117.094099	0.077901
1117.253064	0.079521
1117.412010	0.076075
1117.570938	0.075074
1117.729848	0.077553
1117.888740	0.075538
1118.047613	0.075743
1118.206468	0.078146
1118.365305	0.073433
1118.524124	0.076325
1118.682924	0.075177
1118.841707	0.077888
1119.000471	0.076730
1119.159216	0.074449
1119.317944	0.075175
1119.476653	0.076426
1119.635344	0.077014
1119.794017	0.078908
1119.952672	0.077804
1120.111308	0.077167
1120.269927	0.074771
1120.428527	0.077461
1120.587108	0.076704
1120.745672	0.077356
1120.904217	0.074228
1121.062744	0.073089
1121.221253	0.073628
1121.379744	0.070401
1121.538216	0.067192
1121.696671	0.066430
1121.855107	0.065279
1122.013524	0.068614
1122.171924	0.067770
1122.330305	0.069144
1122.488668	0.068120
1122.647013	0.068508
1122.805340	0.071545
1122.963648	0.073036
1123.121938	0.071209
1123.280210	0.071869
1123.438464	0.070590
1123.596700	0.069003
1123.754917	0.069252
1123.913116	0.070212
1124.071297	0.067710
1124.229459	0.068625
1124.387604	0.070313
1124.545730	0.073050
1124.703838	0.073995
1124.861928	0.074572
1125.019999	0.075319
1125.178052	0.073980
1125.336088	0.073103
1125.494104	0.080379
1125.652103	0.078838
1125.810083	0.077538
1125.968045	0.080632
1126.125989	0.080099
1126.283915	0.075432
1126.441823	0.075175
1126.599712	0.076820
1126.757583	0.077021
1126.915436	0.070200
1127.073270	0.069181
1127.231087	0.073487
1127.388885	0.072572
1127.546665	0.070266
1127.704426	0.074640
1127.862170	0.074252
1128.019895	0.071338
1128.177602	0.070648
1128.335291	0.070760
1128.492961	0.070518
1128.650614	0.062993
1128.808248	0.062722
1128.965864	0.064226
1129.123461	0.060519
1129.281041	0.058715
1129.438602	0.061360
1129.596145	0.061741
1129.753670	0.063557
1129.911176	0.062657
1130.068665	0.065081
1130.226135	0.062256
1130.383587	0.060065
1130.541020	0.064187
1130.698436	0.064763
1130.855833	0.061793
1131.013212	0.063905
1131.170573	0.060029
1131.327915	0.060778
1131.485239	0.062343
1131.642545	0.065956
1131.799833	0.066849
1131.957103	0.064628
1132.114354	0.066730
1132.271588	0.071350
1132.428803	0.068514
1132.585999	0.070520
1132.743178	0.072661
1132.900338	0.071817
1133.057480	0.068407
1133.214604	0.071261
1133.371710	0.072465
1133.528797	0.071719
1133.685866	0.069719
1133.842917	0.070198
1133.999950	0.073321
1134.156964	0.071472
1134.313960	0.073376
1134.470938	0.074249
1134.627898	0.074227
1134.784840	0.074005
1134.941763	0.077172
1135.098668	0.076155
1135.255555	0.080753
1135.412424	0.083016
1135.569274	0.081560
1135.726107	0.080259
1135.882921	0.080000
1136.039716	0.077077
1136.196494	0.077747
1136.353253	0.074048
1136.509995	0.075302
1136.666717	0.069308
1136.823422	0.067667
1136.980109	0.069570
1137.136777	0.065371
1137.293427	0.067772
1137.450059	0.071714
1137.606672	0.070692
1137.763267	0.073216
1137.919844	0.073198
1138.076403	0.078965
1138.232944	0.075656
1138.389466	0.075072
1138.545971	0.079239
1138.702457	0.077725
1138.858924	0.077392
1139.015374	0.080502
1139.171805	0.075128
1139.328218	0.073573
1139.484613	0.068602
1139.640990	0.071387
1139.797348	0.072581
1139.953688	0.075725
1140.110010	0.077378
1140.266314	0.076027
1140.422600	0.076693
1140.578867	0.080232
1140.735116	0.079605
1140.891347	0.084097
1141.047559	0.079731
1141.203754	0.076677
1141.359930	0.074036
1141.516088	0.072808
1141.672228	0.071763
1141.828349	0.070875
1141.984452	0.072725
1142.140537	0.072709
1142.296604	0.067205
1142.452653	0.070224
1142.608683	0.074501
1142.764695	0.076599
1142.920689	0.072888
1143.076665	0.074226
1143.232622	0.073940
1143.388562	0.068683
1143.544483	0.068706
1143.700385	0.072826
1143.856270	0.068318
1144.012136	0.069662
1144.167985	0.064528
1144.323814	0.063591
1144.479626	0.063903
1144.635420	0.061067
1144.791195	0.065320
1144.946952	0.065441
1145.102691	0.063918
1145.258411	0.068759
1145.414113	0.063715
1145.569798	0.068043
1145.725463	0.071115
1145.881111	0.069313
1146.036741	0.070302
1146.192352	0.071914
1146.347945	0.069987
1146.503519	0.066921
1146.659076	0.068285
1146.814614	0.069436
1146.970134	0.067341
1147.125636	0.071495
1147.281120	0.069171
1147.436585	0.067534
1147.592032	0.064389
1147.747461	0.067769
1147.902872	0.069573
1148.058265	0.066692
1148.213639	0.069536
1148.368995	0.070444
1148.524333	0.065151
1148.679653	0.062843
1148.834954	0.065155
1148.990237	0.064926
1149.145502	0.062949
1149.300749	0.062052
1149.455977	0.059836
1149.611188	0.054994
1149.766380	0.054095
1149.921553	0.057028
1150.076709	0.061985
1150.231846	0.059175
1150.386966	0.058278
1150.542066	0.060597
1150.697149	0.065247
1150.852214	0.063315
1151.007260	0.066617
1151.162288	0.068072
1151.317298	0.067618
1151.472289	0.065960
1151.627263	0.067655
1151.782218	0.072076
1151.937155	0.071341
1152.092073	0.067009
1152.246974	0.071716
1152.401856	0.068647
1152.556720	0.065982
1152.711566	0.069566
1152.866393	0.069096
1153.021203	0.067586
1153.175994	0.068359
1153.330767	0.068743
1153.485521	0.070134
1153.640258	0.067702
1153.794976	0.068350
1153.949676	0.065982
1154.104358	0.065456
1154.259021	0.064361
1154.413667	0.064431
1154.568294	0.059094
1154.722903	0.059216
1154.877493	0.057926
1155.032066	0.061520
1155.186620	0.060517
1155.341156	0.064514
1155.495674	0.060316
1155.650173	0.062581
1155.804654	0.066542
1155.959118	0.068173
1156.113562	0.066919
1156.267989	0.064217
1156.422397	0.063063
1156.576788	0.065203
1156.731160	0.061756
1156.885513	0.062739
1157.039849	0.063237
1157.194166	0.056502
1157.348465	0.054205
1157.502746	0.054229
1157.657009	0.057399
1157.811253	0.055298
1157.965479	0.053210
1158.119687	0.054853
1158.273877	0.052699
1158.428048	0.054848
1158.582201	0.058636
1158.736337	0.062059
1158.890453	0.065387
1159.044552	0.063945
1159.198632	0.064024
1159.352694	0.063188
1159.506738	0.064474
1159.660764	0.064315
1159.814771	0.059650
1159.968761	0.062019
1160.122732	0.057173
1160.276685	0.050928
1160.430619	0.055414
1160.584535	0.054899
1160.738434	0.058471
1160.892313	0.058179
1161.046175	0.058627
1161.200019	0.062991
1161.353844	0.057852
1161.507651	0.058161
1161.661440	0.061068
1161.815210	0.057056
1161.968962	0.053592
1162.122697	0.050840
1162.276412	0.053636
1162.430110	0.055055
1162.583789	0.052845
1162.737451	0.058415
1162.891094	0.064246
1163.044718	0.065298
1163.198325	0.065897
1163.351913	0.071448
1163.505483	0.076168
1163.659035	0.072642
1163.812569	0.070984
1163.966084	0.070018
1164.119581	0.069379
1164.273060	0.063716
1164.426521	0.061156
1164.579964	0.062879
1164.733388	0.063595
1164.886794	0.065200
1165.040182	0.065528
1165.193551	0.068790
1165.346903	0.068984
1165.500236	0.068670
1165.653551	0.072665
1165.806848	0.075163
1165.960126	0.076189
1166.113386	0.075787
1166.266628	0.069710
1166.419852	0.068294
1166.573058	0.067550
1166.726245	0.071058
1166.879414	0.072401
1167.032565	0.071215
1167.185698	0.069046
1167.338812	0.066411
1167.491909	0.064170
1167.644987	0.064169
1167.798046	0.066316
1167.951088	0.066651
1168.104111	0.063694
1168.257117	0.060851
1168.410103	0.058341
1168.563072	0.059669
1168.716023	0.057650
1168.868955	0.058199
1169.021869	0.057371
1169.174765	0.057802
1169.327642	0.056798
1169.480501	0.055798
1169.633343	0.053401
1169.786165	0.052761
1169.938970	0.049431
1170.091757	0.048885
1170.244525	0.049596
1170.397275	0.046238
1170.550007	0.042182
1170.702720	0.041953
1170.855415	0.039128
1171.008092	0.039502
1171.160751	0.041181
1171.313392	0.043131
1171.466014	0.028421
1171.618619	0.050340
1171.771205	0.050340
1171.923772	0.050340
