sample name	sample
index	66
start time	 02-11-2021  03:24:20 PM
880	0.457792
Peak Time (s)	91.535
Peak Height 	0.4578
calc peak height	90,93
Baseline Time (s)	9.034
Baseline Value 	-0.002363
subtract baseline	10,4
Abs	0.304394
Peak Time (s)	90.035
Peak Height 	0.3044
calc peak height	90,93
Baseline Time (s)	10.535
Baseline Value 	0.005388
subtract baseline	10,3
PK_550	0.154031
Peak Time (s)	90.537
Peak Height 	0.154
calc peak height	90,93
Baseline Time (s)	9.034
Baseline Value 	-1.9463E-4
subtract baseline	10,2
PK_880	0.299194
Peak Time (s)	90.537
Peak Height 	0.2992
calc peak height	90,93
Baseline Time (s)	9.535
Baseline Value 	9.5186E-4
subtract baseline	10,1


Time (s)	A880-A510	A880-A775	A880-A975	A880	I510	I775	I975	I880	
0.038000	-0.006715	-0.000033	0.006255	0.007462	4493.141433	19341.870256	3302.582484	10638.347201
0.537000	-0.003946	-0.000797	-0.010703	0.003275	4518.216470	19471.568454	3291.614179	10712.996462
1.035500	-0.001599	-0.000324	0.003305	0.003529	4525.837674	19479.922829	3303.439902	10708.441951
1.536000	0.002697	0.000307	-0.010692	0.001820	4547.920733	19569.230490	3292.857702	10739.115620
2.036000	-0.001474	-0.002430	-0.010347	-0.001472	4544.667137	19590.464779	3295.957902	10798.506152
2.536500	-0.001903	0.001072	0.001916	0.002904	4527.012212	19557.043085	3302.773247	10719.649786
3.037000	-0.001303	-0.001083	0.000138	-0.002653	4549.670879	19687.643816	3306.082456	10819.926686
3.537000	0.003112	0.001108	0.014289	0.000855	4553.035545	19636.961140	3315.559687	10756.474369
4.034500	0.001757	-0.000892	-0.005162	-0.001284	4555.951088	19642.287698	3300.261568	10795.102709
4.534500	0.001541	0.001270	-0.008278	0.000977	4546.762104	19638.491931	3295.633474	10754.281552
5.041000	0.000344	0.000422	0.003767	-0.000708	4548.570898	19670.693786	3307.567609	10784.692105
5.535500	0.000042	-0.000259	-0.010465	-0.000100	4545.200106	19621.146115	3294.684703	10773.698054
6.035500	-0.000206	-0.000209	0.008354	-0.000405	4545.411080	19634.755619	3311.368116	10779.209789
6.571500	0.000627	-0.000280	-0.009804	-0.000287	4548.056655	19627.504040	3295.408972	10777.067869
7.036500	0.001478	0.000946	-0.000653	0.000234	4549.280601	19654.625799	3302.861450	10767.676064
7.536500	0.006338	0.001625	-0.015393	0.001126	4564.050270	19646.391249	3289.470497	10751.590959
8.037000	-0.002036	-0.000301	-0.000943	-0.000875	4540.393355	19649.274925	3303.576046	10787.703867
8.537500	0.002052	0.000675	-0.007935	-0.000125	4552.739786	19657.954369	3296.870611	10774.140212
9.034000	-0.001129	0.000000	0.005171	0.000000	4540.510206	19627.233683	3308.182347	10771.892465
9.535000	0.000000	-0.000189	-0.002520	-0.000423	4546.241240	19636.245137	3301.807795	10779.538842
10.038000	0.000494	-0.000816	0.000248	0.005130	4527.639156	19400.465141	3299.393409	10679.836811
10.535000	-0.002798	0.000009	0.000000	0.000175	4533.727265	19620.851735	3303.482575	10768.727774
11.035500	0.000077	0.000799	0.000176	0.000478	4543.194320	19639.578175	3303.372200	10763.270365
11.536000	-0.001228	-0.000218	-0.005005	-0.000268	4541.134432	19629.151965	3299.518501	10776.739176
12.036500	0.001449	-0.000783	-0.002175	0.004227	4534.444577	19435.945377	3298.081892	10695.961831
12.536500	-0.003374	0.000287	-0.003409	-0.000572	4534.354950	19660.262998	3301.164586	10782.219658
13.037000	-0.000890	0.000088	0.009884	-0.001183	4545.757878	19676.118397	3313.431927	10793.276483
13.537000	0.001774	0.000015	-0.002209	0.000398	4549.767275	19612.532644	3301.363990	10764.704277
14.034500	-0.004467	-0.001200	-0.001754	0.003052	4517.132943	19464.747634	3299.458925	10716.990806
14.535000	0.000059	-0.001381	0.006041	0.001685	4538.677004	19509.885105	3307.461073	10741.527485
15.035000	0.001030	0.000039	0.001017	0.000917	4545.094717	19593.586823	3303.723826	10755.365446
15.535500	-0.000752	-0.000064	-0.014361	0.000161	4541.305781	19618.598898	3291.154297	10768.991883
16.036000	-0.001377	0.000247	-0.001121	0.004905	4521.629112	19449.305946	3298.405115	10683.843368
16.536500	0.002158	-0.000415	-0.005829	0.000680	4550.144360	19585.225453	3297.989936	10759.622998
17.037000	0.001236	-0.000996	-0.003228	-0.003890	4563.728522	19738.748828	3304.215416	10842.432710
17.537000	0.000642	-0.000786	0.001537	0.000533	4545.080883	19576.686250	3304.514144	10762.282788
18.034000	-0.002730	0.000890	0.011023	0.003424	4522.098937	19530.225870	3310.335342	10710.336282
18.534000	0.002818	-0.000085	0.011192	0.001709	4548.777426	19558.460789	3312.014029	10741.098265
19.035000	0.002110	0.000368	0.005307	0.001805	4545.803086	19572.131524	3306.708693	10739.376720
19.538000	0.002784	0.000802	0.000720	0.002075	4547.296210	19578.407234	3302.453105	10734.525136
20.035500	-0.002991	-0.000203	0.007008	0.002746	4523.617901	19514.378234	3307.379169	10722.484524
20.535500	0.001236	0.000133	-0.000612	0.001980	4541.929316	19556.470162	3301.377434	10736.233476
21.036000	0.002364	-0.000456	0.010973	0.001794	4546.783301	19541.044295	3311.743101	10739.568394
21.536500	-0.002860	-0.000116	0.000050	0.000738	4531.436443	19594.471577	3303.034707	10758.581577
22.036500	0.002281	0.001231	0.005284	0.004729	4535.657654	19493.431404	3304.121429	10686.994586
22.537000	-0.002365	-0.000491	0.005558	0.001512	4530.414725	19550.517214	3307.189009	10744.653736
23.037000	0.003284	0.000637	-0.005753	0.002811	4546.424002	19543.945548	3296.224320	10721.311651
23.537500	-0.000924	-0.000048	-0.004244	0.001506	4535.721934	19567.644107	3298.643285	10744.749573
24.035500	0.001531	0.000541	0.000355	0.002533	4540.979339	19550.920507	3301.737322	10726.299529
24.535500	0.001485	0.000579	0.007015	0.002410	4541.262697	19557.069855	3307.681357	10728.508439
25.036000	0.000801	-0.000690	-0.004363	0.001326	4542.737490	19549.978386	3298.695649	10747.986218
25.536000	-0.000080	0.000996	0.004713	0.002549	4534.989404	19567.710465	3305.531512	10726.011628
26.036000	0.004627	0.002076	0.005394	0.003176	4550.046136	19585.052985	3305.579074	10714.774166
26.536500	0.001071	0.000028	-0.000387	0.001612	4542.679682	19566.500258	3301.892849	10742.850132
27.037000	0.003266	0.000136	0.003968	-0.000757	4559.608154	19661.577521	3307.787669	10785.568622
27.539500	0.002316	0.000858	-0.000362	-0.000096	4553.612833	19663.918432	3303.403460	10773.623366
28.037500	-0.002842	-0.002868	-0.000865	0.003783	4520.383031	19373.764455	3299.595361	10703.898186
28.535000	0.002857	0.000565	-0.005150	0.001238	4550.670016	19601.427364	3298.094441	10749.580161
29.038000	0.001549	0.000804	-0.001665	0.000893	4547.101787	19623.811234	3301.407489	10755.795330
29.535000	-0.001385	-0.000637	0.000271	0.000361	4538.238850	19588.941660	3303.556800	10765.380283
30.035000	-0.003531	-0.000255	0.006379	0.004867	4513.945258	19431.688089	3304.959826	10684.527402
30.536000	0.001579	0.000158	-0.000046	0.003231	4538.585006	19509.656056	3300.782991	10713.789057
31.036000	-0.000857	-0.000001	-0.014978	0.003570	4528.402269	19490.664880	3287.767694	10707.716650
31.536500	0.002862	0.000003	0.013400	0.000897	4551.952709	19592.929342	3314.721806	10755.718022
32.036500	-0.001833	0.000010	-0.007128	0.005424	4518.085488	19420.586014	3292.822621	10674.585153
32.537000	0.004452	0.001079	-0.002621	0.001968	4553.877910	19593.109262	3299.646606	10736.443198
33.034500	0.000632	0.000136	-0.005179	0.000757	4544.215642	19603.406327	3298.483558	10758.246720
33.542000	0.005362	0.002802	0.017509	0.000944	4561.082452	19698.721721	3318.392109	10754.862226
34.035000	0.001322	0.000423	0.003293	0.004728	4532.143132	19462.732965	3302.384061	10687.014498
34.535500	-0.000539	-0.000621	0.003020	0.002432	4533.734479	19510.401484	3304.149522	10728.106562
35.036000	0.005705	0.000753	-0.002478	0.003498	4552.851449	19522.152344	3298.448769	10709.003859
35.536500	0.001120	-0.000936	0.007244	0.002236	4540.556897	19505.854961	3308.037941	10731.635293
36.036000	-0.002474	0.002757	-0.003733	0.005931	4513.917045	19505.775877	3295.283432	10665.555249
36.537000	-0.000591	-0.000741	0.009025	0.002099	4534.767610	19518.523973	3309.737215	10734.092487
37.037000	-0.001149	-0.000486	0.001647	0.002077	4532.801055	19529.097145	3303.260930	10734.497641
37.537000	0.000871	-0.000958	0.002413	0.002187	4539.822045	19506.912439	3303.833219	10732.516683
38.034500	-0.002198	0.001150	0.009136	0.005735	4515.632359	19452.094901	3306.620335	10669.053567
38.535500	-0.001046	0.000054	0.000732	0.002438	4531.852808	19535.916664	3302.147767	10728.006333
39.035500	-0.002014	0.000441	0.007492	0.002831	4526.872090	19535.689831	3307.731174	10720.948817
39.535500	-0.001879	0.000283	0.007349	0.003418	4525.221699	19507.268014	3307.086983	10710.434013
40.036000	-0.003379	-0.000385	-0.004962	0.003453	4519.627674	19480.477954	3296.351891	10709.802289
40.536500	0.002570	0.000318	-0.005795	0.003349	4541.799322	19511.234529	3295.728064	10711.671379
41.036500	0.004261	0.000290	0.002229	0.003491	4547.521562	19504.745132	3302.534096	10709.120119
41.537000	0.004199	0.000708	-0.007736	0.003579	4546.970114	19517.352602	3293.875381	10707.558246
42.034000	0.001081	0.000197	-0.009505	0.005315	4529.108020	19431.840745	3290.902683	10676.540394
42.535000	-0.002143	0.000540	-0.010239	0.003388	4524.367872	19518.224245	3291.911634	10710.971703
43.038000	0.001674	0.000557	-0.005150	0.003252	4538.858926	19524.075606	3296.363992	10713.417410
43.535500	0.001108	0.000504	-0.010657	0.002328	4540.173685	19557.325161	3292.455899	10729.978148
44.035500	0.000092	-0.000562	0.000358	0.005180	4525.986641	19408.178112	3299.445326	10678.948081
44.536000	0.003798	0.000405	-0.000064	0.001180	4554.379850	19597.510618	3302.550483	10750.624287
45.036000	0.000128	0.001115	0.008954	0.001618	4539.179587	19607.924249	3310.101751	10742.739134
45.536500	0.001528	-0.001080	0.005612	0.000853	4547.170910	19553.177243	3307.817948	10756.512061
46.036500	-0.001609	-0.000082	-0.016865	0.006074	4516.539053	19392.512429	3284.109114	10663.019785
46.536500	0.000886	0.000076	0.004576	0.000993	4544.278341	19592.052956	3306.779545	10753.979331
47.035000	-0.000546	-0.000309	0.000361	0.001709	4536.367307	19549.943834	3302.459870	10741.108913
47.534500	0.001781	0.000043	0.002785	0.003217	4539.375689	19505.757731	3303.258227	10714.027656
48.035000	-0.002284	-0.000426	-0.002823	0.002641	4526.583594	19509.890616	3298.890475	10724.371752
48.535500	0.003874	0.000373	-0.006467	0.001454	4553.642972	19585.776495	3296.776021	10745.690553
49.036000	0.000985	-0.000145	-0.010378	0.001203	4543.868004	19575.522698	3293.647797	10750.199008
49.539000	0.001388	-0.000747	0.003891	-0.002277	4558.274817	19686.088946	3309.064776	10813.098444
50.036500	0.000156	0.000664	-0.008174	0.003489	4532.407121	19519.097866	3293.578150	10709.159407
50.536000	0.003286	-0.001329	0.008580	-0.000004	4556.876953	19576.412999	3311.211987	10771.956628
51.036500	-0.029338	-0.016438	-0.014595	0.333293	3636.239336	10403.522181	3094.453600	6571.474145
51.537000	-0.015630	-0.012752	-0.011881	0.055203	4303.181993	17211.485518	3249.312287	9836.134190
52.034500	-0.009018	-0.010695	0.011308	-0.067100	4774.296574	21940.331929	3378.734617	12081.715743
52.538000	-0.015695	-0.013312	0.002055	-0.094618	4864.464133	23061.049288	3398.263226	12680.198471
53.035000	-0.018699	-0.011341	0.000799	-0.100285	4876.299829	23417.850270	3403.103410	12808.224361
53.535500	-0.000500	-0.009770	0.007328	-0.130542	5104.859079	24974.336177	3445.446478	13520.822012
54.036000	0.011124	-0.007297	0.011260	-0.073000	4887.649938	22351.294232	3384.902173	12206.857564
54.536000	0.017264	-0.008756	0.022449	-0.034553	4748.023629	20647.940992	3356.869532	11421.108217
55.036500	0.014422	-0.011887	0.025552	-0.031270	4722.705355	20388.466300	3356.689665	11357.176265
55.537000	0.024898	-0.009218	0.027766	-0.016528	4705.279389	19910.328454	3344.388654	11075.994047
56.037000	0.022181	-0.009051	0.015100	-0.014962	4687.955847	19855.804747	3330.838646	11046.688598
56.534500	0.024553	-0.007339	0.027004	-0.011821	4684.863224	19800.260476	3339.129296	10988.210412
57.035000	0.028432	-0.006046	0.033458	0.006756	4626.800684	19142.793814	3327.703967	10650.889499
57.535000	0.032417	-0.007451	0.029857	0.018816	4595.725337	18648.395847	3313.408792	10439.498068
58.035500	0.034770	-0.006462	0.053319	0.035382	4542.416285	18095.279398	3319.639918	10158.530987
58.535500	0.046168	-0.005093	0.038177	0.054601	4513.816153	17485.350114	3289.550059	9845.708672
59.036000	0.058518	-0.001880	0.059761	0.074756	4485.784515	16929.207532	3290.754593	9532.203675
59.536000	0.067008	0.001348	0.080909	0.095351	4443.297446	16381.209906	3291.222359	9226.533720
60.036500	0.081365	0.008324	0.105938	0.127502	4382.947888	15624.725138	3285.250679	8777.405672
60.537000	0.102900	0.014272	0.115683	0.156094	4359.690489	14980.735795	3269.912367	8404.981300
61.034000	0.120442	0.024206	0.124931	0.195807	4289.033389	14183.402870	3246.485425	7926.751689
61.534500	0.138798	0.035445	0.154980	0.218312	4276.206757	13895.717081	3252.134416	7674.532030
62.034500	0.155805	0.044391	0.157451	0.250831	4229.325399	13317.367785	3230.204865	7332.417440
62.535000	0.167820	0.051212	0.175869	0.265810	4220.556189	13124.429997	3232.638565	7183.242855
63.035500	0.177506	0.058757	0.182012	0.276391	4217.917729	13053.543868	3229.501855	7080.925402
63.535500	0.182047	0.065627	0.187797	0.287571	4198.531977	12953.757006	3225.731179	6975.493254
64.036000	0.192344	0.071869	0.189800	0.304888	4178.351440	12701.855630	3215.280234	6817.446146
64.536500	0.203814	0.078774	0.203962	0.311095	4193.449132	12717.511717	3220.662584	6762.308385
65.036500	0.212064	0.087527	0.219173	0.326415	4173.209799	12570.941640	3220.588806	6629.564408
65.537000	0.220266	0.093731	0.228713	0.336251	4168.579585	12490.804937	3220.386476	6546.770668
66.034500	0.219423	0.097654	0.225844	0.352268	4121.798576	12228.757376	3207.778095	6415.897437
66.540500	0.226644	0.102865	0.233023	0.353553	4138.062010	12313.024492	3211.653809	6405.603849
67.034500	0.232542	0.106488	0.249534	0.361583	4132.195547	12218.472726	3217.324593	6341.973484
67.535500	0.241092	0.110250	0.246953	0.368085	4137.828753	12160.191155	3211.255535	6291.305464
68.035500	0.244172	0.115141	0.242751	0.381020	4110.956138	11991.156218	3200.144924	6192.738798
68.536000	0.249981	0.118774	0.262266	0.381855	4124.442521	12049.586088	3212.277636	6186.475649
69.036000	0.252299	0.120672	0.251587	0.387083	4116.532524	11980.069725	3201.913398	6147.536878
69.536500	0.251219	0.123627	0.272409	0.391001	4103.069511	11960.070894	3212.939626	6118.658663
70.036500	0.257799	0.127461	0.261038	0.402572	4089.779972	11800.960016	3198.076982	6034.887664
70.537000	0.261321	0.129303	0.252935	0.399448	4107.511825	11902.761144	3194.953871	6057.286632
71.034500	0.265405	0.130948	0.273143	0.404079	4106.041380	11841.392978	3204.845523	6024.136758
71.537500	0.269312	0.136373	0.272904	0.409348	4102.389552	11844.583303	3201.307077	5986.852542
72.034500	0.266998	0.136593	0.278837	0.417303	4075.229034	11687.563632	3200.019832	5931.414996
72.535000	0.269690	0.135937	0.282410	0.412168	4095.873318	11778.160749	3205.608488	5967.089207
73.035500	0.274877	0.139675	0.277002	0.416522	4098.090968	11765.651113	3199.350853	5936.812152
73.536000	0.270461	0.140045	0.288107	0.416670	4085.985650	11770.145836	3206.383711	5935.790344
74.036000	0.275309	0.139786	0.290443	0.421323	4086.500091	11670.957110	3204.881964	5903.785549
74.536000	0.281339	0.142384	0.289339	0.421271	4102.666487	11724.310069	3204.201934	5904.135116
75.036500	0.283011	0.145470	0.279616	0.426410	4093.423598	11682.954523	3194.779186	5869.181425
75.537000	0.277931	0.143029	0.284677	0.423209	4088.445499	11698.249817	3199.978054	5890.907792
76.037500	0.287051	0.146451	0.296733	0.429937	4094.786086	11631.881958	3203.382765	5845.423356
76.537500	0.288838	0.149350	0.293682	0.431133	4096.361029	11666.007478	3200.665141	5837.414779
77.035500	0.286939	0.146715	0.308088	0.429390	4095.944911	11648.124390	3211.143507	5849.098546
77.535500	0.291353	0.148059	0.280756	0.432206	4100.204908	11618.690469	3191.892144	5830.247167
78.036000	0.288675	0.148934	0.300370	0.435600	4084.098445	11568.540341	3202.083126	5807.686817
78.536000	0.290051	0.149229	0.291609	0.433978	4092.022127	11606.671029	3197.550671	5818.444612
79.036500	0.292386	0.150220	0.299786	0.435466	4094.272534	11596.780790	3201.795587	5808.575249
79.537000	0.290065	0.149423	0.304463	0.436408	4085.630699	11562.218085	3204.194274	5802.343384
80.034500	0.283427	0.149785	0.297329	0.444570	4047.249077	11408.898819	3194.500064	5748.908097
80.534500	0.289115	0.151018	0.291536	0.438254	4078.280253	11557.241810	3194.826145	5790.167196
81.035000	0.294984	0.152437	0.302737	0.440939	4086.654640	11532.176121	3200.187528	5772.553755
81.535000	0.295066	0.150522	0.279483	0.440428	4088.223111	11504.494019	3186.101294	5775.901459
82.035500	0.286175	0.149957	0.314689	0.445042	4053.065342	11403.044089	3205.222160	5745.845590
82.535500	0.291361	0.152537	0.316888	0.443433	4070.618139	11485.005872	3207.698378	5756.293221
83.035500	0.295143	0.151854	0.306796	0.443979	4079.073556	11460.885545	3200.835851	5752.743196
83.536000	0.295455	0.151609	0.303094	0.443443	4081.299802	11466.586245	3198.825902	5756.227797
84.036500	0.299656	0.153858	0.293266	0.447675	4081.219167	11427.786046	3190.074232	5728.843205
84.536500	0.293657	0.152411	0.297036	0.446753	4067.954826	11417.539445	3192.962702	5734.785062
85.034500	0.296745	0.150777	0.312787	0.445872	4078.311974	11402.875851	3203.459625	5740.476709
85.537000	0.294814	0.152687	0.301410	0.447829	4068.167331	11401.961617	3195.012466	5727.851718
86.035000	0.295072	0.154226	0.298196	0.455158	4049.946631	11290.010788	3188.514854	5681.073002
86.535000	0.296800	0.150517	0.299093	0.447829	4073.337926	11359.827263	3193.570899	5727.851176
87.035000	0.292293	0.153098	0.313875	0.449779	4056.610497	11372.048157	3201.652385	5715.327438
87.536000	0.294311	0.153499	0.300538	0.451220	4058.095666	11351.917361	3192.366228	5706.110282
88.035500	0.292463	0.151661	0.308576	0.457407	4037.600644	11198.062710	3193.511994	5666.874224
88.536500	0.301432	0.154947	0.314873	0.454296	4068.558301	11320.460806	3199.411858	5686.529387
89.036500	0.293867	0.154744	0.305327	0.454418	4048.758357	11314.204230	3193.351286	5685.760346
89.537000	0.298220	0.151850	0.304196	0.452811	4064.078930	11289.434259	3193.645969	5695.963726
90.034500	0.289102	0.154029	0.304394	0.456908	4030.388987	11252.697050	3191.236833	5670.014612
90.537000	0.299194	0.154031	0.298900	0.456809	4056.280399	11254.627526	3187.938812	5670.641883
91.035000	0.294130	0.151655	0.298860	0.454369	4049.556403	11255.857070	3189.401191	5686.068914
91.534500	0.295192	0.153892	0.294013	0.457792	4043.539738	11233.200298	3184.396614	5664.450567
92.035500	0.294280	0.152242	0.297780	0.455710	4046.517684	11241.448068	3187.926039	5677.578686
92.536000	0.299102	0.151898	0.298647	0.457713	4053.721535	11196.739965	3187.237231	5664.947318
93.036000	0.297057	0.149074	0.310352	0.455709	4053.616246	11181.185684	3195.675971	5677.582688
93.536500	0.296937	0.153654	0.315965	0.459727	4043.057215	11191.850849	3196.675075	5652.303348
94.036500	0.302109	0.153670	0.299407	0.461322	4052.181128	11161.940593	3185.516319	5642.335650
94.537000	0.298868	0.152736	0.304105	0.460869	4045.062704	11152.846650	3188.635367	5645.163170
95.040500	0.299305	0.152031	0.319065	0.460793	4046.369409	11140.969227	3197.955040	5645.634894
95.535000	0.299787	0.152275	0.304510	0.461070	4046.891360	11140.349905	3188.760012	5643.907605
96.035000	0.297448	0.152172	0.302393	0.467276	4025.324867	11022.215359	3183.736122	5605.434301
