sample name	sample
index	1178
start time	 04-26-2021  11:31:37 AM


Wavelength (nm)	Absorbance
494.344910	-0.041314
494.563924	-0.041314
494.782919	-0.041314
495.001897	-0.138977
495.220856	0.046249
495.439797	-0.000819
495.658719	0.007030
495.877624	0.059032
496.096510	0.045187
496.315378	0.116834
496.534227	0.140074
496.753059	0.150935
496.971872	-0.027451
497.190667	0.082830
497.409444	0.092155
497.628203	0.090210
497.846943	0.090136
498.065665	0.093147
498.284369	0.092027
498.503055	0.091780
498.721723	0.090601
498.940372	0.091638
499.159003	0.092041
499.377616	0.091562
499.596210	0.091670
499.814787	0.091142
500.033345	0.089458
500.251885	0.089035
500.470406	0.089352
500.688910	0.091037
500.907395	0.092214
501.125862	0.092497
501.344311	0.093073
501.562742	0.093869
501.781154	0.094093
501.999548	0.094129
502.217924	0.094074
502.436282	0.093406
502.654621	0.092017
502.872942	0.091928
503.091245	0.091922
503.309530	0.091222
503.527797	0.091304
503.746045	0.090405
503.964275	0.090387
504.182487	0.091435
504.400681	0.090917
504.618856	0.091403
504.837013	0.090180
505.055152	0.090051
505.273273	0.090652
505.491376	0.089367
505.709460	0.090877
505.927526	0.090977
506.145574	0.089534
506.363604	0.090326
506.581615	0.091018
506.799608	0.091224
507.017583	0.090516
507.235540	0.091391
507.453478	0.091752
507.671399	0.090968
507.889301	0.091509
508.107185	0.092625
508.325050	0.093049
508.542898	0.092870
508.760727	0.093279
508.978538	0.093815
509.196330	0.093919
509.414105	0.094849
509.631861	0.095525
509.849599	0.096155
510.067319	0.096186
510.285021	0.096236
510.502704	0.096279
510.720369	0.096416
510.938016	0.096519
511.155645	0.096265
511.373255	0.096702
511.590848	0.096539
511.808422	0.095970
512.025977	0.095653
512.243515	0.095649
512.461034	0.095297
512.678536	0.094757
512.896018	0.094263
513.113483	0.093833
513.330930	0.092513
513.548358	0.092419
513.765768	0.093154
513.983160	0.093173
514.200533	0.093536
514.417889	0.093409
514.635226	0.094250
514.852545	0.094436
515.069845	0.094707
515.287128	0.095901
515.504392	0.095998
515.721638	0.095428
515.938866	0.096564
516.156075	0.096943
516.373267	0.097571
516.590440	0.097841
516.807594	0.098267
517.024731	0.098268
517.241850	0.098875
517.458950	0.098830
517.676032	0.099315
517.893095	0.098394
518.110141	0.097563
518.327168	0.098147
518.544177	0.098505
518.761168	0.098766
518.978141	0.098710
519.195095	0.098317
519.412031	0.098778
519.628949	0.099064
519.845849	0.099662
520.062731	0.101036
520.279594	0.100209
520.496439	0.100091
520.713266	0.100381
520.930074	0.100858
521.146865	0.100317
521.363637	0.100787
521.580391	0.100498
521.797127	0.100655
522.013844	0.100374
522.230543	0.101140
522.447224	0.101193
522.663887	0.101388
522.880532	0.101592
523.097158	0.102658
523.313766	0.102479
523.530356	0.102798
523.746928	0.102437
523.963481	0.102261
524.180017	0.102923
524.396534	0.102784
524.613032	0.102756
524.829513	0.103183
525.045975	0.102542
525.262420	0.103669
525.478845	0.103812
525.695253	0.104594
525.911643	0.105053
526.128014	0.104579
526.344367	0.105465
526.560702	0.105660
526.777018	0.105366
526.993316	0.106286
527.209597	0.105561
527.425858	0.106314
527.642102	0.106521
527.858328	0.106420
528.074535	0.107358
528.290724	0.107711
528.506894	0.108491
528.723047	0.109291
528.939181	0.109944
529.155297	0.111124
529.371395	0.111101
529.587475	0.111445
529.803536	0.112123
530.019579	0.111739
530.235604	0.111721
530.451611	0.112268
530.667600	0.112514
530.883570	0.112557
531.099522	0.111943
531.315456	0.112152
531.531372	0.112455
531.747269	0.112712
531.963148	0.112496
532.179009	0.112426
532.394852	0.112206
532.610676	0.112433
532.826482	0.112484
533.042271	0.112904
533.258040	0.113154
533.473792	0.113380
533.689525	0.113194
533.905240	0.114225
534.120937	0.114660
534.336616	0.114746
534.552277	0.114407
534.767919	0.114838
534.983543	0.115318
535.199149	0.115262
535.414736	0.115925
535.630306	0.116466
535.845857	0.115906
536.061390	0.117032
536.276904	0.117557
536.492401	0.118139
536.707879	0.118538
536.923339	0.118659
537.138781	0.119489
537.354204	0.119657
537.569610	0.119859
537.784997	0.121069
538.000366	0.120498
538.215716	0.120783
538.431049	0.120952
538.646363	0.121047
538.861659	0.121684
539.076937	0.121969
539.292196	0.121883
539.507438	0.122160
539.722661	0.122394
539.937866	0.122646
540.153052	0.122573
540.368221	0.122932
540.583371	0.123094
540.798503	0.122664
541.013617	0.122602
541.228712	0.122561
541.443789	0.122528
541.658848	0.122860
541.873889	0.122918
542.088912	0.123305
542.303916	0.123234
542.518902	0.122874
542.733870	0.123034
542.948820	0.123599
543.163752	0.123909
543.378665	0.124617
543.593560	0.124275
543.808437	0.124847
544.023295	0.125354
544.238136	0.125789
544.452958	0.126313
544.667762	0.127140
544.882548	0.127031
545.097315	0.127297
545.312064	0.126986
545.526795	0.127511
545.741508	0.127330
545.956203	0.126240
546.170879	0.126819
546.385537	0.126944
546.600177	0.126691
546.814799	0.127054
547.029402	0.127320
547.243988	0.127638
547.458555	0.127519
547.673103	0.127680
547.887634	0.128969
548.102146	0.128846
548.316640	0.129671
548.531116	0.130129
548.745574	0.130391
548.960013	0.130430
549.174435	0.130935
549.388838	0.131436
549.603222	0.131965
549.817589	0.131993
550.031937	0.132343
550.246267	0.132083
550.460579	0.132294
550.674873	0.132463
550.889148	0.133327
551.103405	0.133499
551.317644	0.133862
551.531865	0.133978
551.746068	0.134573
551.960252	0.134461
552.174418	0.135172
552.388566	0.135482
552.602696	0.135165
552.816807	0.134794
553.030900	0.134920
553.244975	0.134609
553.459032	0.134834
553.673070	0.134886
553.887091	0.135469
554.101093	0.135362
554.315077	0.135513
554.529042	0.135809
554.742990	0.136103
554.956919	0.136136
555.170830	0.136561
555.384722	0.136866
555.598597	0.136952
555.812453	0.137287
556.026291	0.137752
556.240111	0.138420
556.453913	0.138928
556.667696	0.139182
556.881461	0.139571
557.095208	0.140048
557.308937	0.140205
557.522647	0.139971
557.736339	0.139702
557.950013	0.139463
558.163669	0.139018
558.377307	0.138904
558.590926	0.138971
558.804527	0.139410
559.018110	0.139257
559.231675	0.139425
559.445221	0.140114
559.658749	0.140544
559.872259	0.140432
560.085751	0.140610
560.299225	0.141055
560.512680	0.141515
560.726117	0.141222
560.939536	0.141490
561.152937	0.141467
561.366319	0.141780
561.579683	0.141970
561.793029	0.142762
562.006357	0.143019
562.219667	0.143383
562.432958	0.143585
562.646231	0.143715
562.859486	0.143950
563.072723	0.144499
563.285941	0.144417
563.499141	0.144828
563.712323	0.144746
563.925487	0.144811
564.138632	0.144977
564.351760	0.145273
564.564869	0.145325
564.777960	0.145622
564.991032	0.145775
565.204087	0.146284
565.417123	0.146107
565.630141	0.146429
565.843140	0.146586
566.056122	0.147045
566.269085	0.146988
566.482030	0.147242
566.694957	0.147323
566.907866	0.147275
567.120756	0.146984
567.333628	0.147533
567.546482	0.147699
567.759318	0.148504
567.972135	0.148446
568.184935	0.148369
568.397716	0.148994
568.610478	0.149089
568.823223	0.149059
569.035949	0.149063
569.248657	0.148616
569.461347	0.148666
569.674019	0.148356
569.886672	0.148141
570.099308	0.148332
570.311925	0.148195
570.524523	0.148185
570.737104	0.149257
570.949666	0.149809
571.162210	0.149924
571.374736	0.149855
571.587244	0.150444
571.799733	0.150736
572.012205	0.151172
572.224658	0.151348
572.437092	0.151298
572.649509	0.150937
572.861907	0.151305
573.074287	0.151704
573.286649	0.151759
573.498993	0.151523
573.711318	0.151717
573.923625	0.151967
574.135914	0.152409
574.348185	0.153043
574.560438	0.153096
574.772672	0.152987
574.984888	0.153806
575.197086	0.154193
575.409266	0.154189
575.621427	0.154226
575.833570	0.154324
576.045695	0.154362
576.257802	0.154391
576.469890	0.154641
576.681961	0.155160
576.894013	0.154969
577.106046	0.155177
577.318062	0.155311
577.530059	0.155558
577.742039	0.155460
577.954000	0.155808
578.165942	0.156083
578.377867	0.156301
578.589773	0.155985
578.801661	0.156107
579.013531	0.156324
579.225382	0.156849
579.437216	0.157300
579.649031	0.157764
579.860828	0.157773
580.072606	0.157892
580.284367	0.158184
580.496109	0.158402
580.707833	0.158856
580.919539	0.159178
581.131227	0.159007
581.342896	0.159073
581.554547	0.158994
581.766180	0.158953
581.977795	0.159399
582.189391	0.159455
582.400969	0.159653
582.612529	0.159473
582.824071	0.159826
583.035595	0.160450
583.247100	0.160529
583.458587	0.160752
583.670056	0.160907
583.881506	0.160826
584.092939	0.161024
584.304353	0.161194
584.515749	0.161296
584.727127	0.161038
584.938486	0.160945
585.149828	0.161227
585.361151	0.161654
585.572456	0.162015
585.783742	0.162096
585.995011	0.161952
586.206261	0.162464
586.417493	0.162807
586.628706	0.163312
586.839902	0.163472
587.051079	0.163616
587.262238	0.163363
587.473379	0.163790
587.684502	0.164416
587.895606	0.165028
588.106692	0.165199
588.317760	0.165396
588.528810	0.165337
588.739841	0.165325
588.950855	0.165295
589.161850	0.165948
589.372827	0.165987
589.583785	0.166303
589.794726	0.166499
590.005648	0.166618
590.216552	0.166422
590.427437	0.166959
590.638305	0.167557
590.849154	0.167836
591.059985	0.167706
591.270798	0.167856
591.481592	0.167835
591.692369	0.167875
591.903127	0.168203
592.113867	0.169260
592.324588	0.169520
592.535292	0.169745
592.745977	0.169964
592.956644	0.170439
593.167293	0.170539
593.377923	0.170560
593.588536	0.170589
593.799130	0.170562
594.009706	0.170411
594.220263	0.170518
594.430803	0.170327
594.641324	0.170726
594.851827	0.170705
595.062312	0.171192
595.272778	0.171577
595.483227	0.172068
595.693657	0.172160
595.904069	0.172279
596.114462	0.172129
596.324838	0.172704
596.535195	0.172644
596.745534	0.172960
596.955855	0.172852
597.166157	0.172647
597.376441	0.172706
597.586707	0.173139
597.796955	0.173102
598.007185	0.173597
598.217396	0.173377
598.427589	0.173698
598.637764	0.173695
598.847921	0.173891
599.058060	0.173974
599.268180	0.173929
599.478282	0.173720
599.688366	0.173987
599.898431	0.173601
600.108479	0.173752
600.318508	0.173920
600.528519	0.174195
600.738511	0.174280
600.948486	0.174575
601.158442	0.174569
601.368380	0.174738
601.578300	0.174445
601.788202	0.175053
601.998085	0.175366
602.207950	0.175631
602.417797	0.175455
602.627626	0.175914
602.837436	0.175924
603.047228	0.176193
603.257002	0.176613
603.466758	0.176878
603.676496	0.176842
603.886215	0.177105
604.095916	0.177411
604.305599	0.177849
604.515264	0.177808
604.724910	0.177979
604.934538	0.178036
605.144148	0.178050
605.353740	0.178393
605.563314	0.178440
605.772869	0.178347
605.982406	0.177981
606.191925	0.178131
606.401425	0.178091
606.610908	0.178810
606.820372	0.179435
607.029818	0.179675
607.239246	0.179952
607.448655	0.180180
607.658047	0.180457
607.867420	0.180779
608.076775	0.181303
608.286111	0.181683
608.495430	0.181557
608.704730	0.181586
608.914012	0.181650
609.123275	0.181675
609.332521	0.182078
609.541748	0.182207
609.750957	0.182300
609.960148	0.182061
610.169321	0.182035
610.378475	0.182300
610.587611	0.182359
610.796729	0.182452
611.005829	0.182741
611.214910	0.182536
611.423974	0.182651
611.633019	0.182718
611.842045	0.182933
612.051054	0.183297
612.260044	0.183282
612.469017	0.183145
612.677970	0.183525
612.886906	0.183522
613.095824	0.183745
613.304723	0.183917
613.513604	0.184315
613.722467	0.184412
613.931311	0.184440
614.140138	0.184514
614.348946	0.185092
614.557736	0.184805
614.766507	0.185210
614.975261	0.185630
615.183996	0.185735
615.392713	0.185881
615.601412	0.186283
615.810092	0.186277
616.018754	0.186699
616.227399	0.186730
616.436024	0.187009
616.644632	0.187093
616.853222	0.187080
617.061793	0.187561
617.270346	0.187561
617.478880	0.187842
617.687397	0.188061
617.895895	0.187936
618.104375	0.188017
618.312837	0.188108
618.521281	0.188210
618.729706	0.188455
618.938113	0.188421
619.146502	0.188667
619.354873	0.188529
619.563226	0.188607
619.771560	0.188784
619.979876	0.188866
620.188174	0.189248
620.396453	0.189429
620.604715	0.189415
620.812958	0.189531
621.021183	0.189737
621.229390	0.189994
621.437578	0.190331
621.645748	0.190656
621.853900	0.191207
622.062034	0.191293
622.270150	0.191269
622.478247	0.191735
622.686326	0.191617
622.894387	0.191664
623.102430	0.191514
623.310454	0.191698
623.518461	0.191771
623.726449	0.191806
623.934418	0.191825
624.142370	0.192312
624.350303	0.192068
624.558218	0.192430
624.766115	0.192686
624.973994	0.193155
625.181855	0.193468
625.389697	0.193585
625.597521	0.193607
625.805327	0.193796
626.013114	0.193730
626.220883	0.194077
626.428634	0.194171
626.636367	0.194404
626.844082	0.194378
627.051778	0.194489
627.259457	0.194717
627.467117	0.194741
627.674758	0.194994
627.882382	0.195019
628.089987	0.195108
628.297574	0.195284
628.505143	0.195257
628.712694	0.195596
628.920226	0.195642
629.127740	0.195722
629.335236	0.195703
629.542714	0.195683
629.750174	0.195610
629.957615	0.195586
630.165038	0.195512
630.372443	0.195650
630.579829	0.195782
630.787198	0.196001
630.994548	0.196181
631.201880	0.196439
631.409194	0.196752
631.616489	0.197154
631.823766	0.197523
632.031025	0.197893
632.238266	0.197918
632.445489	0.197983
632.652693	0.197873
632.859879	0.198093
633.067047	0.198406
633.274197	0.198352
633.481329	0.198617
633.688442	0.198931
633.895537	0.199006
634.102614	0.199168
634.309672	0.199268
634.516713	0.199457
634.723735	0.199258
634.930739	0.199109
635.137724	0.199288
635.344692	0.199220
635.551641	0.199200
635.758572	0.199516
635.965485	0.199664
636.172379	0.199808
636.379256	0.199949
636.586114	0.200254
636.792954	0.200532
636.999775	0.200914
637.206579	0.201270
637.413364	0.201463
637.620131	0.201478
637.826880	0.201729
638.033610	0.202003
638.240323	0.202378
638.447017	0.202592
638.653692	0.203202
638.860350	0.203219
639.066990	0.203448
639.273611	0.203420
639.480214	0.203654
639.686798	0.204136
639.893365	0.204304
640.099913	0.204390
640.306443	0.204709
640.512955	0.204339
640.719449	0.204578
640.925924	0.204552
641.132381	0.205155
641.338820	0.205468
641.545241	0.205366
641.751644	0.205312
641.958028	0.205720
642.164394	0.205846
642.370742	0.206471
642.577071	0.206793
642.783383	0.207011
642.989676	0.206833
643.195951	0.206940
643.402207	0.207147
643.608446	0.207705
643.814666	0.207696
644.020868	0.207918
644.227052	0.208241
644.433218	0.208412
644.639365	0.209037
644.845494	0.209505
645.051605	0.209822
645.257698	0.210188
645.463772	0.210266
645.669828	0.210510
645.875866	0.210731
646.081886	0.210719
646.287888	0.210983
646.493871	0.210926
646.699836	0.211100
646.905783	0.211130
647.111712	0.211124
647.317622	0.211351
647.523514	0.211439
647.729388	0.211780
647.935244	0.211783
648.141082	0.212057
648.346901	0.212115
648.552702	0.212022
648.758485	0.212289
648.964250	0.212662
649.169996	0.212387
649.375724	0.212623
649.581434	0.212543
649.787126	0.212841
649.992800	0.212915
650.198455	0.213006
650.404092	0.213093
650.609711	0.213101
650.815311	0.213047
651.020894	0.213639
651.226458	0.213810
651.432004	0.213991
651.637532	0.214333
651.843041	0.214310
652.048532	0.214621
652.254006	0.215212
652.459460	0.215641
652.664897	0.216027
652.870315	0.216130
653.075716	0.216341
653.281097	0.216588
653.486461	0.216625
653.691807	0.217113
653.897134	0.217435
654.102443	0.217261
654.307734	0.217467
654.513006	0.217589
654.718261	0.217925
654.923497	0.218153
655.128715	0.218428
655.333915	0.218636
655.539096	0.218628
655.744259	0.218905
655.949404	0.219266
656.154531	0.219338
656.359640	0.219402
656.564730	0.219529
656.769802	0.219698
656.974856	0.219801
657.179892	0.220146
657.384909	0.220441
657.589908	0.220562
657.794889	0.220709
657.999852	0.220880
658.204797	0.221436
658.409723	0.221682
658.614631	0.222166
658.819521	0.222398
659.024393	0.222442
659.229246	0.222780
659.434081	0.222759
659.638898	0.223238
659.843697	0.223508
660.048478	0.223616
660.253240	0.223921
660.457984	0.223981
660.662710	0.224183
660.867417	0.224416
661.072107	0.224432
661.276778	0.224854
661.481431	0.224830
661.686066	0.225180
661.890682	0.225053
662.095281	0.225197
662.299861	0.225486
662.504422	0.225751
662.708966	0.225825
662.913491	0.226147
663.117999	0.226255
663.322488	0.226671
663.526958	0.226867
663.731411	0.227271
663.935845	0.227545
664.140261	0.227600
664.344659	0.228003
664.549038	0.228431
664.753400	0.228476
664.957743	0.228868
665.162068	0.229143
665.366375	0.229384
665.570663	0.229730
665.774933	0.229833
665.979185	0.230091
666.183419	0.230192
666.387635	0.230418
666.591832	0.230912
666.796011	0.231077
667.000172	0.231185
667.204315	0.231073
667.408439	0.231171
667.612545	0.231430
667.816634	0.231758
668.020703	0.231695
668.224755	0.231892
668.428788	0.231892
668.632803	0.232104
668.836800	0.232431
669.040779	0.232800
669.244739	0.233071
669.448681	0.233301
669.652605	0.233349
669.856511	0.233866
670.060399	0.233871
670.264268	0.233989
670.468119	0.234175
670.671952	0.234300
670.875767	0.234710
671.079563	0.234962
671.283341	0.235432
671.487101	0.235603
671.690843	0.235754
671.894567	0.236578
672.098272	0.237067
672.301959	0.237326
672.505628	0.237503
672.709278	0.237566
672.912911	0.237721
673.116525	0.237549
673.320121	0.237894
673.523699	0.238353
673.727258	0.238289
673.930799	0.238534
674.134322	0.238711
674.337827	0.239114
674.541314	0.239433
674.744782	0.239810
674.948232	0.240278
675.151664	0.240371
675.355078	0.240446
675.558474	0.240667
675.761851	0.240864
675.965210	0.241002
676.168551	0.240902
676.371873	0.241203
676.575178	0.241252
676.778464	0.241510
676.981732	0.241921
677.184981	0.242012
677.388213	0.242441
677.591426	0.242513
677.794621	0.242999
677.997798	0.243344
678.200956	0.243618
678.404097	0.244058
678.607219	0.244153
678.810323	0.244619
679.013408	0.244840
679.216476	0.244927
679.419525	0.245367
679.622556	0.245568
679.825569	0.245926
680.028563	0.246060
680.231540	0.246031
680.434498	0.246247
680.637438	0.246426
680.840359	0.246710
681.043263	0.246653
681.246148	0.246634
681.449015	0.246762
681.651864	0.246892
681.854694	0.247062
682.057506	0.247334
682.260301	0.247410
682.463076	0.247395
682.665834	0.247445
682.868573	0.247841
683.071295	0.248186
683.273998	0.248333
683.476682	0.248611
683.679349	0.248822
683.881997	0.249190
684.084627	0.249360
684.287239	0.249696
684.489833	0.249951
684.692408	0.250033
684.894965	0.250142
685.097504	0.250474
685.300025	0.250590
685.502527	0.250652
685.705012	0.250639
685.907478	0.250976
686.109925	0.250985
686.312355	0.251404
686.514766	0.251535
686.717159	0.251787
686.919534	0.251952
687.121891	0.252038
687.324230	0.252327
687.526550	0.252651
687.728852	0.252848
687.931136	0.252917
688.133401	0.252956
688.335649	0.253108
688.537878	0.253205
688.740089	0.253254
688.942281	0.253719
689.144456	0.253911
689.346612	0.254181
689.548750	0.254267
689.750870	0.254559
689.952971	0.254583
690.155055	0.254904
690.357120	0.255123
690.559167	0.255421
690.761195	0.255320
690.963206	0.255343
691.165198	0.255295
691.367172	0.255402
691.569128	0.255522
691.771065	0.255911
691.972984	0.256139
692.174885	0.256409
692.376768	0.256618
692.578633	0.256984
692.780479	0.257566
692.982308	0.257643
693.184118	0.257759
693.385909	0.258023
693.587683	0.258083
693.789438	0.258261
693.991175	0.258414
694.192894	0.258546
694.394595	0.258591
694.596277	0.258325
694.797941	0.258981
694.999587	0.259300
695.201215	0.259415
695.402824	0.259578
695.604416	0.259671
695.805989	0.259734
696.007543	0.259851
696.209080	0.259971
696.410598	0.260188
696.612099	0.260005
696.813580	0.260107
697.015044	0.260244
697.216490	0.260269
697.417917	0.260651
697.619326	0.260902
697.820717	0.261068
698.022089	0.261327
698.223444	0.261554
698.424780	0.261637
698.626098	0.261800
698.827397	0.261859
699.028679	0.262161
699.229942	0.262128
699.431187	0.262007
699.632414	0.261905
699.833622	0.261792
700.034813	0.262030
700.235985	0.262252
700.437139	0.262131
700.638274	0.262384
700.839392	0.262593
701.040491	0.262543
701.241572	0.262777
701.442635	0.263090
701.643679	0.263386
701.844706	0.263244
702.045714	0.263038
702.246704	0.263349
702.447675	0.263392
702.648629	0.263212
702.849564	0.263307
703.050481	0.263382
703.251380	0.263415
703.452260	0.263446
703.653122	0.263707
703.853966	0.263950
704.054792	0.264021
704.255600	0.263915
704.456389	0.264119
704.657160	0.264102
704.857913	0.264234
705.058648	0.264279
705.259365	0.264206
705.460063	0.264061
705.660743	0.264086
705.861405	0.264322
706.062048	0.264454
706.262674	0.264491
706.463281	0.264724
706.663870	0.264646
706.864441	0.264456
707.064993	0.264472
707.265527	0.264613
707.466043	0.264752
707.666541	0.264643
707.867021	0.264988
708.067482	0.265098
708.267925	0.265087
708.468350	0.265446
708.668757	0.265701
708.869145	0.266082
709.069516	0.266354
709.269868	0.266568
709.470201	0.266705
709.670517	0.266529
709.870814	0.266414
710.071093	0.266232
710.271354	0.266126
710.471597	0.266059
710.671821	0.266069
710.872028	0.265723
711.072216	0.265802
711.272385	0.265792
711.472537	0.265678
711.672670	0.265699
711.872785	0.265849
712.072882	0.265765
712.272961	0.265801
712.473021	0.265434
712.673063	0.265465
712.873087	0.265234
713.073093	0.265226
713.273081	0.265138
713.473050	0.265310
713.673001	0.265260
713.872934	0.265328
714.072849	0.265444
714.272745	0.265666
714.472623	0.265686
714.672483	0.265697
714.872325	0.265617
715.072148	0.265689
715.271954	0.265214
715.471741	0.265129
715.671509	0.264945
715.871260	0.264782
716.070992	0.264797
716.270707	0.264874
716.470403	0.264874
716.670080	0.264701
716.869740	0.264671
717.069381	0.264839
717.269004	0.264820
717.468609	0.264815
717.668195	0.264942
717.867764	0.264822
718.067314	0.264682
718.266846	0.264575
718.466360	0.264663
718.665855	0.264716
718.865332	0.264825
719.064791	0.264746
719.264232	0.264595
719.463655	0.264459
719.663059	0.264445
719.862445	0.264045
720.061813	0.263613
720.261163	0.263427
720.460494	0.263241
720.659807	0.263054
720.859102	0.263007
721.058379	0.263006
721.257638	0.262696
721.456878	0.262589
721.656100	0.262710
721.855304	0.262872
722.054490	0.262809
722.253657	0.262784
722.452806	0.262646
722.651937	0.262631
722.851050	0.262406
723.050145	0.262429
723.249221	0.262222
723.448279	0.262388
723.647319	0.262368
723.846340	0.262382
724.045344	0.262288
724.244329	0.262387
724.443296	0.262243
724.642245	0.262336
724.841175	0.262591
725.040088	0.262765
725.238982	0.262630
725.437857	0.262602
725.636715	0.262422
725.835554	0.262566
726.034376	0.262514
726.233179	0.262494
726.431963	0.262434
726.630730	0.262176
726.829478	0.261739
727.028208	0.261674
727.226920	0.261638
727.425614	0.261787
727.624289	0.261387
727.822946	0.261063
728.021585	0.260899
728.220206	0.260680
728.418808	0.260370
728.617392	0.260418
728.815958	0.260408
729.014506	0.260149
729.213036	0.259542
729.411547	0.259167
729.610040	0.259251
729.808515	0.259056
730.006972	0.258875
730.205410	0.258765
730.403831	0.258641
730.602233	0.258449
730.800616	0.258211
730.998982	0.258065
731.197329	0.258085
731.395658	0.257787
731.593969	0.257487
731.792262	0.257291
731.990536	0.257091
732.188793	0.256878
732.387031	0.256501
732.585250	0.256409
732.783452	0.256610
732.981635	0.256599
733.179800	0.256240
733.377947	0.256273
733.576076	0.256002
733.774186	0.256125
733.972278	0.255931
734.170352	0.255881
734.368408	0.255695
734.566446	0.255411
734.764465	0.255254
734.962466	0.255279
735.160449	0.255456
735.358413	0.255278
735.556360	0.254744
735.754288	0.254740
735.952198	0.254402
736.150090	0.254267
736.347963	0.253942
736.545818	0.253620
736.743655	0.253470
736.941474	0.253008
737.139275	0.253144
737.337057	0.253119
737.534821	0.252892
737.732567	0.253026
737.930295	0.252740
738.128005	0.252894
738.325696	0.252869
738.523369	0.252491
738.721024	0.252306
738.918660	0.252068
739.116279	0.252028
739.313879	0.251917
739.511461	0.251888
739.709024	0.251798
739.906570	0.251376
740.104097	0.251396
740.301606	0.251356
740.499097	0.251216
740.696569	0.251349
740.894024	0.251184
741.091460	0.250930
741.288878	0.250593
741.486277	0.250476
741.683659	0.250580
741.881022	0.250125
742.078367	0.250370
742.275694	0.250486
742.473002	0.250232
742.670293	0.250334
742.867565	0.249984
743.064819	0.249495
743.262054	0.249501
743.459272	0.249283
743.656471	0.249206
743.853652	0.248848
744.050815	0.248599
744.247959	0.248294
744.445085	0.247819
744.642194	0.248065
744.839283	0.248385
745.036355	0.248007
745.233408	0.247882
745.430444	0.248006
745.627461	0.247793
745.824459	0.247337
746.021440	0.247209
746.218402	0.247171
746.415346	0.246714
746.612272	0.246177
746.809180	0.246276
747.006069	0.245744
747.202940	0.245314
747.399793	0.245186
747.596628	0.244996
747.793444	0.244873
747.990243	0.244277
748.187023	0.243924
748.383784	0.243878
748.580528	0.243587
748.777253	0.243599
748.973960	0.243280
749.170649	0.242795
749.367320	0.242582
749.563973	0.242223
749.760607	0.242240
749.957223	0.242216
750.153821	0.241969
750.350400	0.241767
750.546962	0.241540
750.743505	0.241184
750.940030	0.241027
751.136536	0.241064
751.333025	0.240991
751.529495	0.240723
751.725947	0.240570
751.922381	0.240508
752.118796	0.240484
752.315194	0.240504
752.511573	0.240535
752.707934	0.240577
752.904276	0.240181
753.100601	0.239987
753.296907	0.240047
753.493195	0.239906
753.689465	0.239457
753.885716	0.238841
754.081949	0.238555
754.278164	0.238510
754.474361	0.238564
754.670540	0.238627
754.866700	0.238487
755.062843	0.238246
755.258967	0.238217
755.455072	0.238336
755.651160	0.238499
755.847229	0.238515
756.043280	0.238254
756.239313	0.237809
756.435328	0.237627
756.631324	0.237628
756.827302	0.237444
757.023262	0.237482
757.219204	0.237497
757.415127	0.237518
757.611033	0.237629
757.806920	0.237619
758.002788	0.237680
758.198639	0.237443
758.394471	0.237104
758.590286	0.237147
758.786081	0.236652
758.981859	0.236297
759.177619	0.235909
759.373360	0.235685
759.569083	0.235465
759.764788	0.235335
759.960474	0.235378
760.156143	0.235187
760.351793	0.234857
760.547425	0.234735
760.743038	0.234535
760.938634	0.234354
761.134211	0.234114
761.329770	0.234140
761.525311	0.233915
761.720833	0.233538
761.916338	0.233456
762.111824	0.233219
762.307292	0.233297
762.502741	0.233254
762.698173	0.233137
762.893586	0.232888
763.088981	0.232768
763.284358	0.232581
763.479716	0.232720
763.675057	0.232499
763.870379	0.232608
764.065683	0.232280
764.260968	0.232191
764.456236	0.232195
764.651485	0.231967
764.846716	0.231556
765.041929	0.231409
765.237123	0.231297
765.432299	0.231212
765.627457	0.231048
765.822597	0.231207
766.017719	0.231064
766.212822	0.231019
766.407907	0.230941
766.602974	0.230949
766.798023	0.230989
766.993054	0.230819
767.188066	0.230979
767.383060	0.231231
767.578036	0.231133
767.772993	0.231180
767.967933	0.231115
768.162854	0.231108
768.357757	0.231154
768.552642	0.231007
768.747508	0.231168
768.942356	0.230899
769.137186	0.230664
769.331998	0.230618
769.526792	0.230626
769.721567	0.230584
769.916324	0.230729
770.111063	0.230669
770.305784	0.230896
770.500486	0.230985
770.695171	0.231226
770.889837	0.231186
771.084484	0.231276
771.279114	0.231321
771.473725	0.231451
771.668318	0.231397
771.862893	0.231375
772.057450	0.231426
772.251988	0.231220
772.446509	0.231128
772.641011	0.231194
772.835494	0.231050
773.029960	0.230920
773.224407	0.230772
773.418836	0.230797
773.613247	0.230938
773.807640	0.230970
774.002014	0.231104
774.196370	0.231208
774.390708	0.231160
774.585028	0.231148
774.779330	0.231211
774.973613	0.231157
775.167878	0.231229
775.362125	0.231251
775.556354	0.231047
775.750564	0.231023
775.944756	0.231047
776.138930	0.231155
776.333086	0.231366
776.527223	0.231422
776.721343	0.231636
776.915444	0.231483
777.109526	0.231507
777.303591	0.231649
777.497637	0.231610
777.691666	0.231612
777.885676	0.231395
778.079667	0.231309
778.273641	0.231313
778.467596	0.231330
778.661533	0.231410
778.855452	0.231619
779.049352	0.231337
779.243235	0.231258
779.437099	0.231302
779.630945	0.231476
779.824773	0.231451
780.018582	0.231347
780.212373	0.231423
780.406146	0.231483
780.599901	0.231325
780.793638	0.231565
780.987356	0.231885
781.181056	0.232125
781.374738	0.232239
781.568402	0.232280
781.762047	0.232446
781.955674	0.232562
782.149283	0.232780
782.342874	0.233030
782.536447	0.233146
782.730001	0.232956
782.923537	0.232754
783.117055	0.232747
783.310555	0.232672
783.504036	0.232912
783.697499	0.232720
783.890944	0.232799
784.084371	0.232932
784.277780	0.233102
784.471170	0.233389
784.664542	0.233367
784.857896	0.233695
785.051231	0.234081
785.244549	0.234035
785.437848	0.234359
785.631129	0.234343
785.824392	0.234347
786.017636	0.234461
786.210863	0.234631
786.404071	0.235084
786.597260	0.235175
786.790432	0.235350
786.983585	0.235784
787.176721	0.235864
787.369838	0.235897
787.562936	0.236071
787.756017	0.236261
787.949079	0.236130
788.142123	0.236437
788.335149	0.236523
788.528156	0.236917
788.721146	0.236713
788.914117	0.236856
789.107070	0.237310
789.300005	0.237216
789.492921	0.237250
789.685819	0.237480
789.878699	0.237324
790.071561	0.237507
790.264405	0.237286
790.457230	0.237581
790.650037	0.238001
790.842826	0.237937
791.035597	0.238117
791.228349	0.238150
791.421084	0.238211
791.613800	0.238368
791.806497	0.238250
791.999177	0.238311
792.191838	0.238464
792.384481	0.238553
792.577106	0.238745
792.769713	0.239004
792.962301	0.239160
793.154871	0.239349
793.347423	0.239381
793.539957	0.239613
793.732473	0.239832
793.924970	0.239824
794.117449	0.239983
794.309910	0.240105
794.502353	0.240313
794.694777	0.240661
794.887183	0.240956
795.079571	0.241320
795.271941	0.241869
795.464293	0.242126
795.656626	0.242416
795.848941	0.242541
796.041238	0.243026
796.233516	0.243316
796.425777	0.243631
796.618019	0.244042
796.810243	0.244373
797.002449	0.244356
797.194636	0.244730
797.386805	0.245003
797.578956	0.245069
797.771089	0.245168
797.963204	0.245616
798.155300	0.246031
798.347378	0.246161
798.539438	0.246483
798.731480	0.246677
798.923503	0.246931
799.115509	0.247553
799.307496	0.247999
799.499465	0.248167
799.691415	0.248232
799.883348	0.247968
800.075262	0.248286
800.267158	0.248117
800.459035	0.248204
800.650895	0.248201
800.842736	0.247966
801.034559	0.247991
801.226364	0.248295
801.418150	0.248311
801.609919	0.248746
801.801669	0.248644
801.993401	0.249080
802.185114	0.249589
802.376810	0.249913
802.568487	0.249911
802.760146	0.250139
802.951787	0.250183
803.143409	0.250535
803.335014	0.250590
803.526600	0.250877
803.718168	0.251229
803.909717	0.251301
804.101249	0.251435
804.292762	0.251934
804.484257	0.252336
804.675734	0.253031
804.867192	0.253190
805.058632	0.253485
805.250054	0.253978
805.441458	0.254082
805.632844	0.254621
805.824211	0.254942
806.015561	0.255508
806.206891	0.255731
806.398204	0.255572
806.589499	0.255946
806.780775	0.256653
806.972033	0.257100
807.163273	0.257462
807.354495	0.257606
807.545698	0.257864
807.736883	0.257992
807.928050	0.258624
808.119199	0.258967
808.310329	0.259417
808.501441	0.259457
808.692535	0.259733
808.883611	0.260159
809.074669	0.260318
809.265708	0.260599
809.456729	0.261097
809.647732	0.261146
809.838717	0.261481
810.029683	0.261938
810.220632	0.262149
810.411562	0.262149
810.602474	0.262537
810.793367	0.263078
810.984242	0.263631
811.175100	0.263771
811.365938	0.264017
811.556759	0.264432
811.747562	0.264517
811.938346	0.264866
812.129112	0.265356
812.319860	0.265432
812.510589	0.265787
812.701300	0.266079
812.891994	0.266351
813.082668	0.266818
813.273325	0.267190
813.463964	0.267597
813.654584	0.268052
813.845186	0.268409
814.035769	0.268816
814.226335	0.269241
814.416882	0.269828
814.607411	0.270293
814.797922	0.270406
814.988415	0.270994
815.178889	0.271157
815.369345	0.271544
815.559783	0.271985
815.750203	0.272445
815.940605	0.272676
816.130988	0.273011
816.321353	0.273341
816.511700	0.274072
816.702028	0.274229
816.892339	0.274728
817.082631	0.275065
817.272905	0.275228
817.463161	0.275383
817.653398	0.275676
817.843617	0.275858
818.033819	0.276190
818.224001	0.276724
818.414166	0.277133
818.604312	0.277660
818.794440	0.278163
818.984550	0.278622
819.174642	0.279183
819.364716	0.279734
819.554771	0.280375
819.744808	0.281008
819.934827	0.281201
820.124827	0.281570
820.314810	0.281868
820.504774	0.282256
820.694720	0.282867
820.884647	0.283054
821.074557	0.283641
821.264448	0.283784
821.454321	0.284162
821.644176	0.284477
821.834012	0.284833
822.023831	0.285218
822.213631	0.285770
822.403413	0.286014
822.593176	0.286760
822.782922	0.286982
822.972649	0.287249
823.162358	0.287550
823.352049	0.287764
823.541721	0.288160
823.731376	0.288337
823.921012	0.288301
824.110629	0.288497
824.300229	0.288644
824.489811	0.288759
824.679374	0.289196
824.868919	0.289273
825.058445	0.289680
825.247954	0.289943
825.437444	0.290362
825.626916	0.290683
825.816370	0.290943
826.005806	0.291302
826.195223	0.291816
826.384622	0.292132
826.574003	0.292653
826.763366	0.293378
826.952711	0.293853
827.142037	0.294629
827.331345	0.294974
827.520635	0.295659
827.709906	0.296024
827.899160	0.296578
828.088395	0.297102
828.277612	0.297866
828.466810	0.297969
828.655991	0.298656
828.845153	0.298773
829.034297	0.299253
829.223423	0.299657
829.412531	0.300156
829.601620	0.300518
829.790691	0.300756
829.979744	0.300841
830.168779	0.301149
830.357795	0.301392
830.546793	0.301631
830.735773	0.302195
830.924735	0.302584
831.113679	0.302775
831.302604	0.303113
831.491511	0.303481
831.680400	0.304087
831.869271	0.304587
832.058123	0.304821
832.246957	0.305545
832.435773	0.306038
832.624571	0.306601
832.813351	0.307148
833.002112	0.307756
833.190855	0.308742
833.379580	0.309274
833.568287	0.309948
833.756975	0.310380
833.945645	0.310755
834.134297	0.311530
834.322931	0.312302
834.511547	0.313087
834.700144	0.313614
834.888723	0.313827
835.077284	0.313950
835.265826	0.314459
835.454351	0.315138
835.642857	0.315578
835.831345	0.316113
836.019815	0.316177
836.208266	0.316329
836.396699	0.316707
836.585114	0.317141
836.773511	0.317438
836.961890	0.317794
837.150250	0.318415
837.338592	0.318821
837.526916	0.319015
837.715222	0.319367
837.903510	0.320139
838.091779	0.320627
838.280030	0.321122
838.468263	0.321812
838.656477	0.321891
838.844674	0.322358
839.032852	0.323214
839.221012	0.323461
839.409153	0.324073
839.597277	0.324290
839.785382	0.324830
839.973469	0.325363
840.161538	0.325769
840.349589	0.326315
840.537621	0.326611
840.725635	0.326841
840.913631	0.327432
841.101609	0.327687
841.289568	0.328165
841.477509	0.328196
841.665432	0.328787
841.853337	0.329576
842.041224	0.329996
842.229092	0.330155
842.416942	0.330501
842.604774	0.330852
842.792588	0.331241
842.980383	0.331714
843.168160	0.332298
843.355919	0.332685
843.543660	0.333156
843.731382	0.333948
843.919087	0.334932
844.106773	0.335463
844.294441	0.335993
844.482090	0.336727
844.669722	0.337452
844.857335	0.337967
845.044930	0.338239
845.232507	0.338696
845.420065	0.339234
845.607605	0.339490
845.795127	0.340217
845.982631	0.340681
846.170117	0.341379
846.357584	0.341617
846.545033	0.341955
846.732464	0.342456
846.919877	0.342683
847.107272	0.343257
847.294648	0.343917
847.482006	0.343901
847.669346	0.344578
847.856667	0.344926
848.043971	0.345427
848.231256	0.346155
848.418523	0.346442
848.605771	0.347004
848.793002	0.347096
848.980214	0.347391
849.167408	0.347963
849.354584	0.348045
849.541742	0.348614
849.728881	0.348965
849.916002	0.349701
850.103105	0.350504
850.290190	0.350912
850.477256	0.351544
850.664304	0.351806
850.851334	0.352261
851.038346	0.352778
851.225340	0.352897
851.412315	0.353514
851.599272	0.353416
851.786211	0.353697
851.973132	0.353873
852.160034	0.354464
852.346918	0.354987
852.533784	0.355342
852.720632	0.355708
852.907462	0.356001
853.094273	0.356627
853.281066	0.357249
853.467841	0.357492
853.654598	0.358546
853.841336	0.358815
854.028056	0.359127
854.214758	0.359819
854.401442	0.360574
854.588107	0.361221
854.774755	0.361592
854.961384	0.361533
855.147995	0.362019
855.334587	0.362249
855.521162	0.363012
855.707718	0.363582
855.894256	0.364147
856.080775	0.364522
856.267277	0.365013
856.453760	0.365504
856.640225	0.366239
856.826672	0.366746
857.013101	0.366909
857.199511	0.367067
857.385903	0.367422
857.572277	0.367955
857.758633	0.368560
857.944970	0.369056
858.131290	0.369387
858.317591	0.370086
858.503873	0.370849
858.690138	0.371430
858.876384	0.371742
859.062612	0.371974
859.248822	0.371964
859.435014	0.372319
859.621188	0.372613
859.807343	0.373007
859.993480	0.372835
860.179599	0.372791
860.365699	0.373053
860.551781	0.373679
860.737846	0.374778
860.923891	0.375575
861.109919	0.375602
861.295929	0.376450
861.481920	0.376898
861.667893	0.377872
861.853848	0.378335
862.039784	0.379024
862.225702	0.379265
862.411603	0.379269
862.597484	0.378706
862.783348	0.379094
862.969193	0.378740
863.155021	0.378803
863.340830	0.379030
863.526620	0.379496
863.712393	0.379308
863.898147	0.379736
864.083883	0.379821
864.269601	0.380712
864.455301	0.381365
864.640982	0.382039
864.826645	0.382189
865.012290	0.382413
865.197917	0.382825
865.383526	0.383891
865.569116	0.384115
865.754688	0.384566
865.940242	0.384788
866.125777	0.385053
866.311295	0.385282
866.496794	0.385700
866.682275	0.386155
866.867737	0.385821
867.053182	0.385781
867.238608	0.386190
867.424016	0.386704
867.609406	0.387505
867.794778	0.387629
867.980131	0.387715
868.165466	0.388410
868.350783	0.388310
868.536082	0.389101
868.721362	0.389083
868.906625	0.389493
869.091869	0.389988
869.277094	0.390312
869.462302	0.390763
869.647491	0.391281
869.832662	0.391609
870.017815	0.392308
870.202950	0.392739
870.388066	0.392808
870.573165	0.393002
870.758245	0.392731
870.943306	0.392535
871.128350	0.392390
871.313375	0.392714
871.498382	0.392775
871.683371	0.393249
871.868342	0.393292
872.053294	0.394015
872.238229	0.393917
872.423144	0.394137
872.608042	0.394717
872.792922	0.395237
872.977783	0.395003
873.162626	0.395283
873.347451	0.395120
873.532258	0.395507
873.717046	0.396012
873.901816	0.396757
874.086568	0.397221
874.271302	0.397266
874.456017	0.397459
874.640715	0.398161
874.825394	0.398164
875.010055	0.398702
875.194697	0.398852
875.379322	0.398713
875.563928	0.398584
875.748516	0.398878
875.933085	0.399147
876.117637	0.399675
876.302170	0.400019
876.486685	0.400286
876.671182	0.400512
876.855661	0.400737
877.040121	0.401216
877.224563	0.401590
877.408987	0.401926
877.593393	0.402228
877.777780	0.402519
877.962150	0.402266
878.146501	0.402622
878.330833	0.402425
878.515148	0.402959
878.699444	0.402885
878.883722	0.402534
879.067982	0.402448
879.252224	0.402898
879.436447	0.402719
879.620653	0.403081
879.804840	0.403244
879.989008	0.403768
880.173159	0.403706
880.357291	0.403650
880.541405	0.404256
880.725501	0.404325
880.909579	0.404512
881.093638	0.404724
881.277680	0.404705
881.461703	0.404606
881.645707	0.404706
881.829694	0.404941
882.013662	0.405043
882.197612	0.405378
882.381544	0.405848
882.565458	0.405251
882.749353	0.405403
882.933230	0.406053
883.117089	0.406540
883.300930	0.406497
883.484753	0.406111
883.668557	0.406663
883.852343	0.407062
884.036111	0.407159
884.219861	0.407303
884.403592	0.407282
884.587305	0.407115
884.771000	0.406915
884.954677	0.406923
885.138335	0.407327
885.321976	0.407541
885.505598	0.406750
885.689201	0.406802
885.872787	0.406855
886.056354	0.407128
886.239904	0.407266
886.423434	0.407213
886.606947	0.407354
886.790442	0.407147
886.973918	0.407140
887.157376	0.407619
887.340816	0.407022
887.524237	0.407122
887.707641	0.407088
887.891026	0.406771
888.074393	0.406858
888.257741	0.406810
888.441072	0.406717
888.624384	0.407104
888.807678	0.406879
888.990954	0.407173
889.174211	0.407072
889.357451	0.407005
889.540672	0.406977
889.723875	0.406633
889.907059	0.406654
890.090226	0.406671
890.273374	0.405486
890.456504	0.405376
890.639616	0.405281
890.822709	0.405651
891.005785	0.406040
891.188842	0.406082
891.371881	0.406817
891.554901	0.406655
891.737904	0.406509
891.920888	0.407104
892.103854	0.407049
892.286802	0.407385
892.469731	0.407098
892.652643	0.406592
892.835536	0.406596
893.018410	0.406534
893.201267	0.406497
893.384106	0.406113
893.566926	0.405238
893.749728	0.405074
893.932511	0.404869
894.115277	0.404879
894.298024	0.404553
894.480753	0.404585
894.663464	0.404178
894.846157	0.403951
895.028831	0.403914
895.211487	0.404054
895.394125	0.403690
895.576745	0.403776
895.759346	0.403280
895.941930	0.402993
896.124495	0.402411
896.307041	0.401281
896.489570	0.400874
896.672080	0.401386
896.854573	0.401433
897.037046	0.401151
897.219502	0.400499
897.401940	0.400454
897.584359	0.400209
897.766760	0.400236
897.949143	0.400749
898.131507	0.400503
898.313854	0.400302
898.496182	0.400118
898.678492	0.399986
898.860783	0.399613
899.043057	0.399215
899.225312	0.398929
899.407549	0.398575
899.589768	0.398439
899.771968	0.398536
899.954151	0.397834
900.136315	0.397300
900.318461	0.397173
900.500588	0.396869
900.682698	0.396432
900.864789	0.396189
901.046862	0.396279
901.228917	0.395568
901.410953	0.395271
901.592971	0.395076
901.774972	0.394919
901.956953	0.394626
902.138917	0.394828
902.320862	0.394855
902.502790	0.394592
902.684699	0.393722
902.866589	0.393360
903.048462	0.392790
903.230316	0.392756
903.412152	0.392310
903.593970	0.391874
903.775770	0.391188
903.957551	0.390139
904.139314	0.389578
904.321059	0.389457
904.502786	0.389235
904.684494	0.389025
904.866185	0.387787
905.047857	0.387763
905.229510	0.387565
905.411146	0.386166
905.592763	0.386207
905.774363	0.385694
905.955943	0.385489
906.137506	0.384626
906.319051	0.383947
906.500577	0.383638
906.682085	0.382935
906.863575	0.382878
907.045046	0.383148
907.226500	0.382512
907.407935	0.382546
907.589352	0.382082
907.770750	0.381952
907.952131	0.382168
908.133493	0.381983
908.314837	0.381452
908.496163	0.380188
908.677470	0.379960
908.858760	0.379520
909.040031	0.379358
909.221284	0.378741
909.402518	0.378237
909.583735	0.376691
909.764933	0.376527
909.946113	0.376417
910.127275	0.376321
910.308418	0.375741
910.489544	0.375676
910.670651	0.375142
910.851740	0.373852
911.032810	0.373702
911.213863	0.373813
911.394897	0.372817
911.575913	0.372044
911.756911	0.371830
911.937890	0.370922
912.118851	0.370215
912.299794	0.369437
912.480719	0.369664
912.661626	0.369459
912.842514	0.368814
913.023384	0.368350
913.204236	0.367946
913.385070	0.367340
913.565886	0.367185
913.746683	0.366437
913.927462	0.365510
914.108223	0.364496
914.288965	0.362730
914.469690	0.361419
914.650396	0.360981
914.831084	0.359883
915.011754	0.358917
915.192405	0.357232
915.373038	0.356206
915.553653	0.355255
915.734250	0.354680
915.914829	0.354334
916.095389	0.354514
916.275931	0.353476
916.456455	0.353123
916.636961	0.352837
916.817448	0.353080
916.997917	0.352404
917.178368	0.351478
917.358801	0.350693
917.539216	0.350257
917.719612	0.349258
917.899990	0.348913
918.080350	0.347829
918.260692	0.346480
918.441015	0.346057
918.621320	0.345798
918.801607	0.345924
918.981876	0.344820
919.162127	0.343896
919.342359	0.343039
919.522573	0.341819
919.702769	0.341408
919.882947	0.340710
920.063106	0.339528
920.243247	0.338444
920.423370	0.337019
920.603475	0.336381
920.783562	0.335182
920.963630	0.334192
921.143680	0.333653
921.323712	0.332922
921.503725	0.332361
921.683721	0.331398
921.863698	0.330450
922.043657	0.329938
922.223598	0.328955
922.403520	0.328954
922.583424	0.328750
922.763311	0.328323
922.943178	0.327326
923.123028	0.325959
923.302859	0.325777
923.482673	0.325823
923.662467	0.325050
923.842244	0.324706
924.022003	0.323711
924.201743	0.323240
924.381465	0.321671
924.561169	0.321371
924.740854	0.321076
924.920522	0.320489
925.100171	0.319315
925.279802	0.318278
925.459414	0.318359
925.639009	0.317178
925.818585	0.315932
925.998143	0.314739
926.177683	0.313711
926.357205	0.313132
926.536708	0.311662
926.716193	0.310461
926.895660	0.310505
927.075109	0.308293
927.254539	0.307468
927.433951	0.306148
927.613345	0.305837
927.792721	0.304425
927.972079	0.302353
928.151418	0.300693
928.330739	0.299070
928.510042	0.296835
928.689327	0.296042
928.868593	0.295038
929.047841	0.294188
929.227071	0.293305
929.406283	0.292343
929.585476	0.292641
929.764652	0.291742
929.943809	0.291447
930.122948	0.290223
930.302068	0.289405
930.481171	0.288785
930.660255	0.287477
930.839321	0.285515
931.018369	0.284009
931.197398	0.281842
931.376409	0.282065
931.555402	0.280918
931.734377	0.281132
931.913334	0.279506
932.092272	0.278422
932.271192	0.276895
932.450094	0.276799
932.628978	0.275747
932.807844	0.274700
932.986691	0.273075
933.165520	0.272064
933.344331	0.270463
933.523123	0.269451
933.701898	0.268405
933.880654	0.268526
934.059392	0.267617
934.238111	0.267533
934.416813	0.267226
934.595496	0.265987
934.774161	0.265132
934.952808	0.263894
935.131437	0.263983
935.310047	0.262622
935.488639	0.261523
935.667213	0.260517
935.845769	0.259301
936.024306	0.258029
936.202825	0.256979
936.381326	0.256146
936.559809	0.256091
936.738274	0.253485
936.916720	0.253197
937.095148	0.252265
937.273558	0.250719
937.451950	0.249198
937.630323	0.248178
937.808678	0.246088
937.987015	0.244418
938.165334	0.241780
938.343635	0.241707
938.521917	0.240028
938.700181	0.238522
938.878427	0.237257
939.056655	0.235302
939.234864	0.234490
939.413055	0.233894
939.591228	0.233602
939.769383	0.232898
939.947519	0.232025
940.125638	0.231355
940.303738	0.229547
940.481820	0.228842
940.659883	0.228457
940.837929	0.226082
941.015956	0.225452
941.193965	0.223908
941.371955	0.223357
941.549928	0.222638
941.727882	0.220727
941.905818	0.221060
942.083736	0.219997
942.261636	0.218207
942.439517	0.218228
942.617380	0.217581
942.795225	0.216758
942.973052	0.216173
943.150860	0.214152
943.328651	0.213395
943.506423	0.212305
943.684176	0.212544
943.861912	0.212133
944.039629	0.211059
944.217328	0.209716
944.395009	0.207583
944.572672	0.206296
944.750317	0.204491
944.927943	0.201860
945.105551	0.199787
945.283141	0.196848
945.460712	0.195794
945.638265	0.193447
945.815801	0.190739
945.993317	0.189384
946.170816	0.187802
946.348297	0.186840
946.525759	0.186569
946.703203	0.184335
946.880629	0.182426
947.058036	0.180799
947.235425	0.179993
947.412797	0.181103
947.590149	0.180560
947.767484	0.178646
947.944800	0.178140
948.122099	0.177242
948.299379	0.177674
948.476640	0.177756
948.653884	0.177374
948.831109	0.177560
949.008316	0.175380
949.185505	0.173983
949.362676	0.173498
949.539828	0.172165
949.716962	0.170863
949.894078	0.167463
950.071176	0.166626
950.248256	0.165538
950.425317	0.161523
950.602360	0.159580
950.779385	0.158867
950.956391	0.156183
951.133380	0.156049
951.310350	0.154517
951.487302	0.155406
951.664235	0.153093
951.841151	0.151966
952.018048	0.153371
952.194927	0.153323
952.371788	0.151632
952.548631	0.152814
952.725455	0.151316
952.902261	0.151863
953.079049	0.150016
953.255819	0.147607
953.432570	0.146078
953.609303	0.142633
953.786018	0.142301
953.962715	0.142070
954.139394	0.139778
954.316054	0.136834
954.492696	0.134441
954.669320	0.133265
954.845926	0.133928
955.022513	0.131119
955.199083	0.133153
955.375634	0.131729
955.552166	0.130537
955.728681	0.131035
955.905177	0.131045
956.081655	0.128754
956.258115	0.131323
956.434557	0.130272
956.610980	0.132386
956.787385	0.127708
956.963772	0.124800
957.140141	0.125841
957.316492	0.124106
957.492824	0.124446
957.669138	0.124583
957.845434	0.120624
958.021712	0.120178
958.197971	0.117974
958.374212	0.118252
958.550435	0.118322
958.726640	0.116100
958.902826	0.113882
959.078995	0.111952
959.255145	0.110287
959.431277	0.111293
959.607390	0.108253
959.783486	0.108388
959.959563	0.108678
960.135622	0.107363
960.311662	0.104922
960.487685	0.104438
960.663689	0.104510
960.839675	0.106779
961.015643	0.100644
961.191593	0.101942
961.367524	0.102374
961.543437	0.102460
961.719332	0.102880
961.895209	0.101502
962.071067	0.101779
962.246907	0.103338
962.422730	0.104123
962.598533	0.109099
962.774319	0.110407
962.950086	0.111593
963.125835	0.110092
963.301566	0.109717
963.477279	0.111111
963.652973	0.112466
963.828650	0.110492
964.004308	0.108650
964.179947	0.107988
964.355569	0.109887
964.531172	0.107146
964.706757	0.110307
964.882324	0.109768
965.057873	0.109931
965.233403	0.108733
965.408916	0.107411
965.584410	0.107404
965.759885	0.106749
965.935343	0.103289
966.110782	0.102595
966.286203	0.097729
966.461606	0.097924
966.636991	0.098999
966.812357	0.097634
966.987705	0.096049
967.163035	0.094208
967.338347	0.093505
967.513641	0.094149
967.688916	0.094353
967.864173	0.096931
968.039412	0.096373
968.214632	0.094113
968.389835	0.093402
968.565019	0.095359
968.740185	0.095100
968.915333	0.093855
969.090462	0.091290
969.265573	0.089757
969.440667	0.087181
969.615741	0.088181
969.790798	0.088520
969.965836	0.089751
970.140856	0.090072
970.315858	0.088802
970.490842	0.087799
970.665808	0.088391
970.840755	0.088198
971.015684	0.089817
971.190595	0.088962
971.365487	0.088116
971.540362	0.087080
971.715218	0.084789
971.890056	0.085899
972.064875	0.088044
972.239677	0.088158
972.414460	0.089331
972.589225	0.088137
972.763972	0.089017
972.938700	0.089878
973.113411	0.090933
973.288103	0.091638
973.462777	0.091512
973.637432	0.091766
973.812070	0.092282
973.986689	0.091546
974.161290	0.092093
974.335873	0.091263
974.510437	0.089575
974.684984	0.087068
974.859512	0.088206
975.034022	0.089452
975.208513	0.088918
975.382987	0.088449
975.557442	0.088446
975.731879	0.089173
975.906298	0.089659
976.080698	0.090938
976.255080	0.092542
976.429445	0.090427
976.603790	0.089304
976.778118	0.087939
976.952427	0.087641
977.126719	0.088220
977.300992	0.090364
977.475246	0.090411
977.649483	0.092247
977.823701	0.093883
977.997901	0.095249
978.172083	0.094251
978.346247	0.096883
978.520392	0.096731
978.694519	0.094330
978.868628	0.092387
979.042719	0.092972
979.216791	0.089704
979.390845	0.088692
979.564882	0.087804
979.738899	0.087335
979.912899	0.084146
980.086880	0.082204
980.260843	0.083704
980.434788	0.083381
980.608715	0.084100
980.782623	0.085892
980.956514	0.086768
981.130386	0.088478
981.304240	0.092067
981.478075	0.093577
981.651892	0.095133
981.825692	0.096412
981.999472	0.097066
982.173235	0.095266
982.346980	0.094648
982.520706	0.093351
982.694414	0.092479
982.868104	0.090181
983.041775	0.089430
983.215428	0.090448
983.389064	0.087691
983.562680	0.087637
983.736279	0.088593
983.909860	0.089530
984.083422	0.089167
984.256966	0.089658
984.430491	0.089080
984.603999	0.090208
984.777488	0.091494
984.950959	0.093605
985.124412	0.093891
985.297847	0.092349
985.471263	0.091051
985.644661	0.091541
985.818041	0.092893
985.991403	0.092609
986.164747	0.091391
986.338072	0.087078
986.511379	0.086324
986.684668	0.085218
986.857938	0.086583
987.031191	0.089205
987.204425	0.088665
987.377641	0.086380
987.550839	0.085968
987.724018	0.086819
987.897179	0.089709
988.070322	0.090397
988.243447	0.089022
988.416554	0.089611
988.589642	0.089045
988.762712	0.088273
988.935764	0.087944
989.108798	0.090474
989.281813	0.088758
989.454811	0.088404
989.627790	0.087980
989.800751	0.088429
989.973693	0.087183
990.146617	0.084912
990.319524	0.085355
990.492412	0.085386
990.665281	0.084448
990.838133	0.085687
991.010966	0.085873
991.183781	0.086483
991.356578	0.087078
991.529356	0.087976
991.702117	0.087789
991.874859	0.088550
992.047583	0.088863
992.220288	0.087322
992.392976	0.087620
992.565645	0.088723
992.738296	0.086008
992.910929	0.086328
993.083543	0.085227
993.256139	0.087492
993.428718	0.086264
993.601277	0.085271
993.773819	0.087692
993.946342	0.086073
994.118848	0.085455
994.291335	0.086677
994.463803	0.087530
994.636254	0.086266
994.808686	0.085752
994.981100	0.087519
995.153496	0.087877
995.325874	0.086234
995.498233	0.087704
995.670574	0.087971
995.842897	0.090193
996.015202	0.091055
996.187488	0.091536
996.359757	0.089877
996.532007	0.089588
996.704239	0.089601
996.876452	0.088970
997.048648	0.090233
997.220825	0.088823
997.392984	0.086001
997.565124	0.083783
997.737247	0.084443
997.909351	0.084850
998.081437	0.084595
998.253505	0.085174
998.425554	0.086196
998.597586	0.082903
998.769599	0.083626
998.941594	0.084585
999.113571	0.084695
999.285529	0.083962
999.457469	0.084332
999.629391	0.083806
999.801295	0.083546
999.973181	0.084058
1000.145048	0.085671
1000.316897	0.087109
1000.488728	0.088457
1000.660541	0.089150
1000.832335	0.088560
1001.004111	0.088669
1001.175869	0.087213
1001.347609	0.088077
1001.519331	0.087850
1001.691034	0.088423
1001.862719	0.086812
1002.034386	0.085916
1002.206035	0.086270
1002.377665	0.087850
1002.549277	0.087400
1002.720871	0.090811
1002.892447	0.089273
1003.064004	0.089768
1003.235544	0.089089
1003.407065	0.089567
1003.578568	0.089221
1003.750052	0.087001
1003.921519	0.085485
1004.092967	0.086578
1004.264397	0.085381
1004.435809	0.086497
1004.607202	0.086129
1004.778577	0.086247
1004.949934	0.086375
1005.121273	0.085528
1005.292594	0.085787
1005.463896	0.087601
1005.635180	0.087610
1005.806446	0.087876
1005.977694	0.085258
1006.148923	0.084306
1006.320135	0.083539
1006.491328	0.084079
1006.662503	0.084430
1006.833659	0.086371
1007.004798	0.084824
1007.175918	0.084873
1007.347020	0.083707
1007.518103	0.085776
1007.689169	0.085163
1007.860216	0.085217
1008.031245	0.084272
1008.202256	0.084019
1008.373248	0.083772
1008.544223	0.084936
1008.715179	0.084213
1008.886117	0.083432
1009.057036	0.083881
1009.227938	0.085837
1009.398821	0.087990
1009.569686	0.087533
1009.740533	0.087844
1009.911361	0.088740
1010.082172	0.088370
1010.252964	0.088551
1010.423738	0.088064
1010.594493	0.085698
1010.765231	0.084206
1010.935950	0.084396
1011.106651	0.084568
1011.277334	0.084349
1011.447998	0.083546
1011.618645	0.082564
1011.789273	0.082457
1011.959882	0.083045
1012.130474	0.084477
1012.301048	0.085277
1012.471603	0.083663
1012.642140	0.082578
1012.812658	0.082807
1012.983159	0.080641
1013.153641	0.081999
1013.324105	0.082180
1013.494551	0.080534
1013.664979	0.080653
1013.835388	0.080172
1014.005779	0.079850
1014.176152	0.080509
1014.346507	0.081264
1014.516843	0.082053
1014.687162	0.080047
1014.857462	0.080605
1015.027744	0.082983
1015.198007	0.082744
1015.368252	0.082175
1015.538480	0.082477
1015.708689	0.085176
1015.878879	0.084433
1016.049052	0.084907
1016.219206	0.087058
1016.389342	0.085405
1016.559460	0.084442
1016.729559	0.084141
1016.899641	0.083756
1017.069704	0.084373
1017.239749	0.082099
1017.409775	0.083581
1017.579784	0.083275
1017.749774	0.082832
1017.919746	0.083614
1018.089700	0.085182
1018.259635	0.086538
1018.429553	0.088041
1018.599452	0.088580
1018.769333	0.088981
1018.939195	0.088763
1019.109040	0.088754
1019.278866	0.088853
1019.448674	0.089273
1019.618464	0.087678
1019.788235	0.087237
1019.957989	0.085481
1020.127724	0.084378
1020.297441	0.083898
1020.467139	0.081921
1020.636820	0.082553
1020.806482	0.083542
1020.976126	0.082545
1021.145752	0.083149
1021.315359	0.082886
1021.484948	0.084356
1021.654519	0.084384
1021.824072	0.083087
1021.993607	0.083397
1022.163123	0.083904
1022.332621	0.081536
1022.502101	0.080710
1022.671563	0.081094
1022.841007	0.080884
1023.010432	0.081969
1023.179839	0.082241
1023.349228	0.082251
1023.518598	0.081289
1023.687951	0.080175
1023.857285	0.079698
1024.026601	0.079130
1024.195899	0.079319
1024.365178	0.079741
1024.534439	0.078560
1024.703682	0.078165
1024.872907	0.078724
1025.042114	0.078972
1025.211302	0.079957
1025.380472	0.080566
1025.549624	0.082473
1025.718758	0.082237
1025.887873	0.081850
1026.056970	0.081795
1026.226049	0.080445
1026.395110	0.079856
1026.564153	0.079917
1026.733177	0.078630
1026.902183	0.077414
1027.071171	0.078161
1027.240141	0.079712
1027.409092	0.078801
1027.578026	0.077012
1027.746940	0.076974
1027.915837	0.077783
1028.084716	0.079095
1028.253576	0.079550
1028.422418	0.081688
1028.591242	0.080131
1028.760048	0.076655
1028.928835	0.077906
1029.097604	0.080116
1029.266355	0.082972
1029.435088	0.082817
1029.603803	0.082201
1029.772499	0.080264
1029.941177	0.078662
1030.109837	0.078533
1030.278478	0.080192
1030.447102	0.078570
1030.615707	0.078095
1030.784294	0.076166
1030.952863	0.076956
1031.121413	0.076253
1031.289945	0.077333
1031.458460	0.078132
1031.626955	0.076444
1031.795433	0.075566
1031.963892	0.075400
1032.132334	0.074963
1032.300756	0.075197
1032.469161	0.073699
1032.637548	0.073922
1032.805916	0.074863
1032.974266	0.075521
1033.142598	0.077963
1033.310911	0.078708
1033.479207	0.079919
1033.647484	0.079892
1033.815743	0.080374
1033.983983	0.079081
1034.152206	0.080485
1034.320410	0.080549
1034.488596	0.080277
1034.656764	0.078498
1034.824914	0.077946
1034.993045	0.078141
1035.161158	0.077071
1035.329253	0.075530
1035.497330	0.077947
1035.665388	0.077052
1035.833428	0.076372
1036.001450	0.076654
1036.169454	0.078381
1036.337440	0.079893
1036.505407	0.080393
1036.673356	0.080759
1036.841287	0.080864
1037.009200	0.080101
1037.177094	0.079370
1037.344970	0.081525
1037.512828	0.081389
1037.680668	0.080648
1037.848489	0.079527
1038.016293	0.080431
1038.184078	0.081711
1038.351845	0.081424
1038.519593	0.082675
1038.687324	0.082968
1038.855036	0.081642
1039.022730	0.079638
1039.190406	0.081118
1039.358063	0.081751
1039.525702	0.080480
1039.693323	0.078801
1039.860926	0.079677
1040.028511	0.079612
1040.196077	0.079953
1040.363625	0.079194
1040.531155	0.081368
1040.698667	0.079905
1040.866161	0.079979
1041.033636	0.078932
1041.201093	0.079435
1041.368532	0.079662
1041.535952	0.079283
1041.703355	0.080441
1041.870739	0.080043
1042.038105	0.077696
1042.205452	0.078121
1042.372782	0.077691
1042.540093	0.077738
1042.707386	0.077705
1042.874661	0.076727
1043.041918	0.077263
1043.209156	0.075937
1043.376376	0.076769
1043.543578	0.077741
1043.710762	0.077373
1043.877927	0.076267
1044.045074	0.077126
1044.212203	0.078749
1044.379314	0.080026
1044.546407	0.078681
1044.713481	0.079035
1044.880537	0.078029
1045.047575	0.077942
1045.214595	0.077304
1045.381596	0.077411
1045.548579	0.076788
1045.715544	0.075437
1045.882491	0.074704
1046.049420	0.074239
1046.216330	0.074648
1046.383222	0.075627
1046.550096	0.076002
1046.716951	0.078310
1046.883789	0.078631
1047.050608	0.080138
1047.217409	0.081225
1047.384192	0.081267
1047.550956	0.080115
1047.717703	0.079275
1047.884431	0.077423
1048.051140	0.078212
1048.217832	0.077347
1048.384505	0.078069
1048.551161	0.076564
1048.717798	0.077168
1048.884416	0.078291
1049.051017	0.081286
1049.217599	0.081676
1049.384163	0.083428
1049.550709	0.084992
1049.717237	0.084785
1049.883746	0.084411
1050.050237	0.086280
1050.216710	0.084585
1050.383165	0.085358
1050.549601	0.083174
1050.716019	0.083956
1050.882420	0.084115
1051.048801	0.080797
1051.215165	0.079444
1051.381510	0.079639
1051.547837	0.080747
1051.714146	0.082183
1051.880437	0.080535
1052.046709	0.082064
1052.212964	0.082544
1052.379200	0.080199
1052.545417	0.080469
1052.711617	0.080836
1052.877798	0.081564
1053.043961	0.080521
1053.210106	0.079370
1053.376233	0.080071
1053.542341	0.079021
1053.708432	0.076917
1053.874504	0.079292
1054.040557	0.080567
1054.206593	0.082854
1054.372610	0.080401
1054.538609	0.078881
1054.704590	0.080299
1054.870553	0.080486
1055.036497	0.080301
1055.202424	0.082566
1055.368331	0.081369
1055.534221	0.080779
1055.700093	0.079797
1055.865946	0.081345
1056.031781	0.081269
1056.197598	0.080475
1056.363397	0.079270
1056.529177	0.079662
1056.694939	0.077591
1056.860683	0.077992
1057.026409	0.079494
1057.192116	0.079605
1057.357806	0.080056
1057.523477	0.078769
1057.689130	0.077144
1057.854764	0.078027
1058.020381	0.078212
1058.185979	0.080013
1058.351559	0.081708
1058.517120	0.080289
1058.682664	0.079829
1058.848189	0.079212
1059.013696	0.080940
1059.179185	0.081802
1059.344656	0.081558
1059.510108	0.083326
1059.675542	0.083820
1059.840958	0.082216
1060.006356	0.082542
1060.171735	0.082193
1060.337096	0.081702
1060.502439	0.082142
1060.667764	0.081601
1060.833071	0.083696
1060.998359	0.083572
1061.163629	0.080955
1061.328881	0.081155
1061.494115	0.083871
1061.659330	0.083781
1061.824527	0.085314
1061.989706	0.084270
1062.154867	0.085725
1062.320010	0.082023
1062.485134	0.081642
1062.650240	0.083468
1062.815328	0.084877
1062.980398	0.083850
1063.145449	0.085514
1063.310482	0.082650
1063.475497	0.084632
1063.640494	0.085948
1063.805473	0.088916
1063.970433	0.090033
1064.135375	0.088761
1064.300299	0.089503
1064.465204	0.088426
1064.630092	0.086885
1064.794961	0.088765
1064.959812	0.088422
1065.124645	0.089530
1065.289459	0.087489
1065.454256	0.085017
1065.619034	0.086157
1065.783793	0.084844
1065.948535	0.086136
1066.113258	0.089486
1066.277964	0.088700
1066.442651	0.087113
1066.607319	0.083552
1066.771970	0.086478
1066.936602	0.088659
1067.101216	0.087899
1067.265812	0.087519
1067.430389	0.087085
1067.594949	0.086417
1067.759490	0.089292
1067.924013	0.087258
1068.088518	0.086138
1068.253004	0.084874
1068.417472	0.082449
1068.581922	0.084357
1068.746354	0.086442
1068.910768	0.086827
1069.075163	0.085096
1069.239540	0.085335
1069.403899	0.088828
1069.568240	0.089541
1069.732562	0.089325
1069.896866	0.090325
1070.061152	0.089063
1070.225420	0.087902
1070.389670	0.086678
1070.553901	0.084976
1070.718114	0.084802
1070.882309	0.085414
1071.046486	0.086148
1071.210644	0.086800
1071.374784	0.089471
1071.538906	0.091207
1071.703010	0.091629
1071.867096	0.090874
1072.031163	0.091725
1072.195212	0.090932
1072.359243	0.092004
1072.523256	0.095308
1072.687250	0.093717
1072.851226	0.090765
1073.015184	0.089623
1073.179124	0.088826
1073.343045	0.090502
1073.506949	0.090706
1073.670834	0.091924
1073.834701	0.092612
1073.998549	0.090120
1074.162380	0.091516
1074.326192	0.093129
1074.489986	0.093564
1074.653761	0.093860
1074.817519	0.093471
1074.981258	0.095643
1075.144979	0.093431
1075.308682	0.089433
1075.472367	0.090968
1075.636033	0.091789
1075.799681	0.091814
1075.963311	0.092146
1076.126923	0.091094
1076.290516	0.090610
1076.454092	0.090407
1076.617649	0.094280
1076.781187	0.097849
1076.944708	0.097954
1077.108210	0.096450
1077.271695	0.097768
1077.435160	0.097283
1077.598608	0.098833
1077.762038	0.099814
1077.925449	0.097029
1078.088842	0.091130
1078.252217	0.088441
1078.415573	0.085900
1078.578912	0.087978
1078.742232	0.087805
1078.905534	0.087322
1079.068817	0.086082
1079.232083	0.085689
1079.395330	0.086085
1079.558559	0.090019
1079.721770	0.091055
1079.884962	0.092949
1080.048136	0.089847
1080.211293	0.089398
1080.374430	0.091739
1080.537550	0.095074
1080.700651	0.094419
1080.863735	0.094856
1081.026800	0.096228
1081.189846	0.096263
1081.352875	0.095128
1081.515885	0.100263
1081.678877	0.099233
1081.841851	0.098548
1082.004807	0.096917
1082.167744	0.096787
1082.330663	0.100727
1082.493564	0.099558
1082.656447	0.097460
1082.819312	0.099040
1082.982158	0.096279
1083.144986	0.097099
1083.307796	0.097286
1083.470587	0.098922
1083.633361	0.100162
1083.796116	0.097819
1083.958853	0.096431
1084.121571	0.099385
1084.284272	0.100836
1084.446954	0.101117
1084.609618	0.101582
1084.772264	0.100247
1084.934892	0.098129
1085.097501	0.096738
1085.260092	0.095770
1085.422665	0.095495
1085.585220	0.095353
1085.747756	0.092111
1085.910274	0.089592
1086.072774	0.087969
1086.235256	0.087657
1086.397720	0.088074
1086.560165	0.091914
1086.722592	0.093861
1086.885001	0.096104
1087.047392	0.096181
1087.209764	0.097017
1087.372119	0.097776
1087.534455	0.098894
1087.696772	0.101587
1087.859072	0.100894
1088.021353	0.095528
1088.183616	0.093417
1088.345861	0.095432
1088.508088	0.093297
1088.670296	0.095771
1088.832486	0.095204
1088.994658	0.095769
1089.156812	0.093946
1089.318948	0.095486
1089.481065	0.099733
1089.643164	0.099867
1089.805245	0.095574
1089.967308	0.100825
1090.129352	0.100664
1090.291378	0.102371
1090.453386	0.102865
1090.615376	0.105066
1090.777347	0.106880
1090.939301	0.104328
1091.101236	0.106231
1091.263153	0.106087
1091.425051	0.101800
1091.586932	0.100656
1091.748794	0.100908
1091.910638	0.099775
1092.072463	0.098011
1092.234271	0.097071
1092.396060	0.100174
1092.557831	0.100867
1092.719584	0.104517
1092.881319	0.105420
1093.043035	0.106323
1093.204733	0.109332
1093.366413	0.112159
1093.528075	0.111344
1093.689718	0.110195
1093.851343	0.109414
1094.012950	0.108596
1094.174539	0.107162
1094.336110	0.108255
1094.497662	0.108217
1094.659196	0.106149
1094.820712	0.105443
1094.982210	0.110104
1095.143689	0.111620
1095.305151	0.113102
1095.466594	0.110508
1095.628018	0.113777
1095.789425	0.114594
1095.950813	0.114168
1096.112183	0.115348
1096.273535	0.112827
1096.434869	0.108796
1096.596184	0.106804
1096.757482	0.106038
1096.918761	0.112430
1097.080021	0.109250
1097.241264	0.109529
1097.402488	0.108388
1097.563694	0.107738
1097.724882	0.109358
1097.886052	0.112068
1098.047203	0.114593
1098.208336	0.114599
1098.369451	0.110588
1098.530548	0.111932
1098.691627	0.110137
1098.852687	0.115792
1099.013729	0.116721
1099.174753	0.117064
1099.335758	0.117096
1099.496746	0.116655
1099.657715	0.115475
1099.818666	0.117742
1099.979599	0.116502
1100.140513	0.121712
1100.301409	0.117320
1100.462287	0.114774
1100.623147	0.118255
1100.783989	0.112647
1100.944812	0.112406
1101.105617	0.115425
1101.266404	0.115959
1101.427173	0.115891
1101.587923	0.116443
1101.748656	0.118369
1101.909370	0.120941
1102.070066	0.117349
1102.230743	0.119598
1102.391403	0.119379
1102.552044	0.115347
1102.712667	0.117059
1102.873271	0.118107
1103.033858	0.117143
1103.194426	0.115004
1103.354976	0.117132
1103.515508	0.117049
1103.676021	0.119479
1103.836517	0.118172
1103.996994	0.125380
1104.157453	0.120429
1104.317893	0.122147
1104.478316	0.122047
1104.638720	0.126396
1104.799106	0.123700
1104.959474	0.124775
1105.119823	0.124691
1105.280155	0.127675
1105.440468	0.124160
1105.600763	0.124592
1105.761039	0.126197
1105.921298	0.122740
1106.081538	0.122256
1106.241760	0.121350
1106.401964	0.120949
1106.562149	0.118714
1106.722316	0.119494
1106.882465	0.120034
1107.042596	0.124219
1107.202709	0.121871
1107.362803	0.119699
1107.522879	0.117847
1107.682937	0.121462
1107.842977	0.122580
1108.002999	0.125583
1108.163002	0.122173
1108.322987	0.121634
1108.482954	0.120917
1108.642902	0.116814
1108.802833	0.118610
1108.962745	0.118108
1109.122639	0.119936
1109.282515	0.115999
1109.442372	0.115009
1109.602211	0.114874
1109.762032	0.112124
1109.921835	0.113658
1110.081620	0.118791
1110.241386	0.116975
1110.401134	0.116183
1110.560864	0.113501
1110.720576	0.122259
1110.880269	0.121212
1111.039945	0.116151
1111.199602	0.122602
1111.359240	0.117896
1111.518861	0.118253
1111.678463	0.122271
1111.838047	0.129836
1111.997613	0.129483
1112.157161	0.124517
1112.316690	0.126734
1112.476202	0.131206
1112.635695	0.129631
1112.795169	0.133488
1112.954626	0.136472
1113.114064	0.134113
1113.273484	0.124866
1113.432886	0.121578
1113.592270	0.121593
1113.751635	0.122651
1113.910983	0.126038
1114.070312	0.127518
1114.229622	0.126329
1114.388915	0.124177
1114.548189	0.128600
1114.707445	0.137953
1114.866683	0.139232
1115.025903	0.141628
1115.185104	0.142310
1115.344287	0.143665
1115.503452	0.136893
1115.662599	0.137260
1115.821727	0.135136
1115.980838	0.134244
1116.139930	0.131228
1116.299004	0.131497
1116.458059	0.130426
1116.617097	0.132658
1116.776116	0.130619
1116.935117	0.138905
1117.094099	0.137495
1117.253064	0.135102
1117.412010	0.131644
1117.570938	0.130760
1117.729848	0.133099
1117.888740	0.126766
1118.047613	0.124580
1118.206468	0.129105
1118.365305	0.123440
1118.524124	0.119741
1118.682924	0.124434
1118.841707	0.122745
1119.000471	0.120368
1119.159216	0.123310
1119.317944	0.126752
1119.476653	0.125388
1119.635344	0.119411
1119.794017	0.119758
1119.952672	0.127068
1120.111308	0.124009
1120.269927	0.121745
1120.428527	0.124058
1120.587108	0.118675
1120.745672	0.121454
1120.904217	0.122222
1121.062744	0.121805
1121.221253	0.121901
1121.379744	0.120453
1121.538216	0.120273
1121.696671	0.125719
1121.855107	0.123486
1122.013524	0.122754
1122.171924	0.120876
1122.330305	0.124499
1122.488668	0.124074
1122.647013	0.129388
1122.805340	0.127180
1122.963648	0.128167
1123.121938	0.129326
1123.280210	0.131920
1123.438464	0.136645
1123.596700	0.138712
1123.754917	0.137656
1123.913116	0.139745
1124.071297	0.131134
1124.229459	0.133969
1124.387604	0.139768
1124.545730	0.140253
1124.703838	0.136241
1124.861928	0.132325
1125.019999	0.131974
1125.178052	0.124254
1125.336088	0.125876
1125.494104	0.127791
1125.652103	0.123593
1125.810083	0.117878
1125.968045	0.118863
1126.125989	0.121791
1126.283915	0.121428
1126.441823	0.127883
1126.599712	0.130210
1126.757583	0.133035
1126.915436	0.128338
1127.073270	0.135177
1127.231087	0.138932
1127.388885	0.133871
1127.546665	0.131062
1127.704426	0.132953
1127.862170	0.128807
1128.019895	0.132567
1128.177602	0.129620
1128.335291	0.134957
1128.492961	0.132084
1128.650614	0.129091
1128.808248	0.127106
1128.965864	0.131508
1129.123461	0.135220
1129.281041	0.137526
1129.438602	0.144500
1129.596145	0.148905
1129.753670	0.143438
1129.911176	0.143017
1130.068665	0.142439
1130.226135	0.146677
1130.383587	0.149054
1130.541020	0.151952
1130.698436	0.149459
1130.855833	0.150888
1131.013212	0.148402
1131.170573	0.155667
1131.327915	0.155535
1131.485239	0.154114
1131.642545	0.156123
1131.799833	0.152810
1131.957103	0.150729
1132.114354	0.145296
1132.271588	0.135071
1132.428803	0.130935
1132.585999	0.125095
1132.743178	0.120685
1132.900338	0.126772
1133.057480	0.127196
1133.214604	0.126588
1133.371710	0.126095
1133.528797	0.127205
1133.685866	0.124865
1133.842917	0.118030
1133.999950	0.120913
1134.156964	0.122762
1134.313960	0.119784
1134.470938	0.117397
1134.627898	0.114488
1134.784840	0.111241
1134.941763	0.111175
1135.098668	0.114672
1135.255555	0.126169
1135.412424	0.137170
1135.569274	0.142808
1135.726107	0.139566
1135.882921	0.147314
1136.039716	0.155895
1136.196494	0.159883
1136.353253	0.158451
1136.509995	0.160613
1136.666717	0.161738
1136.823422	0.149835
1136.980109	0.149944
1137.136777	0.151163
1137.293427	0.151724
1137.450059	0.151648
1137.606672	0.146813
1137.763267	0.150830
1137.919844	0.142434
1138.076403	0.137331
1138.232944	0.134537
1138.389466	0.132301
1138.545971	0.135682
1138.702457	0.129089
1138.858924	0.135620
1139.015374	0.128727
1139.171805	0.126585
1139.328218	0.138248
1139.484613	0.143714
1139.640990	0.147129
1139.797348	0.147766
1139.953688	0.147159
1140.110010	0.145867
1140.266314	0.125604
1140.422600	0.132558
1140.578867	0.139587
1140.735116	0.129689
1140.891347	0.132255
1141.047559	0.133772
1141.203754	0.120881
1141.359930	0.119216
1141.516088	0.130833
1141.672228	0.132115
1141.828349	0.135775
1141.984452	0.130660
1142.140537	0.135819
1142.296604	0.137096
1142.452653	0.145960
1142.608683	0.159927
1142.764695	0.159830
1142.920689	0.152522
1143.076665	0.163853
1143.232622	0.158975
1143.388562	0.159215
1143.544483	0.148337
1143.700385	0.143387
1143.856270	0.138706
1144.012136	0.143515
1144.167985	0.146221
1144.323814	0.143432
1144.479626	0.133126
1144.635420	0.141838
1144.791195	0.135302
1144.946952	0.144416
1145.102691	0.131736
1145.258411	0.127807
1145.414113	0.118586
1145.569798	0.121462
1145.725463	0.123853
1145.881111	0.130864
1146.036741	0.131613
1146.192352	0.143164
1146.347945	0.148114
1146.503519	0.174124
1146.659076	0.169167
1146.814614	0.177198
1146.970134	0.166825
1147.125636	0.169975
1147.281120	0.169328
1147.436585	0.165484
1147.592032	0.161578
1147.747461	0.146088
1147.902872	0.133136
1148.058265	0.131900
1148.213639	0.124008
1148.368995	0.125000
1148.524333	0.122779
1148.679653	0.131863
1148.834954	0.132960
1148.990237	0.127550
1149.145502	0.136688
1149.300749	0.132480
1149.455977	0.134590
1149.611188	0.140109
1149.766380	0.150220
1149.921553	0.142071
1150.076709	0.132537
1150.231846	0.125759
1150.386966	0.121034
1150.542066	0.123514
1150.697149	0.125661
1150.852214	0.125667
1151.007260	0.127082
1151.162288	0.116999
1151.317298	0.107968
1151.472289	0.105565
1151.627263	0.105308
1151.782218	0.112940
1151.937155	0.117072
1152.092073	0.114538
1152.246974	0.118000
1152.401856	0.109425
1152.556720	0.111134
1152.711566	0.121563
1152.866393	0.129468
1153.021203	0.135956
1153.175994	0.131547
1153.330767	0.125994
1153.485521	0.142138
1153.640258	0.148861
1153.794976	0.159501
1153.949676	0.162860
1154.104358	0.164718
1154.259021	0.147222
1154.413667	0.140157
1154.568294	0.147033
1154.722903	0.144840
1154.877493	0.124595
1155.032066	0.123372
1155.186620	0.117219
1155.341156	0.131491
1155.495674	0.132955
1155.650173	0.140833
1155.804654	0.140104
1155.959118	0.132433
1156.113562	0.142035
1156.267989	0.147509
1156.422397	0.148557
1156.576788	0.153957
1156.731160	0.128245
1156.885513	0.131201
1157.039849	0.133807
1157.194166	0.151252
1157.348465	0.160388
1157.502746	0.157015
1157.657009	0.152136
1157.811253	0.160522
1157.965479	0.165276
1158.119687	0.184533
1158.273877	0.188930
1158.428048	0.184409
1158.582201	0.184968
1158.736337	0.198252
1158.890453	0.189073
1159.044552	0.203550
1159.198632	0.192296
1159.352694	0.189760
1159.506738	0.169826
1159.660764	0.169121
1159.814771	0.174007
1159.968761	0.158785
1160.122732	0.142321
1160.276685	0.148687
1160.430619	0.129299
1160.584535	0.129475
1160.738434	0.123088
1160.892313	0.132486
1161.046175	0.123537
1161.200019	0.118627
1161.353844	0.120766
1161.507651	0.125880
1161.661440	0.123635
1161.815210	0.138921
1161.968962	0.132164
1162.122697	0.141384
1162.276412	0.143993
1162.430110	0.153573
1162.583789	0.156817
1162.737451	0.153632
1162.891094	0.140509
1163.044718	0.140377
1163.198325	0.140913
1163.351913	0.150881
1163.505483	0.140882
1163.659035	0.138768
1163.812569	0.134343
1163.966084	0.120245
1164.119581	0.120236
1164.273060	0.125663
1164.426521	0.109400
1164.579964	0.093552
1164.733388	0.109598
1164.886794	0.109128
1165.040182	0.107008
1165.193551	0.109245
1165.346903	0.135007
1165.500236	0.144164
1165.653551	0.154410
1165.806848	0.171936
1165.960126	0.189194
1166.113386	0.147175
1166.266628	0.153327
1166.419852	0.157263
1166.573058	0.157522
1166.726245	0.145295
1166.879414	0.127697
1167.032565	0.124408
1167.185698	0.121198
1167.338812	0.116353
1167.491909	0.128175
1167.644987	0.123447
1167.798046	0.128107
1167.951088	0.112533
1168.104111	0.104885
1168.257117	0.102486
1168.410103	0.105574
1168.563072	0.109435
1168.716023	0.115997
1168.868955	0.141145
1169.021869	0.145653
1169.174765	0.135373
1169.327642	0.166258
1169.480501	0.172284
1169.633343	0.167476
1169.786165	0.171371
1169.938970	0.166609
1170.091757	0.164670
1170.244525	0.141611
1170.397275	0.126183
1170.550007	0.134602
1170.702720	0.111437
1170.855415	0.120903
1171.008092	0.124945
1171.160751	0.105961
1171.313392	0.101162
1171.466014	0.171346
1171.618619	0.052269
1171.771205	0.052269
1171.923772	0.052269
