sample name	sample
index	957
start time	 04-12-2021  03:58:16 PM


Wavelength (nm)	Absorbance
494.344910	0.011418
494.563924	0.011418
494.782919	0.011418
495.001897	-0.262586
495.220856	0.071412
495.439797	0.077907
495.658719	0.032534
495.877624	0.020453
496.096510	0.049584
496.315378	0.062343
496.534227	0.044513
496.753059	0.082791
496.971872	0.045179
497.190667	0.078698
497.409444	0.086002
497.628203	0.087712
497.846943	0.089797
498.065665	0.091637
498.284369	0.091924
498.503055	0.090654
498.721723	0.090211
498.940372	0.091558
499.159003	0.091741
499.377616	0.092681
499.596210	0.093139
499.814787	0.093298
500.033345	0.092600
500.251885	0.093005
500.470406	0.094116
500.688910	0.094150
500.907395	0.094109
501.125862	0.094608
501.344311	0.093597
501.562742	0.094012
501.781154	0.094562
501.999548	0.095073
502.217924	0.094816
502.436282	0.095056
502.654621	0.095021
502.872942	0.094265
503.091245	0.093448
503.309530	0.092874
503.527797	0.093108
503.746045	0.093048
503.964275	0.093261
504.182487	0.093474
504.400681	0.093290
504.618856	0.093690
504.837013	0.094607
505.055152	0.095614
505.273273	0.097618
505.491376	0.097482
505.709460	0.098384
505.927526	0.097410
506.145574	0.097813
506.363604	0.097494
506.581615	0.097251
506.799608	0.097189
507.017583	0.096622
507.235540	0.094852
507.453478	0.095130
507.671399	0.094437
507.889301	0.095839
508.107185	0.095680
508.325050	0.096421
508.542898	0.096675
508.760727	0.096700
508.978538	0.096301
509.196330	0.097405
509.414105	0.097199
509.631861	0.096982
509.849599	0.096526
510.067319	0.095976
510.285021	0.096243
510.502704	0.096405
510.720369	0.097430
510.938016	0.097843
511.155645	0.098589
511.373255	0.099040
511.590848	0.098586
511.808422	0.098496
512.025977	0.099386
512.243515	0.099017
512.461034	0.099518
512.678536	0.098840
512.896018	0.100142
513.113483	0.099657
513.330930	0.099176
513.548358	0.100227
513.765768	0.101061
513.983160	0.100917
514.200533	0.101205
514.417889	0.101103
514.635226	0.101167
514.852545	0.100771
515.069845	0.100363
515.287128	0.100706
515.504392	0.100326
515.721638	0.100477
515.938866	0.100619
516.156075	0.100544
516.373267	0.100329
516.590440	0.100152
516.807594	0.099783
517.024731	0.100420
517.241850	0.101154
517.458950	0.101801
517.676032	0.102025
517.893095	0.102254
518.110141	0.102528
518.327168	0.102914
518.544177	0.103532
518.761168	0.104080
518.978141	0.104627
519.195095	0.104300
519.412031	0.104258
519.628949	0.103802
519.845849	0.103940
520.062731	0.104116
520.279594	0.104385
520.496439	0.104121
520.713266	0.104165
520.930074	0.104068
521.146865	0.104153
521.363637	0.103852
521.580391	0.104468
521.797127	0.104680
522.013844	0.104908
522.230543	0.105061
522.447224	0.105058
522.663887	0.104909
522.880532	0.105097
523.097158	0.105310
523.313766	0.106416
523.530356	0.106749
523.746928	0.106342
523.963481	0.106641
524.180017	0.107034
524.396534	0.107340
524.613032	0.107523
524.829513	0.107824
525.045975	0.108515
525.262420	0.107931
525.478845	0.107839
525.695253	0.108056
525.911643	0.108233
526.128014	0.108760
526.344367	0.109092
526.560702	0.109867
526.777018	0.109692
526.993316	0.109616
527.209597	0.110030
527.425858	0.110456
527.642102	0.111359
527.858328	0.111051
528.074535	0.111019
528.290724	0.110735
528.506894	0.110232
528.723047	0.109916
528.939181	0.110753
529.155297	0.111463
529.371395	0.111626
529.587475	0.111695
529.803536	0.111880
530.019579	0.111986
530.235604	0.112819
530.451611	0.113167
530.667600	0.114135
530.883570	0.113606
531.099522	0.113448
531.315456	0.113335
531.531372	0.113271
531.747269	0.113795
531.963148	0.113678
532.179009	0.113753
532.394852	0.114636
532.610676	0.114816
532.826482	0.114917
533.042271	0.114644
533.258040	0.114798
533.473792	0.114799
533.689525	0.115322
533.905240	0.115835
534.120937	0.115676
534.336616	0.115179
534.552277	0.115393
534.767919	0.115984
534.983543	0.116532
535.199149	0.116632
535.414736	0.117088
535.630306	0.116833
535.845857	0.116827
536.061390	0.117385
536.276904	0.118074
536.492401	0.118093
536.707879	0.118316
536.923339	0.118760
537.138781	0.119259
537.354204	0.119407
537.569610	0.119460
537.784997	0.119935
538.000366	0.120030
538.215716	0.120488
538.431049	0.119915
538.646363	0.119556
538.861659	0.119499
539.076937	0.119273
539.292196	0.119095
539.507438	0.119401
539.722661	0.119459
539.937866	0.119545
540.153052	0.118877
540.368221	0.119680
540.583371	0.120251
540.798503	0.120162
541.013617	0.120599
541.228712	0.121520
541.443789	0.121818
541.658848	0.121853
541.873889	0.122383
542.088912	0.122340
542.303916	0.122480
542.518902	0.122279
542.733870	0.122594
542.948820	0.122600
543.163752	0.122275
543.378665	0.122085
543.593560	0.122214
543.808437	0.121942
544.023295	0.122558
544.238136	0.122697
544.452958	0.122924
544.667762	0.122668
544.882548	0.123265
545.097315	0.123517
545.312064	0.123662
545.526795	0.123628
545.741508	0.123634
545.956203	0.123671
546.170879	0.123638
546.385537	0.123720
546.600177	0.124079
546.814799	0.123689
547.029402	0.123735
547.243988	0.123791
547.458555	0.124014
547.673103	0.124309
547.887634	0.124541
548.102146	0.124824
548.316640	0.125303
548.531116	0.125489
548.745574	0.125484
548.960013	0.125633
549.174435	0.125639
549.388838	0.125623
549.603222	0.125884
549.817589	0.125822
550.031937	0.125830
550.246267	0.125721
550.460579	0.126406
550.674873	0.126486
550.889148	0.126856
551.103405	0.127136
551.317644	0.127065
551.531865	0.127186
551.746068	0.126988
551.960252	0.127161
552.174418	0.127520
552.388566	0.127100
552.602696	0.127369
552.816807	0.127472
553.030900	0.127439
553.244975	0.128074
553.459032	0.127819
553.673070	0.128126
553.887091	0.128563
554.101093	0.128195
554.315077	0.128409
554.529042	0.128750
554.742990	0.128605
554.956919	0.129078
555.170830	0.128770
555.384722	0.129022
555.598597	0.129126
555.812453	0.129139
556.026291	0.129192
556.240111	0.129478
556.453913	0.129754
556.667696	0.129943
556.881461	0.129790
557.095208	0.130026
557.308937	0.130127
557.522647	0.130384
557.736339	0.130154
557.950013	0.130524
558.163669	0.129967
558.377307	0.129854
558.590926	0.130056
558.804527	0.130679
559.018110	0.130794
559.231675	0.130861
559.445221	0.131365
559.658749	0.131775
559.872259	0.131955
560.085751	0.132543
560.299225	0.132507
560.512680	0.132514
560.726117	0.132649
560.939536	0.133051
561.152937	0.133579
561.366319	0.133656
561.579683	0.133717
561.793029	0.133566
562.006357	0.133702
562.219667	0.133708
562.432958	0.133744
562.646231	0.133340
562.859486	0.132524
563.072723	0.132514
563.285941	0.132352
563.499141	0.132615
563.712323	0.132887
563.925487	0.132819
564.138632	0.132671
564.351760	0.132845
564.564869	0.132832
564.777960	0.133358
564.991032	0.133529
565.204087	0.133353
565.417123	0.133181
565.630141	0.133260
565.843140	0.133342
566.056122	0.133681
566.269085	0.133770
566.482030	0.134181
566.694957	0.134740
566.907866	0.134750
567.120756	0.135096
567.333628	0.135280
567.546482	0.135352
567.759318	0.135391
567.972135	0.135513
568.184935	0.135672
568.397716	0.135554
568.610478	0.135165
568.823223	0.135018
569.035949	0.135177
569.248657	0.135365
569.461347	0.135598
569.674019	0.135802
569.886672	0.136265
570.099308	0.136280
570.311925	0.136641
570.524523	0.136673
570.737104	0.136756
570.949666	0.136647
571.162210	0.136485
571.374736	0.136371
571.587244	0.136321
571.799733	0.136101
572.012205	0.135663
572.224658	0.135367
572.437092	0.135194
572.649509	0.135210
572.861907	0.135294
573.074287	0.135138
573.286649	0.135261
573.498993	0.135409
573.711318	0.135363
573.923625	0.135747
574.135914	0.135858
574.348185	0.136166
574.560438	0.136212
574.772672	0.136247
574.984888	0.136569
575.197086	0.136570
575.409266	0.136662
575.621427	0.136441
575.833570	0.136924
576.045695	0.136830
576.257802	0.137131
576.469890	0.137323
576.681961	0.137603
576.894013	0.137867
577.106046	0.138260
577.318062	0.138083
577.530059	0.138449
577.742039	0.138372
577.954000	0.138666
578.165942	0.138650
578.377867	0.138654
578.589773	0.138390
578.801661	0.138042
579.013531	0.138042
579.225382	0.138094
579.437216	0.138122
579.649031	0.137940
579.860828	0.138124
580.072606	0.138156
580.284367	0.138203
580.496109	0.138199
580.707833	0.138436
580.919539	0.138438
581.131227	0.138802
581.342896	0.139157
581.554547	0.139418
581.766180	0.139244
581.977795	0.139396
582.189391	0.139360
582.400969	0.139449
582.612529	0.139502
582.824071	0.139464
583.035595	0.139417
583.247100	0.139097
583.458587	0.139186
583.670056	0.139493
583.881506	0.139750
584.092939	0.140029
584.304353	0.140514
584.515749	0.140527
584.727127	0.140828
584.938486	0.140960
585.149828	0.141242
585.361151	0.141132
585.572456	0.140895
585.783742	0.140843
585.995011	0.140985
586.206261	0.141004
586.417493	0.141268
586.628706	0.141409
586.839902	0.141380
587.051079	0.141349
587.262238	0.141283
587.473379	0.141667
587.684502	0.141730
587.895606	0.141858
588.106692	0.141892
588.317760	0.141997
588.528810	0.141900
588.739841	0.142463
588.950855	0.142798
589.161850	0.143037
589.372827	0.143126
589.583785	0.143075
589.794726	0.143260
590.005648	0.143060
590.216552	0.143056
590.427437	0.142750
590.638305	0.142090
590.849154	0.142119
591.059985	0.142166
591.270798	0.142085
591.481592	0.142554
591.692369	0.142369
591.903127	0.142717
592.113867	0.142887
592.324588	0.143331
592.535292	0.143700
592.745977	0.143780
592.956644	0.143915
593.167293	0.144285
593.377923	0.144018
593.588536	0.143844
593.799130	0.143678
594.009706	0.143549
594.220263	0.143406
594.430803	0.143449
594.641324	0.143242
594.851827	0.143275
595.062312	0.143185
595.272778	0.143492
595.483227	0.143620
595.693657	0.143725
595.904069	0.143635
596.114462	0.143879
596.324838	0.143882
596.535195	0.144130
596.745534	0.144150
596.955855	0.144155
597.166157	0.144384
597.376441	0.144515
597.586707	0.144995
597.796955	0.145144
598.007185	0.145001
598.217396	0.145276
598.427589	0.145492
598.637764	0.145683
598.847921	0.146071
599.058060	0.145595
599.268180	0.145746
599.478282	0.145680
599.688366	0.145825
599.898431	0.146204
600.108479	0.146245
600.318508	0.146265
600.528519	0.146409
600.738511	0.146384
600.948486	0.146734
601.158442	0.146952
601.368380	0.146946
601.578300	0.147057
601.788202	0.147040
601.998085	0.147117
602.207950	0.146996
602.417797	0.147172
602.627626	0.147242
602.837436	0.147313
603.047228	0.147216
603.257002	0.147033
603.466758	0.147162
603.676496	0.146939
603.886215	0.147036
604.095916	0.147297
604.305599	0.147252
604.515264	0.147286
604.724910	0.147342
604.934538	0.147369
605.144148	0.147604
605.353740	0.147796
605.563314	0.148083
605.772869	0.148007
605.982406	0.147930
606.191925	0.147928
606.401425	0.147910
606.610908	0.147923
606.820372	0.148260
607.029818	0.148172
607.239246	0.148375
607.448655	0.148566
607.658047	0.148843
607.867420	0.149041
608.076775	0.148846
608.286111	0.148939
608.495430	0.149146
608.704730	0.149026
608.914012	0.149490
609.123275	0.149320
609.332521	0.149175
609.541748	0.148983
609.750957	0.148798
609.960148	0.148865
610.169321	0.148760
610.378475	0.148486
610.587611	0.148707
610.796729	0.148725
611.005829	0.148664
611.214910	0.148644
611.423974	0.148845
611.633019	0.149033
611.842045	0.149339
612.051054	0.149456
612.260044	0.149744
612.469017	0.149817
612.677970	0.149721
612.886906	0.150223
613.095824	0.150555
613.304723	0.150556
613.513604	0.150858
613.722467	0.151086
613.931311	0.151147
614.140138	0.150925
614.348946	0.150766
614.557736	0.150620
614.766507	0.150536
614.975261	0.150418
615.183996	0.150399
615.392713	0.150361
615.601412	0.150408
615.810092	0.150624
616.018754	0.150972
616.227399	0.151104
616.436024	0.151533
616.644632	0.151443
616.853222	0.151555
617.061793	0.151585
617.270346	0.151570
617.478880	0.151405
617.687397	0.151339
617.895895	0.151251
618.104375	0.151228
618.312837	0.151248
618.521281	0.151259
618.729706	0.151512
618.938113	0.151735
619.146502	0.151626
619.354873	0.151634
619.563226	0.151739
619.771560	0.151866
619.979876	0.152024
620.188174	0.151714
620.396453	0.151470
620.604715	0.151238
620.812958	0.151306
621.021183	0.151359
621.229390	0.151680
621.437578	0.151629
621.645748	0.151535
621.853900	0.151470
622.062034	0.151647
622.270150	0.152067
622.478247	0.152193
622.686326	0.152299
622.894387	0.152399
623.102430	0.152414
623.310454	0.152794
623.518461	0.153127
623.726449	0.153156
623.934418	0.153626
624.142370	0.153622
624.350303	0.153605
624.558218	0.153662
624.766115	0.153705
624.973994	0.153403
625.181855	0.153006
625.389697	0.153112
625.597521	0.153460
625.805327	0.153480
626.013114	0.153542
626.220883	0.153711
626.428634	0.153807
626.636367	0.154239
626.844082	0.154648
627.051778	0.155317
627.259457	0.155399
627.467117	0.155275
627.674758	0.154872
627.882382	0.154929
628.089987	0.155039
628.297574	0.154842
628.505143	0.154540
628.712694	0.154663
628.920226	0.154437
629.127740	0.154417
629.335236	0.154510
629.542714	0.154687
629.750174	0.154847
629.957615	0.154923
630.165038	0.154807
630.372443	0.155099
630.579829	0.154983
630.787198	0.155017
630.994548	0.155027
631.201880	0.155145
631.409194	0.155453
631.616489	0.155394
631.823766	0.155602
632.031025	0.156051
632.238266	0.155947
632.445489	0.156163
632.652693	0.156349
632.859879	0.156678
633.067047	0.156750
633.274197	0.156631
633.481329	0.156993
633.688442	0.157019
633.895537	0.157085
634.102614	0.157374
634.309672	0.157368
634.516713	0.157439
634.723735	0.157113
634.930739	0.157132
635.137724	0.157282
635.344692	0.157168
635.551641	0.157183
635.758572	0.157294
635.965485	0.157137
636.172379	0.157120
636.379256	0.156979
636.586114	0.157076
636.792954	0.157246
636.999775	0.157238
637.206579	0.156959
637.413364	0.157060
637.620131	0.157147
637.826880	0.157299
638.033610	0.157625
638.240323	0.157577
638.447017	0.157848
638.653692	0.157924
638.860350	0.158002
639.066990	0.158606
639.273611	0.158699
639.480214	0.158907
639.686798	0.158971
639.893365	0.158799
640.099913	0.159077
640.306443	0.159106
640.512955	0.159004
640.719449	0.158959
640.925924	0.158818
641.132381	0.158848
641.338820	0.158811
641.545241	0.159006
641.751644	0.159258
641.958028	0.159371
642.164394	0.159424
642.370742	0.159588
642.577071	0.159943
642.783383	0.159959
642.989676	0.159875
643.195951	0.159754
643.402207	0.159718
643.608446	0.159632
643.814666	0.159799
644.020868	0.159782
644.227052	0.160101
644.433218	0.160099
644.639365	0.160446
644.845494	0.160689
645.051605	0.160893
645.257698	0.160954
645.463772	0.161063
645.669828	0.161059
645.875866	0.161126
646.081886	0.160993
646.287888	0.160955
646.493871	0.160666
646.699836	0.160887
646.905783	0.160979
647.111712	0.161266
647.317622	0.161584
647.523514	0.161369
647.729388	0.161722
647.935244	0.162035
648.141082	0.162194
648.346901	0.162814
648.552702	0.162907
648.758485	0.162983
648.964250	0.162886
649.169996	0.162877
649.375724	0.163123
649.581434	0.163141
649.787126	0.163063
649.992800	0.163164
650.198455	0.163205
650.404092	0.163020
650.609711	0.163255
650.815311	0.163449
651.020894	0.163523
651.226458	0.163855
651.432004	0.163994
651.637532	0.164256
651.843041	0.164424
652.048532	0.164346
652.254006	0.164533
652.459460	0.164551
652.664897	0.164516
652.870315	0.164526
653.075716	0.164505
653.281097	0.164354
653.486461	0.164199
653.691807	0.164377
653.897134	0.164514
654.102443	0.164889
654.307734	0.165008
654.513006	0.165167
654.718261	0.165394
654.923497	0.165670
655.128715	0.166040
655.333915	0.166392
655.539096	0.166484
655.744259	0.166534
655.949404	0.166378
656.154531	0.166415
656.359640	0.166730
656.564730	0.166868
656.769802	0.167127
656.974856	0.167016
657.179892	0.166983
657.384909	0.166894
657.589908	0.166860
657.794889	0.166973
657.999852	0.167175
658.204797	0.167247
658.409723	0.167223
658.614631	0.167068
658.819521	0.167488
659.024393	0.167613
659.229246	0.167796
659.434081	0.167997
659.638898	0.168049
659.843697	0.168138
660.048478	0.168213
660.253240	0.168330
660.457984	0.168474
660.662710	0.168435
660.867417	0.168550
661.072107	0.168884
661.276778	0.169126
661.481431	0.169350
661.686066	0.169506
661.890682	0.169600
662.095281	0.169892
662.299861	0.169972
662.504422	0.170094
662.708966	0.170136
662.913491	0.170161
663.117999	0.170227
663.322488	0.170189
663.526958	0.170226
663.731411	0.170441
663.935845	0.170661
664.140261	0.170847
664.344659	0.171014
664.549038	0.171173
664.753400	0.171266
664.957743	0.171265
665.162068	0.171642
665.366375	0.171685
665.570663	0.171693
665.774933	0.171655
665.979185	0.171671
666.183419	0.171832
666.387635	0.171889
666.591832	0.171709
666.796011	0.171866
667.000172	0.171841
667.204315	0.172014
667.408439	0.172027
667.612545	0.171729
667.816634	0.171864
668.020703	0.171810
668.224755	0.171845
668.428788	0.172078
668.632803	0.171996
668.836800	0.172069
669.040779	0.172170
669.244739	0.172227
669.448681	0.172564
669.652605	0.172618
669.856511	0.172707
670.060399	0.172916
670.264268	0.173168
670.468119	0.173536
670.671952	0.173683
670.875767	0.173786
671.079563	0.173961
671.283341	0.173923
671.487101	0.174102
671.690843	0.174120
671.894567	0.174232
672.098272	0.174161
672.301959	0.174129
672.505628	0.174167
672.709278	0.174199
672.912911	0.174167
673.116525	0.174406
673.320121	0.174467
673.523699	0.174705
673.727258	0.174694
673.930799	0.174640
674.134322	0.174749
674.337827	0.174879
674.541314	0.175148
674.744782	0.175377
674.948232	0.175544
675.151664	0.175588
675.355078	0.175597
675.558474	0.175684
675.761851	0.175971
675.965210	0.176076
676.168551	0.175934
676.371873	0.175876
676.575178	0.176031
676.778464	0.176034
676.981732	0.176146
677.184981	0.176182
677.388213	0.176344
677.591426	0.176374
677.794621	0.176440
677.997798	0.176712
678.200956	0.176910
678.404097	0.177115
678.607219	0.177214
678.810323	0.177319
679.013408	0.177448
679.216476	0.177741
679.419525	0.177903
679.622556	0.177979
679.825569	0.178092
680.028563	0.178081
680.231540	0.177920
680.434498	0.177936
680.637438	0.177923
680.840359	0.177929
681.043263	0.177868
681.246148	0.177884
681.449015	0.177846
681.651864	0.178070
681.854694	0.178341
682.057506	0.178523
682.260301	0.178858
682.463076	0.179270
682.665834	0.179373
682.868573	0.179453
683.071295	0.179733
683.273998	0.179989
683.476682	0.179962
683.679349	0.179882
683.881997	0.179933
684.084627	0.179903
684.287239	0.179760
684.489833	0.180012
684.692408	0.180153
684.894965	0.180339
685.097504	0.180481
685.300025	0.180743
685.502527	0.180853
685.705012	0.180832
685.907478	0.181070
686.109925	0.181146
686.312355	0.180948
686.514766	0.180946
686.717159	0.180834
686.919534	0.180930
687.121891	0.180896
687.324230	0.181139
687.526550	0.181255
687.728852	0.181244
687.931136	0.181435
688.133401	0.181888
688.335649	0.182018
688.537878	0.182170
688.740089	0.182061
688.942281	0.182285
689.144456	0.182331
689.346612	0.182322
689.548750	0.182409
689.750870	0.182396
689.952971	0.182397
690.155055	0.182390
690.357120	0.182121
690.559167	0.182345
690.761195	0.182268
690.963206	0.182362
691.165198	0.182481
691.367172	0.182462
691.569128	0.182467
691.771065	0.182674
691.972984	0.182771
692.174885	0.183033
692.376768	0.183248
692.578633	0.183175
692.780479	0.183104
692.982308	0.183362
693.184118	0.183603
693.385909	0.183605
693.587683	0.183567
693.789438	0.183711
693.991175	0.184040
694.192894	0.183920
694.394595	0.184089
694.596277	0.184213
694.797941	0.184260
694.999587	0.184489
695.201215	0.184654
695.402824	0.184821
695.604416	0.184883
695.805989	0.184811
696.007543	0.184960
696.209080	0.184711
696.410598	0.184758
696.612099	0.184827
696.813580	0.184696
697.015044	0.184854
697.216490	0.184674
697.417917	0.184863
697.619326	0.184982
697.820717	0.184866
698.022089	0.185382
698.223444	0.185666
698.424780	0.185697
698.626098	0.185747
698.827397	0.185566
699.028679	0.185580
699.229942	0.185624
699.431187	0.185569
699.632414	0.185995
699.833622	0.185848
700.034813	0.185676
700.235985	0.185852
700.437139	0.185782
700.638274	0.185952
700.839392	0.186073
701.040491	0.185862
701.241572	0.186001
701.442635	0.185704
701.643679	0.185822
701.844706	0.185955
702.045714	0.185824
702.246704	0.186028
702.447675	0.186334
702.648629	0.186380
702.849564	0.186525
703.050481	0.186592
703.251380	0.186675
703.452260	0.186795
703.653122	0.186797
703.853966	0.186970
704.054792	0.186939
704.255600	0.186832
704.456389	0.187092
704.657160	0.187214
704.857913	0.187312
705.058648	0.187554
705.259365	0.187596
705.460063	0.187557
705.660743	0.187713
705.861405	0.187889
706.062048	0.187868
706.262674	0.187606
706.463281	0.187762
706.663870	0.187589
706.864441	0.187578
707.064993	0.187577
707.265527	0.187617
707.466043	0.187576
707.666541	0.187644
707.867021	0.187760
708.067482	0.188072
708.267925	0.188076
708.468350	0.188359
708.668757	0.188484
708.869145	0.188618
709.069516	0.188752
709.269868	0.188853
709.470201	0.188863
709.670517	0.188889
709.870814	0.188797
710.071093	0.188737
710.271354	0.188776
710.471597	0.188681
710.671821	0.188586
710.872028	0.188613
711.072216	0.188442
711.272385	0.188354
711.472537	0.188318
711.672670	0.188252
711.872785	0.188055
712.072882	0.187875
712.272961	0.187542
712.473021	0.187615
712.673063	0.187556
712.873087	0.187722
713.073093	0.187550
713.273081	0.187308
713.473050	0.187123
713.673001	0.187220
713.872934	0.187407
714.072849	0.187727
714.272745	0.187597
714.472623	0.187369
714.672483	0.186978
714.872325	0.186716
715.072148	0.186808
715.271954	0.187012
715.471741	0.186873
715.671509	0.186345
715.871260	0.186072
716.070992	0.186093
716.270707	0.186078
716.470403	0.186251
716.670080	0.186665
716.869740	0.186769
717.069381	0.186716
717.269004	0.186861
717.468609	0.187049
717.668195	0.186960
717.867764	0.186686
718.067314	0.186750
718.266846	0.186680
718.466360	0.186341
718.665855	0.186376
718.865332	0.186319
719.064791	0.185918
719.264232	0.185955
719.463655	0.186192
719.663059	0.186492
719.862445	0.186433
720.061813	0.186436
720.261163	0.186464
720.460494	0.186068
720.659807	0.186130
720.859102	0.186603
721.058379	0.186454
721.257638	0.186589
721.456878	0.186434
721.656100	0.186383
721.855304	0.186248
722.054490	0.186307
722.253657	0.186374
722.452806	0.186383
722.651937	0.185978
722.851050	0.186083
723.050145	0.185677
723.249221	0.185569
723.448279	0.185558
723.647319	0.185579
723.846340	0.185385
724.045344	0.185444
724.244329	0.185233
724.443296	0.185221
724.642245	0.185146
724.841175	0.185143
725.040088	0.185150
725.238982	0.185104
725.437857	0.185177
725.636715	0.185140
725.835554	0.185177
726.034376	0.184817
726.233179	0.184817
726.431963	0.184569
726.630730	0.184566
726.829478	0.184473
727.028208	0.184226
727.226920	0.183907
727.425614	0.184026
727.624289	0.183767
727.822946	0.184087
728.021585	0.184040
728.220206	0.184062
728.418808	0.183836
728.617392	0.183617
728.815958	0.183591
729.014506	0.183559
729.213036	0.183381
729.411547	0.183285
729.610040	0.183102
729.808515	0.183195
730.006972	0.183155
730.205410	0.183226
730.403831	0.183462
730.602233	0.183472
730.800616	0.183455
730.998982	0.183348
731.197329	0.183389
731.395658	0.183372
731.593969	0.183144
731.792262	0.182843
731.990536	0.182847
732.188793	0.182512
732.387031	0.182369
732.585250	0.182318
732.783452	0.182115
732.981635	0.182076
733.179800	0.182014
733.377947	0.181835
733.576076	0.182153
733.774186	0.182063
733.972278	0.181962
734.170352	0.181871
734.368408	0.181674
734.566446	0.181832
734.764465	0.181645
734.962466	0.181344
735.160449	0.181380
735.358413	0.181084
735.556360	0.180829
735.754288	0.180791
735.952198	0.180700
736.150090	0.180578
736.347963	0.180292
736.545818	0.180231
736.743655	0.180309
736.941474	0.179985
737.139275	0.179960
737.337057	0.179810
737.534821	0.179739
737.732567	0.179915
737.930295	0.179737
738.128005	0.179708
738.325696	0.179511
738.523369	0.179434
738.721024	0.179407
738.918660	0.179398
739.116279	0.179511
739.313879	0.179254
739.511461	0.178894
739.709024	0.178904
739.906570	0.178624
740.104097	0.178646
740.301606	0.178415
740.499097	0.178540
740.696569	0.178190
740.894024	0.177892
741.091460	0.177711
741.288878	0.177561
741.486277	0.177348
741.683659	0.177163
741.881022	0.176999
742.078367	0.177029
742.275694	0.176700
742.473002	0.176766
742.670293	0.176656
742.867565	0.176652
743.064819	0.176588
743.262054	0.176701
743.459272	0.176891
743.656471	0.176924
743.853652	0.176696
744.050815	0.176561
744.247959	0.176436
744.445085	0.176433
744.642194	0.176459
744.839283	0.176508
745.036355	0.176385
745.233408	0.176072
745.430444	0.175686
745.627461	0.175550
745.824459	0.175694
746.021440	0.175612
746.218402	0.175598
746.415346	0.175489
746.612272	0.175213
746.809180	0.175084
747.006069	0.175015
747.202940	0.174979
747.399793	0.174903
747.596628	0.174621
747.793444	0.174511
747.990243	0.174337
748.187023	0.174432
748.383784	0.174678
748.580528	0.174568
748.777253	0.174459
748.973960	0.174261
749.170649	0.174173
749.367320	0.174064
749.563973	0.173887
749.760607	0.173798
749.957223	0.173530
750.153821	0.173184
750.350400	0.173118
750.546962	0.173191
750.743505	0.173174
750.940030	0.172968
751.136536	0.172920
751.333025	0.172771
751.529495	0.172730
751.725947	0.172564
751.922381	0.172579
752.118796	0.172577
752.315194	0.172440
752.511573	0.172388
752.707934	0.172455
752.904276	0.172334
753.100601	0.172248
753.296907	0.172009
753.493195	0.171932
753.689465	0.171546
753.885716	0.171188
754.081949	0.170998
754.278164	0.170899
754.474361	0.170762
754.670540	0.170583
754.866700	0.170356
755.062843	0.170283
755.258967	0.169997
755.455072	0.169905
755.651160	0.169702
755.847229	0.169656
756.043280	0.169626
756.239313	0.169524
756.435328	0.169328
756.631324	0.169283
756.827302	0.169032
757.023262	0.169213
757.219204	0.169076
757.415127	0.169355
757.611033	0.169335
757.806920	0.168959
758.002788	0.168800
758.198639	0.168939
758.394471	0.168901
758.590286	0.168916
758.786081	0.168711
758.981859	0.168770
759.177619	0.168309
759.373360	0.168207
759.569083	0.168246
759.764788	0.168259
759.960474	0.168122
760.156143	0.167922
760.351793	0.167883
760.547425	0.167828
760.743038	0.167746
760.938634	0.167848
761.134211	0.167704
761.329770	0.167570
761.525311	0.167396
761.720833	0.167324
761.916338	0.167419
762.111824	0.167394
762.307292	0.167342
762.502741	0.167300
762.698173	0.167141
762.893586	0.167010
763.088981	0.167000
763.284358	0.166993
763.479716	0.166880
763.675057	0.166687
763.870379	0.166422
764.065683	0.166400
764.260968	0.166384
764.456236	0.166415
764.651485	0.166609
764.846716	0.166629
765.041929	0.166657
765.237123	0.166705
765.432299	0.166780
765.627457	0.166969
765.822597	0.166999
766.017719	0.166813
766.212822	0.166683
766.407907	0.166585
766.602974	0.166724
766.798023	0.166585
766.993054	0.166434
767.188066	0.166281
767.383060	0.166226
767.578036	0.165792
767.772993	0.165874
767.967933	0.165840
768.162854	0.165847
768.357757	0.165584
768.552642	0.165508
768.747508	0.165368
768.942356	0.165264
769.137186	0.165070
769.331998	0.165204
769.526792	0.164957
769.721567	0.164986
769.916324	0.164648
770.111063	0.164699
770.305784	0.164421
770.500486	0.164372
770.695171	0.164645
770.889837	0.164562
771.084484	0.164447
771.279114	0.164437
771.473725	0.164258
771.668318	0.164169
771.862893	0.164062
772.057450	0.164257
772.251988	0.164581
772.446509	0.164222
772.641011	0.164402
772.835494	0.164383
773.029960	0.164346
773.224407	0.164387
773.418836	0.164434
773.613247	0.164428
773.807640	0.164216
774.002014	0.164037
774.196370	0.164094
774.390708	0.163918
774.585028	0.163863
774.779330	0.163666
774.973613	0.163556
775.167878	0.163583
775.362125	0.163483
775.556354	0.163601
775.750564	0.163513
775.944756	0.163556
776.138930	0.163340
776.333086	0.163493
776.527223	0.163564
776.721343	0.163660
776.915444	0.163621
777.109526	0.163517
777.303591	0.163514
777.497637	0.163344
777.691666	0.163275
777.885676	0.163576
778.079667	0.163443
778.273641	0.163583
778.467596	0.163483
778.661533	0.163450
778.855452	0.163319
779.049352	0.163284
779.243235	0.163306
779.437099	0.163278
779.630945	0.163028
779.824773	0.162955
780.018582	0.162893
780.212373	0.163008
780.406146	0.162837
780.599901	0.162761
780.793638	0.162754
780.987356	0.162831
781.181056	0.162853
781.374738	0.163056
781.568402	0.163075
781.762047	0.162933
781.955674	0.162843
782.149283	0.162996
782.342874	0.163139
782.536447	0.163050
782.730001	0.162945
782.923537	0.163068
783.117055	0.162897
783.310555	0.162932
783.504036	0.163037
783.697499	0.163152
783.890944	0.163187
784.084371	0.163322
784.277780	0.163304
784.471170	0.163299
784.664542	0.163198
784.857896	0.163313
785.051231	0.163561
785.244549	0.163602
785.437848	0.163372
785.631129	0.163391
785.824392	0.163359
786.017636	0.163533
786.210863	0.163678
786.404071	0.163745
786.597260	0.163743
786.790432	0.163512
786.983585	0.163738
787.176721	0.163776
787.369838	0.163587
787.562936	0.163565
787.756017	0.163632
787.949079	0.163763
788.142123	0.163866
788.335149	0.163945
788.528156	0.163945
788.721146	0.163716
788.914117	0.164081
789.107070	0.164426
789.300005	0.164765
789.492921	0.164581
789.685819	0.164586
789.878699	0.164520
790.071561	0.164304
790.264405	0.164482
790.457230	0.164813
790.650037	0.164667
790.842826	0.164532
791.035597	0.164398
791.228349	0.164696
791.421084	0.164763
791.613800	0.164875
791.806497	0.165135
791.999177	0.164984
792.191838	0.164855
792.384481	0.164962
792.577106	0.165059
792.769713	0.165210
792.962301	0.165135
793.154871	0.165009
793.347423	0.165068
793.539957	0.165097
793.732473	0.165271
793.924970	0.165472
794.117449	0.165466
794.309910	0.165615
794.502353	0.165762
794.694777	0.165893
794.887183	0.166003
795.079571	0.165910
795.271941	0.166093
795.464293	0.166228
795.656626	0.166146
795.848941	0.166036
796.041238	0.166064
796.233516	0.166008
796.425777	0.166073
796.618019	0.166024
796.810243	0.166047
797.002449	0.166126
797.194636	0.166127
797.386805	0.166331
797.578956	0.166657
797.771089	0.166793
797.963204	0.166609
798.155300	0.166670
798.347378	0.167029
798.539438	0.167192
798.731480	0.167094
798.923503	0.167115
799.115509	0.166936
799.307496	0.166931
799.499465	0.166969
799.691415	0.167189
799.883348	0.167220
800.075262	0.167164
800.267158	0.167369
800.459035	0.167449
800.650895	0.167624
800.842736	0.167838
801.034559	0.168114
801.226364	0.168073
801.418150	0.168548
801.609919	0.168792
801.801669	0.168799
801.993401	0.168711
802.185114	0.168785
802.376810	0.169027
802.568487	0.169192
802.760146	0.169269
802.951787	0.169652
803.143409	0.169422
803.335014	0.169321
803.526600	0.169573
803.718168	0.170028
803.909717	0.170364
804.101249	0.170320
804.292762	0.170663
804.484257	0.170949
804.675734	0.171021
804.867192	0.171559
805.058632	0.172107
805.250054	0.172411
805.441458	0.172361
805.632844	0.172153
805.824211	0.172526
806.015561	0.172502
806.206891	0.172582
806.398204	0.172772
806.589499	0.172776
806.780775	0.172696
806.972033	0.172767
807.163273	0.172843
807.354495	0.173221
807.545698	0.173255
807.736883	0.173451
807.928050	0.173606
808.119199	0.173782
808.310329	0.173772
808.501441	0.173881
808.692535	0.173937
808.883611	0.173974
809.074669	0.174126
809.265708	0.174231
809.456729	0.174371
809.647732	0.174303
809.838717	0.174524
810.029683	0.174641
810.220632	0.174781
810.411562	0.174897
810.602474	0.175254
810.793367	0.175484
810.984242	0.175544
811.175100	0.175641
811.365938	0.175881
811.556759	0.175993
811.747562	0.176257
811.938346	0.176404
812.129112	0.176638
812.319860	0.176887
812.510589	0.176988
812.701300	0.177322
812.891994	0.177579
813.082668	0.177771
813.273325	0.177790
813.463964	0.177988
813.654584	0.177984
813.845186	0.178303
814.035769	0.178349
814.226335	0.178445
814.416882	0.178644
814.607411	0.178565
814.797922	0.178695
814.988415	0.178873
815.178889	0.178845
815.369345	0.179444
815.559783	0.179426
815.750203	0.179666
815.940605	0.180073
816.130988	0.180396
816.321353	0.180721
816.511700	0.181076
816.702028	0.181446
816.892339	0.181755
817.082631	0.181906
817.272905	0.182211
817.463161	0.182533
817.653398	0.182594
817.843617	0.182753
818.033819	0.182821
818.224001	0.182781
818.414166	0.182719
818.604312	0.183013
818.794440	0.183251
818.984550	0.183349
819.174642	0.183144
819.364716	0.183286
819.554771	0.183354
819.744808	0.183737
819.934827	0.183855
820.124827	0.184164
820.314810	0.184220
820.504774	0.184206
820.694720	0.184364
820.884647	0.184691
821.074557	0.185035
821.264448	0.185118
821.454321	0.185530
821.644176	0.185868
821.834012	0.185778
822.023831	0.186065
822.213631	0.186036
822.403413	0.185974
822.593176	0.186146
822.782922	0.186314
822.972649	0.186486
823.162358	0.186325
823.352049	0.186611
823.541721	0.187142
823.731376	0.187155
823.921012	0.187680
824.110629	0.187963
824.300229	0.188328
824.489811	0.188754
824.679374	0.189051
824.868919	0.189323
825.058445	0.189620
825.247954	0.189797
825.437444	0.190124
825.626916	0.190257
825.816370	0.190782
826.005806	0.190955
826.195223	0.190792
826.384622	0.190977
826.574003	0.191328
826.763366	0.191354
826.952711	0.191602
827.142037	0.191915
827.331345	0.192141
827.520635	0.192207
827.709906	0.192393
827.899160	0.192566
828.088395	0.192688
828.277612	0.192612
828.466810	0.192959
828.655991	0.193004
828.845153	0.193008
829.034297	0.193278
829.223423	0.193449
829.412531	0.193738
829.601620	0.194254
829.790691	0.194904
829.979744	0.195416
830.168779	0.195636
830.357795	0.195963
830.546793	0.196779
830.735773	0.197107
830.924735	0.197482
831.113679	0.197731
831.302604	0.198001
831.491511	0.197882
831.680400	0.198176
831.869271	0.198580
832.058123	0.198955
832.246957	0.199038
832.435773	0.199208
832.624571	0.199588
832.813351	0.200067
833.002112	0.200378
833.190855	0.200749
833.379580	0.200911
833.568287	0.200849
833.756975	0.201069
833.945645	0.201142
834.134297	0.201529
834.322931	0.201568
834.511547	0.201645
834.700144	0.202075
834.888723	0.202436
835.077284	0.202652
835.265826	0.203020
835.454351	0.203397
835.642857	0.203767
835.831345	0.203732
836.019815	0.204233
836.208266	0.204585
836.396699	0.204510
836.585114	0.204982
836.773511	0.205355
836.961890	0.205664
837.150250	0.206044
837.338592	0.206252
837.526916	0.206980
837.715222	0.207259
837.903510	0.207581
838.091779	0.207981
838.280030	0.208115
838.468263	0.208404
838.656477	0.208702
838.844674	0.208932
839.032852	0.209255
839.221012	0.209485
839.409153	0.210049
839.597277	0.210601
839.785382	0.210826
839.973469	0.210816
840.161538	0.211225
840.349589	0.211811
840.537621	0.212072
840.725635	0.212430
840.913631	0.212740
841.101609	0.212784
841.289568	0.212879
841.477509	0.213385
841.665432	0.213743
841.853337	0.213893
842.041224	0.213878
842.229092	0.214206
842.416942	0.214403
842.604774	0.214668
842.792588	0.214978
842.980383	0.215262
843.168160	0.215463
843.355919	0.216111
843.543660	0.216599
843.731382	0.217056
843.919087	0.217375
844.106773	0.217394
844.294441	0.217766
844.482090	0.217986
844.669722	0.218094
844.857335	0.218404
845.044930	0.218541
845.232507	0.218390
845.420065	0.218422
845.607605	0.218705
845.795127	0.219294
845.982631	0.219492
846.170117	0.220168
846.357584	0.220548
846.545033	0.220635
846.732464	0.221068
846.919877	0.221513
847.107272	0.221863
847.294648	0.222137
847.482006	0.222078
847.669346	0.222311
847.856667	0.222217
848.043971	0.222460
848.231256	0.222870
848.418523	0.222854
848.605771	0.223087
848.793002	0.223466
848.980214	0.223653
849.167408	0.224384
849.354584	0.224445
849.541742	0.224778
849.728881	0.225133
849.916002	0.225714
850.103105	0.226230
850.290190	0.226681
850.477256	0.227096
850.664304	0.227364
850.851334	0.227899
851.038346	0.228400
851.225340	0.228961
851.412315	0.229286
851.599272	0.229217
851.786211	0.229576
851.973132	0.230235
852.160034	0.230906
852.346918	0.231411
852.533784	0.231431
852.720632	0.232088
852.907462	0.232267
853.094273	0.232512
853.281066	0.233093
853.467841	0.233237
853.654598	0.233161
853.841336	0.233369
854.028056	0.233607
854.214758	0.233889
854.401442	0.233936
854.588107	0.234096
854.774755	0.234353
854.961384	0.234481
855.147995	0.235156
855.334587	0.235397
855.521162	0.235048
855.707718	0.235345
855.894256	0.235672
856.080775	0.235624
856.267277	0.235900
856.453760	0.236334
856.640225	0.236647
856.826672	0.236700
857.013101	0.237130
857.199511	0.237859
857.385903	0.238171
857.572277	0.238519
857.758633	0.238981
857.944970	0.239400
858.131290	0.239970
858.317591	0.240429
858.503873	0.240992
858.690138	0.241235
858.876384	0.241566
859.062612	0.241906
859.248822	0.242054
859.435014	0.242345
859.621188	0.242460
859.807343	0.242383
859.993480	0.242602
860.179599	0.242563
860.365699	0.243047
860.551781	0.243286
860.737846	0.243311
860.923891	0.243765
861.109919	0.244082
861.295929	0.244617
861.481920	0.245148
861.667893	0.245090
861.853848	0.245218
862.039784	0.245656
862.225702	0.245921
862.411603	0.246185
862.597484	0.246489
862.783348	0.246532
862.969193	0.246754
863.155021	0.246910
863.340830	0.247498
863.526620	0.248035
863.712393	0.247983
863.898147	0.248131
864.083883	0.248387
864.269601	0.248422
864.455301	0.249044
864.640982	0.249300
864.826645	0.249664
865.012290	0.249777
865.197917	0.249725
865.383526	0.249815
865.569116	0.250130
865.754688	0.250629
865.940242	0.250839
866.125777	0.251008
866.311295	0.251296
866.496794	0.251320
866.682275	0.251903
866.867737	0.252314
867.053182	0.252893
867.238608	0.253167
867.424016	0.253159
867.609406	0.253471
867.794778	0.253583
867.980131	0.253634
868.165466	0.253722
868.350783	0.253707
868.536082	0.253802
868.721362	0.253613
868.906625	0.253830
869.091869	0.254131
869.277094	0.254384
869.462302	0.254712
869.647491	0.254750
869.832662	0.255316
870.017815	0.255508
870.202950	0.255757
870.388066	0.256213
870.573165	0.256202
870.758245	0.256401
870.943306	0.256623
871.128350	0.256861
871.313375	0.257315
871.498382	0.257289
871.683371	0.257658
871.868342	0.257728
872.053294	0.257730
872.238229	0.257918
872.423144	0.258076
872.608042	0.258256
872.792922	0.258332
872.977783	0.258699
873.162626	0.259006
873.347451	0.258884
873.532258	0.259047
873.717046	0.259529
873.901816	0.260006
874.086568	0.260272
874.271302	0.260450
874.456017	0.260630
874.640715	0.260466
874.825394	0.260572
875.010055	0.260878
875.194697	0.260834
875.379322	0.260504
875.563928	0.260215
875.748516	0.260234
875.933085	0.259748
876.117637	0.260058
876.302170	0.260128
876.486685	0.259762
876.671182	0.260093
876.855661	0.260285
877.040121	0.260645
877.224563	0.261024
877.408987	0.260860
877.593393	0.261324
877.777780	0.261076
877.962150	0.261178
878.146501	0.261570
878.330833	0.261454
878.515148	0.261698
878.699444	0.261886
878.883722	0.261902
879.067982	0.262302
879.252224	0.262349
879.436447	0.262460
879.620653	0.262658
879.804840	0.262915
879.989008	0.262888
880.173159	0.263108
880.357291	0.263038
880.541405	0.263181
880.725501	0.263285
880.909579	0.263613
881.093638	0.263933
881.277680	0.264485
881.461703	0.264664
881.645707	0.264809
881.829694	0.264365
882.013662	0.264719
882.197612	0.264527
882.381544	0.264794
882.565458	0.264497
882.749353	0.264210
882.933230	0.263738
883.117089	0.263719
883.300930	0.263593
883.484753	0.264219
883.668557	0.264163
883.852343	0.264399
884.036111	0.264340
884.219861	0.264672
884.403592	0.264974
884.587305	0.265077
884.771000	0.264915
884.954677	0.264909
885.138335	0.264794
885.321976	0.265246
885.505598	0.265378
885.689201	0.265440
885.872787	0.265245
886.056354	0.265371
886.239904	0.265467
886.423434	0.265577
886.606947	0.265354
886.790442	0.265170
886.973918	0.264864
887.157376	0.264309
887.340816	0.264047
887.524237	0.264121
887.707641	0.264269
887.891026	0.264123
888.074393	0.263878
888.257741	0.263981
888.441072	0.264674
888.624384	0.264687
888.807678	0.265360
888.990954	0.265392
889.174211	0.265673
889.357451	0.265500
889.540672	0.265615
889.723875	0.265764
889.907059	0.266086
890.090226	0.265786
890.273374	0.265712
890.456504	0.265614
890.639616	0.265881
890.822709	0.265778
891.005785	0.265738
891.188842	0.265749
891.371881	0.266130
891.554901	0.265841
891.737904	0.265906
891.920888	0.265864
892.103854	0.265651
892.286802	0.265524
892.469731	0.265539
892.652643	0.265637
892.835536	0.265622
893.018410	0.264886
893.201267	0.265176
893.384106	0.265197
893.566926	0.265408
893.749728	0.265256
893.932511	0.265367
894.115277	0.265101
894.298024	0.264801
894.480753	0.264533
894.663464	0.265189
894.846157	0.265469
895.028831	0.265150
895.211487	0.264811
895.394125	0.264966
895.576745	0.264817
895.759346	0.265206
895.941930	0.264993
896.124495	0.265273
896.307041	0.265077
896.489570	0.264625
896.672080	0.264601
896.854573	0.263971
897.037046	0.263546
897.219502	0.263397
897.401940	0.262723
897.584359	0.263200
897.766760	0.262782
897.949143	0.262538
898.131507	0.262545
898.313854	0.262121
898.496182	0.262462
898.678492	0.262641
898.860783	0.262143
899.043057	0.262364
899.225312	0.261887
899.407549	0.261753
899.589768	0.261875
899.771968	0.261431
899.954151	0.262019
900.136315	0.262026
900.318461	0.261997
900.500588	0.261955
900.682698	0.261547
900.864789	0.261791
901.046862	0.261414
901.228917	0.260754
901.410953	0.260734
901.592971	0.259901
901.774972	0.259523
901.956953	0.259337
902.138917	0.259172
902.320862	0.259180
902.502790	0.258625
902.684699	0.258486
902.866589	0.258270
903.048462	0.258188
903.230316	0.257812
903.412152	0.257420
903.593970	0.257463
903.775770	0.257567
903.957551	0.257959
904.139314	0.257318
904.321059	0.257499
904.502786	0.257574
904.684494	0.256981
904.866185	0.256941
905.047857	0.257007
905.229510	0.256333
905.411146	0.256158
905.592763	0.255056
905.774363	0.255249
905.955943	0.254486
906.137506	0.253965
906.319051	0.254161
906.500577	0.254075
906.682085	0.253818
906.863575	0.253843
907.045046	0.253427
907.226500	0.253883
907.407935	0.253890
907.589352	0.254237
907.770750	0.254075
907.952131	0.253373
908.133493	0.252871
908.314837	0.252487
908.496163	0.252568
908.677470	0.252275
908.858760	0.251469
909.040031	0.250696
909.221284	0.250156
909.402518	0.249731
909.583735	0.249948
909.764933	0.249713
909.946113	0.249584
910.127275	0.248482
910.308418	0.247991
910.489544	0.248049
910.670651	0.248409
910.851740	0.248214
911.032810	0.247885
911.213863	0.247623
911.394897	0.247513
911.575913	0.247179
911.756911	0.247211
911.937890	0.246954
912.118851	0.246151
912.299794	0.245102
912.480719	0.244649
912.661626	0.244251
912.842514	0.243438
913.023384	0.242636
913.204236	0.242635
913.385070	0.242105
913.565886	0.241682
913.746683	0.241475
913.927462	0.241350
914.108223	0.240588
914.288965	0.240073
914.469690	0.239839
914.650396	0.239912
914.831084	0.239062
915.011754	0.238427
915.192405	0.237990
915.373038	0.236893
915.553653	0.236482
915.734250	0.236433
915.914829	0.236157
916.095389	0.234854
916.275931	0.234242
916.456455	0.234014
916.636961	0.233781
916.817448	0.233476
916.997917	0.233683
917.178368	0.233143
917.358801	0.232886
917.539216	0.232726
917.719612	0.233005
917.899990	0.232899
918.080350	0.232730
918.260692	0.232074
918.441015	0.231023
918.621320	0.230396
918.801607	0.229897
918.981876	0.228933
919.162127	0.228106
919.342359	0.227439
919.522573	0.226827
919.702769	0.225289
919.882947	0.225589
920.063106	0.225373
920.243247	0.225215
920.423370	0.224523
920.603475	0.224570
920.783562	0.224445
920.963630	0.224603
921.143680	0.223962
921.323712	0.223874
921.503725	0.223220
921.683721	0.223213
921.863698	0.222631
922.043657	0.222600
922.223598	0.221806
922.403520	0.221454
922.583424	0.220478
922.763311	0.220319
922.943178	0.220454
923.123028	0.219171
923.302859	0.218431
923.482673	0.217944
923.662467	0.217232
923.842244	0.216756
924.022003	0.215860
924.201743	0.216237
924.381465	0.215476
924.561169	0.214716
924.740854	0.214178
924.920522	0.213898
925.100171	0.212887
925.279802	0.212220
925.459414	0.211736
925.639009	0.211395
925.818585	0.210573
925.998143	0.209785
926.177683	0.208823
926.357205	0.208770
926.536708	0.208127
926.716193	0.208008
926.895660	0.208061
927.075109	0.207154
927.254539	0.206497
927.433951	0.205920
927.613345	0.205209
927.792721	0.205331
927.972079	0.204482
928.151418	0.204243
928.330739	0.203179
928.510042	0.201766
928.689327	0.201378
928.868593	0.200035
929.047841	0.198343
929.227071	0.197652
929.406283	0.196720
929.585476	0.195938
929.764652	0.194735
929.943809	0.194012
930.122948	0.193803
930.302068	0.193221
930.481171	0.193830
930.660255	0.193487
930.839321	0.192968
931.018369	0.192240
931.197398	0.192606
931.376409	0.192691
931.555402	0.192681
931.734377	0.192188
931.913334	0.191358
932.092272	0.189755
932.271192	0.190044
932.450094	0.189998
932.628978	0.189598
932.807844	0.188257
932.986691	0.186844
933.165520	0.185567
933.344331	0.184037
933.523123	0.183245
933.701898	0.182280
933.880654	0.180326
934.059392	0.179348
934.238111	0.178592
934.416813	0.176996
934.595496	0.176320
934.774161	0.175991
934.952808	0.176257
935.131437	0.174801
935.310047	0.174353
935.488639	0.173362
935.667213	0.172281
935.845769	0.171227
936.024306	0.171214
936.202825	0.170245
936.381326	0.169310
936.559809	0.168195
936.738274	0.168430
936.916720	0.168420
937.095148	0.167989
937.273558	0.167487
937.451950	0.167141
937.630323	0.166588
937.808678	0.166309
937.987015	0.165865
938.165334	0.165074
938.343635	0.163801
938.521917	0.162956
938.700181	0.162842
938.878427	0.162316
939.056655	0.161219
939.234864	0.159739
939.413055	0.158398
939.591228	0.157828
939.769383	0.156697
939.947519	0.156923
940.125638	0.155444
940.303738	0.154443
940.481820	0.153531
940.659883	0.153062
940.837929	0.152879
941.015956	0.152605
941.193965	0.152272
941.371955	0.151588
941.549928	0.150961
941.727882	0.150317
941.905818	0.149956
942.083736	0.149262
942.261636	0.147758
942.439517	0.146118
942.617380	0.145017
942.795225	0.142994
942.973052	0.143115
943.150860	0.142780
943.328651	0.141737
943.506423	0.141050
943.684176	0.140038
943.861912	0.139881
944.039629	0.140318
944.217328	0.139822
944.395009	0.139424
944.572672	0.138525
944.750317	0.136902
944.927943	0.137508
945.105551	0.136977
945.283141	0.135512
945.460712	0.134014
945.638265	0.131563
945.815801	0.130671
945.993317	0.131361
946.170816	0.129419
946.348297	0.128297
946.525759	0.127916
946.703203	0.126533
946.880629	0.125960
947.058036	0.125561
947.235425	0.126059
947.412797	0.124666
947.590149	0.123614
947.767484	0.123913
947.944800	0.123181
948.122099	0.121405
948.299379	0.121420
948.476640	0.119893
948.653884	0.119862
948.831109	0.119614
949.008316	0.120322
949.185505	0.118340
949.362676	0.117539
949.539828	0.118064
949.716962	0.118324
949.894078	0.116970
950.071176	0.118263
950.248256	0.116861
950.425317	0.115621
950.602360	0.114456
950.779385	0.112438
950.956391	0.111059
951.133380	0.109284
951.310350	0.107077
951.487302	0.106203
951.664235	0.104481
951.841151	0.104481
952.018048	0.104609
952.194927	0.103647
952.371788	0.104955
952.548631	0.105889
952.725455	0.103635
952.902261	0.103657
953.079049	0.102641
953.255819	0.102785
953.432570	0.101466
953.609303	0.100825
953.786018	0.100197
953.962715	0.099067
954.139394	0.097051
954.316054	0.097484
954.492696	0.097910
954.669320	0.097825
954.845926	0.097533
955.022513	0.096185
955.199083	0.096006
955.375634	0.095024
955.552166	0.095574
955.728681	0.093406
955.905177	0.093381
956.081655	0.092092
956.258115	0.090301
956.434557	0.090425
956.610980	0.090424
956.787385	0.089203
956.963772	0.091215
957.140141	0.089524
957.316492	0.090513
957.492824	0.090371
957.669138	0.088870
957.845434	0.088681
958.021712	0.086943
958.197971	0.086346
958.374212	0.084665
958.550435	0.082741
958.726640	0.081385
958.902826	0.079840
959.078995	0.080607
959.255145	0.082898
959.431277	0.083337
959.607390	0.083874
959.783486	0.083647
959.959563	0.085360
960.135622	0.086308
960.311662	0.086715
960.487685	0.089382
960.663689	0.087422
960.839675	0.083712
961.015643	0.083398
961.191593	0.084102
961.367524	0.083782
961.543437	0.083135
961.719332	0.079750
961.895209	0.082033
962.071067	0.077135
962.246907	0.076691
962.422730	0.077749
962.598533	0.076844
962.774319	0.076038
962.950086	0.075996
963.125835	0.075355
963.301566	0.076068
963.477279	0.073893
963.652973	0.078036
963.828650	0.079656
964.004308	0.080261
964.179947	0.081913
964.355569	0.081357
964.531172	0.080253
964.706757	0.081153
964.882324	0.081181
965.057873	0.081731
965.233403	0.081142
965.408916	0.081488
965.584410	0.080416
965.759885	0.080587
965.935343	0.080087
966.110782	0.080983
966.286203	0.079045
966.461606	0.080828
966.636991	0.079583
966.812357	0.077893
966.987705	0.075483
967.163035	0.076265
967.338347	0.075762
967.513641	0.074205
967.688916	0.075187
967.864173	0.076943
968.039412	0.074567
968.214632	0.074946
968.389835	0.074797
968.565019	0.075307
968.740185	0.076772
968.915333	0.075624
969.090462	0.077169
969.265573	0.076554
969.440667	0.077276
969.615741	0.079197
969.790798	0.080114
969.965836	0.080433
970.140856	0.080500
970.315858	0.077346
970.490842	0.078386
970.665808	0.079165
970.840755	0.079755
971.015684	0.079572
971.190595	0.079823
971.365487	0.080745
971.540362	0.081815
971.715218	0.083095
971.890056	0.085136
972.064875	0.084779
972.239677	0.084123
972.414460	0.082389
972.589225	0.081587
972.763972	0.079049
972.938700	0.079399
973.113411	0.080502
973.288103	0.080070
973.462777	0.080741
973.637432	0.082065
973.812070	0.081118
973.986689	0.081135
974.161290	0.082475
974.335873	0.083952
974.510437	0.081095
974.684984	0.079362
974.859512	0.078835
975.034022	0.076013
975.208513	0.075518
975.382987	0.076257
975.557442	0.077723
975.731879	0.077880
975.906298	0.076414
976.080698	0.077254
976.255080	0.077419
976.429445	0.078542
976.603790	0.080987
976.778118	0.080766
976.952427	0.081523
977.126719	0.081545
977.300992	0.079371
977.475246	0.080502
977.649483	0.081192
977.823701	0.081811
977.997901	0.081871
978.172083	0.083373
978.346247	0.083812
978.520392	0.083333
978.694519	0.083172
978.868628	0.084223
979.042719	0.085822
979.216791	0.085169
979.390845	0.084544
979.564882	0.083038
979.738899	0.081617
979.912899	0.079053
980.086880	0.079766
980.260843	0.079685
980.434788	0.079408
980.608715	0.078374
980.782623	0.079844
980.956514	0.083008
981.130386	0.081508
981.304240	0.080975
981.478075	0.083270
981.651892	0.083620
981.825692	0.083344
981.999472	0.085785
982.173235	0.087107
982.346980	0.086326
982.520706	0.084517
982.694414	0.086636
982.868104	0.086317
983.041775	0.085671
983.215428	0.082961
983.389064	0.084250
983.562680	0.082840
983.736279	0.080644
983.909860	0.080276
984.083422	0.079367
984.256966	0.078799
984.430491	0.079552
984.603999	0.080617
984.777488	0.081474
984.950959	0.079815
985.124412	0.079524
985.297847	0.081071
985.471263	0.081980
985.644661	0.081763
985.818041	0.082230
985.991403	0.083874
986.164747	0.083265
986.338072	0.083889
986.511379	0.085359
986.684668	0.084910
986.857938	0.083979
987.031191	0.082867
987.204425	0.082571
987.377641	0.084245
987.550839	0.083909
987.724018	0.085660
987.897179	0.086475
988.070322	0.086594
988.243447	0.085627
988.416554	0.086120
988.589642	0.086001
988.762712	0.088209
988.935764	0.088346
989.108798	0.085914
989.281813	0.085010
989.454811	0.083886
989.627790	0.082930
989.800751	0.083867
989.973693	0.085110
990.146617	0.084917
990.319524	0.084741
990.492412	0.083758
990.665281	0.083111
990.838133	0.084432
991.010966	0.085241
991.183781	0.086755
991.356578	0.086995
991.529356	0.088814
991.702117	0.090460
991.874859	0.088849
992.047583	0.086447
992.220288	0.087566
992.392976	0.085903
992.565645	0.083465
992.738296	0.080680
992.910929	0.082111
993.083543	0.078328
993.256139	0.077314
993.428718	0.077670
993.601277	0.080796
993.773819	0.081945
993.946342	0.081382
994.118848	0.084093
994.291335	0.083956
994.463803	0.081633
994.636254	0.082424
994.808686	0.082387
994.981100	0.082685
995.153496	0.080902
995.325874	0.079046
995.498233	0.079756
995.670574	0.078508
995.842897	0.079289
996.015202	0.080446
996.187488	0.081264
996.359757	0.082438
996.532007	0.084027
996.704239	0.084211
996.876452	0.087235
997.048648	0.089163
997.220825	0.091284
997.392984	0.091805
997.565124	0.089185
997.737247	0.088314
997.909351	0.086702
998.081437	0.083967
998.253505	0.086015
998.425554	0.084347
998.597586	0.082561
998.769599	0.081707
998.941594	0.081084
999.113571	0.082271
999.285529	0.081250
999.457469	0.080995
999.629391	0.080512
999.801295	0.079123
999.973181	0.079067
1000.145048	0.078272
1000.316897	0.077205
1000.488728	0.077814
1000.660541	0.076859
1000.832335	0.076820
1001.004111	0.077808
1001.175869	0.078835
1001.347609	0.078442
1001.519331	0.079312
1001.691034	0.079781
1001.862719	0.079876
1002.034386	0.080088
1002.206035	0.082403
1002.377665	0.085447
1002.549277	0.084708
1002.720871	0.084831
1002.892447	0.084968
1003.064004	0.084987
1003.235544	0.085939
1003.407065	0.086710
1003.578568	0.087062
1003.750052	0.085660
1003.921519	0.084036
1004.092967	0.084366
1004.264397	0.085427
1004.435809	0.085032
1004.607202	0.084772
1004.778577	0.085381
1004.949934	0.085542
1005.121273	0.086294
1005.292594	0.088892
1005.463896	0.089965
1005.635180	0.092785
1005.806446	0.092499
1005.977694	0.094380
1006.148923	0.093417
1006.320135	0.090676
1006.491328	0.090462
1006.662503	0.087720
1006.833659	0.084518
1007.004798	0.084343
1007.175918	0.081179
1007.347020	0.081390
1007.518103	0.080607
1007.689169	0.080420
1007.860216	0.081885
1008.031245	0.082237
1008.202256	0.084097
1008.373248	0.086210
1008.544223	0.084971
1008.715179	0.086181
1008.886117	0.084519
1009.057036	0.085389
1009.227938	0.086501
1009.398821	0.086262
1009.569686	0.086634
1009.740533	0.085938
1009.911361	0.084319
1010.082172	0.084841
1010.252964	0.085334
1010.423738	0.087563
1010.594493	0.087928
1010.765231	0.086402
1010.935950	0.086920
1011.106651	0.085933
1011.277334	0.087012
1011.447998	0.087818
1011.618645	0.087349
1011.789273	0.086027
1011.959882	0.084586
1012.130474	0.082245
1012.301048	0.083997
1012.471603	0.083469
1012.642140	0.083791
1012.812658	0.083399
1012.983159	0.082388
1013.153641	0.082791
1013.324105	0.084617
1013.494551	0.084880
1013.664979	0.086112
1013.835388	0.086192
1014.005779	0.085202
1014.176152	0.086457
1014.346507	0.083854
1014.516843	0.085201
1014.687162	0.085857
1014.857462	0.083926
1015.027744	0.084224
1015.198007	0.083264
1015.368252	0.082767
1015.538480	0.084468
1015.708689	0.083056
1015.878879	0.086224
1016.049052	0.084476
1016.219206	0.082784
1016.389342	0.082222
1016.559460	0.081210
1016.729559	0.080747
1016.899641	0.080388
1017.069704	0.078944
1017.239749	0.078400
1017.409775	0.077681
1017.579784	0.078684
1017.749774	0.079671
1017.919746	0.080436
1018.089700	0.080730
1018.259635	0.081078
1018.429553	0.080566
1018.599452	0.081196
1018.769333	0.080346
1018.939195	0.079716
1019.109040	0.080901
1019.278866	0.080648
1019.448674	0.081344
1019.618464	0.082047
1019.788235	0.082870
1019.957989	0.081988
1020.127724	0.081501
1020.297441	0.084244
1020.467139	0.085503
1020.636820	0.083611
1020.806482	0.083895
1020.976126	0.083736
1021.145752	0.084045
1021.315359	0.083031
1021.484948	0.084089
1021.654519	0.085680
1021.824072	0.082915
1021.993607	0.082290
1022.163123	0.085255
1022.332621	0.085773
1022.502101	0.085190
1022.671563	0.085315
1022.841007	0.086258
1023.010432	0.086062
1023.179839	0.085827
1023.349228	0.086812
1023.518598	0.086231
1023.687951	0.083051
1023.857285	0.083223
1024.026601	0.083495
1024.195899	0.081190
1024.365178	0.079835
1024.534439	0.081167
1024.703682	0.079819
1024.872907	0.078990
1025.042114	0.080626
1025.211302	0.080273
1025.380472	0.080850
1025.549624	0.081444
1025.718758	0.082321
1025.887873	0.082895
1026.056970	0.082674
1026.226049	0.084062
1026.395110	0.085501
1026.564153	0.083916
1026.733177	0.084613
1026.902183	0.082089
1027.071171	0.080441
1027.240141	0.080135
1027.409092	0.080850
1027.578026	0.080417
1027.746940	0.079926
1027.915837	0.079478
1028.084716	0.077506
1028.253576	0.078705
1028.422418	0.081962
1028.591242	0.083015
1028.760048	0.083104
1028.928835	0.082131
1029.097604	0.081534
1029.266355	0.080731
1029.435088	0.080477
1029.603803	0.083431
1029.772499	0.081782
1029.941177	0.079310
1030.109837	0.078741
1030.278478	0.079402
1030.447102	0.082000
1030.615707	0.082666
1030.784294	0.082177
1030.952863	0.082363
1031.121413	0.082174
1031.289945	0.082884
1031.458460	0.082329
1031.626955	0.082653
1031.795433	0.082573
1031.963892	0.080544
1032.132334	0.079561
1032.300756	0.079145
1032.469161	0.079354
1032.637548	0.078489
1032.805916	0.078770
1032.974266	0.078971
1033.142598	0.079510
1033.310911	0.079875
1033.479207	0.079976
1033.647484	0.078841
1033.815743	0.081090
1033.983983	0.082171
1034.152206	0.081236
1034.320410	0.081312
1034.488596	0.082476
1034.656764	0.081932
1034.824914	0.080110
1034.993045	0.080940
1035.161158	0.082377
1035.329253	0.081765
1035.497330	0.080429
1035.665388	0.080351
1035.833428	0.080215
1036.001450	0.078848
1036.169454	0.078436
1036.337440	0.080262
1036.505407	0.079584
1036.673356	0.079598
1036.841287	0.079854
1037.009200	0.079412
1037.177094	0.080280
1037.344970	0.081367
1037.512828	0.081894
1037.680668	0.081890
1037.848489	0.081826
1038.016293	0.081499
1038.184078	0.080968
1038.351845	0.080363
1038.519593	0.081374
1038.687324	0.082194
1038.855036	0.080275
1039.022730	0.080675
1039.190406	0.081038
1039.358063	0.081376
1039.525702	0.082592
1039.693323	0.083600
1039.860926	0.084245
1040.028511	0.085232
1040.196077	0.085154
1040.363625	0.085933
1040.531155	0.086194
1040.698667	0.085604
1040.866161	0.085589
1041.033636	0.083939
1041.201093	0.083602
1041.368532	0.084546
1041.535952	0.082042
1041.703355	0.082154
1041.870739	0.082099
1042.038105	0.080859
1042.205452	0.082086
1042.372782	0.082838
1042.540093	0.082657
1042.707386	0.083463
1042.874661	0.081340
1043.041918	0.082791
1043.209156	0.082323
1043.376376	0.082852
1043.543578	0.083070
1043.710762	0.082722
1043.877927	0.081895
1044.045074	0.082419
1044.212203	0.082074
1044.379314	0.081895
1044.546407	0.082520
1044.713481	0.081384
1044.880537	0.082101
1045.047575	0.081269
1045.214595	0.081324
1045.381596	0.080401
1045.548579	0.080491
1045.715544	0.078708
1045.882491	0.077601
1046.049420	0.076985
1046.216330	0.077680
1046.383222	0.076359
1046.550096	0.078738
1046.716951	0.077947
1046.883789	0.077193
1047.050608	0.077133
1047.217409	0.078225
1047.384192	0.078483
1047.550956	0.078758
1047.717703	0.080590
1047.884431	0.083278
1048.051140	0.083135
1048.217832	0.082790
1048.384505	0.085628
1048.551161	0.085441
1048.717798	0.086049
1048.884416	0.086538
1049.051017	0.086643
1049.217599	0.085878
1049.384163	0.082051
1049.550709	0.080926
1049.717237	0.082335
1049.883746	0.081307
1050.050237	0.081317
1050.216710	0.082522
1050.383165	0.084815
1050.549601	0.086015
1050.716019	0.084753
1050.882420	0.085509
1051.048801	0.086219
1051.215165	0.084809
1051.381510	0.083192
1051.547837	0.082505
1051.714146	0.081343
1051.880437	0.080263
1052.046709	0.078490
1052.212964	0.080209
1052.379200	0.080991
1052.545417	0.080156
1052.711617	0.082101
1052.877798	0.082717
1053.043961	0.084090
1053.210106	0.082676
1053.376233	0.082473
1053.542341	0.081858
1053.708432	0.080108
1053.874504	0.080596
1054.040557	0.080031
1054.206593	0.079685
1054.372610	0.077665
1054.538609	0.077621
1054.704590	0.079182
1054.870553	0.079171
1055.036497	0.079577
1055.202424	0.080472
1055.368331	0.078556
1055.534221	0.078353
1055.700093	0.077820
1055.865946	0.080725
1056.031781	0.077926
1056.197598	0.075165
1056.363397	0.074118
1056.529177	0.073405
1056.694939	0.073758
1056.860683	0.075930
1057.026409	0.076751
1057.192116	0.076738
1057.357806	0.074684
1057.523477	0.076250
1057.689130	0.079610
1057.854764	0.082196
1058.020381	0.082999
1058.185979	0.082456
1058.351559	0.082282
1058.517120	0.083579
1058.682664	0.084094
1058.848189	0.086115
1059.013696	0.088166
1059.179185	0.086588
1059.344656	0.085817
1059.510108	0.085233
1059.675542	0.084816
1059.840958	0.083869
1060.006356	0.082080
1060.171735	0.080601
1060.337096	0.079636
1060.502439	0.079542
1060.667764	0.079731
1060.833071	0.078358
1060.998359	0.078399
1061.163629	0.078288
1061.328881	0.079990
1061.494115	0.080029
1061.659330	0.080265
1061.824527	0.080088
1061.989706	0.079071
1062.154867	0.080302
1062.320010	0.083019
1062.485134	0.081356
1062.650240	0.082802
1062.815328	0.081916
1062.980398	0.083154
1063.145449	0.086312
1063.310482	0.085966
1063.475497	0.087150
1063.640494	0.085851
1063.805473	0.083275
1063.970433	0.084597
1064.135375	0.083789
1064.300299	0.083293
1064.465204	0.081855
1064.630092	0.078383
1064.794961	0.079705
1064.959812	0.079186
1065.124645	0.080542
1065.289459	0.082561
1065.454256	0.084583
1065.619034	0.084193
1065.783793	0.085734
1065.948535	0.086559
1066.113258	0.086999
1066.277964	0.087833
1066.442651	0.087211
1066.607319	0.084667
1066.771970	0.082314
1066.936602	0.081372
1067.101216	0.083433
1067.265812	0.082241
1067.430389	0.083279
1067.594949	0.082793
1067.759490	0.082449
1067.924013	0.081486
1068.088518	0.082909
1068.253004	0.084237
1068.417472	0.086638
1068.581922	0.084792
1068.746354	0.084272
1068.910768	0.085065
1069.075163	0.085009
1069.239540	0.086489
1069.403899	0.088557
1069.568240	0.088681
1069.732562	0.088905
1069.896866	0.086003
1070.061152	0.086200
1070.225420	0.085956
1070.389670	0.085276
1070.553901	0.086633
1070.718114	0.084943
1070.882309	0.085080
1071.046486	0.085926
1071.210644	0.085479
1071.374784	0.087652
1071.538906	0.087830
1071.703010	0.086627
1071.867096	0.086958
1072.031163	0.089102
1072.195212	0.089713
1072.359243	0.089256
1072.523256	0.090403
1072.687250	0.090424
1072.851226	0.087986
1073.015184	0.089390
1073.179124	0.090984
1073.343045	0.090900
1073.506949	0.089004
1073.670834	0.087436
1073.834701	0.087262
1073.998549	0.088352
1074.162380	0.087497
1074.326192	0.087784
1074.489986	0.084946
1074.653761	0.084686
1074.817519	0.083620
1074.981258	0.083824
1075.144979	0.085395
1075.308682	0.084707
1075.472367	0.081681
1075.636033	0.080218
1075.799681	0.079056
1075.963311	0.079616
1076.126923	0.081395
1076.290516	0.081466
1076.454092	0.080737
1076.617649	0.080558
1076.781187	0.080233
1076.944708	0.082672
1077.108210	0.085021
1077.271695	0.089209
1077.435160	0.091339
1077.598608	0.090258
1077.762038	0.088438
1077.925449	0.088465
1078.088842	0.088115
1078.252217	0.087932
1078.415573	0.086124
1078.578912	0.084055
1078.742232	0.082298
1078.905534	0.081707
1079.068817	0.083770
1079.232083	0.084705
1079.395330	0.084845
1079.558559	0.085069
1079.721770	0.084966
1079.884962	0.084213
1080.048136	0.086160
1080.211293	0.085593
1080.374430	0.085385
1080.537550	0.084732
1080.700651	0.087231
1080.863735	0.086710
1081.026800	0.087440
1081.189846	0.088231
1081.352875	0.087015
1081.515885	0.088900
1081.678877	0.090534
1081.841851	0.089564
1082.004807	0.088141
1082.167744	0.087169
1082.330663	0.088371
1082.493564	0.088042
1082.656447	0.087049
1082.819312	0.089838
1082.982158	0.087475
1083.144986	0.087489
1083.307796	0.085968
1083.470587	0.086275
1083.633361	0.087800
1083.796116	0.089210
1083.958853	0.087856
1084.121571	0.088409
1084.284272	0.088121
1084.446954	0.086971
1084.609618	0.086939
1084.772264	0.088222
1084.934892	0.089426
1085.097501	0.086649
1085.260092	0.083211
1085.422665	0.082895
1085.585220	0.082474
1085.747756	0.082364
1085.910274	0.084130
1086.072774	0.083467
1086.235256	0.084028
1086.397720	0.081605
1086.560165	0.082510
1086.722592	0.086595
1086.885001	0.087817
1087.047392	0.090327
1087.209764	0.087925
1087.372119	0.088982
1087.534455	0.087130
1087.696772	0.088906
1087.859072	0.091919
1088.021353	0.091156
1088.183616	0.087706
1088.345861	0.086962
1088.508088	0.088116
1088.670296	0.090327
1088.832486	0.089302
1088.994658	0.093305
1089.156812	0.089303
1089.318948	0.087879
1089.481065	0.088030
1089.643164	0.090202
1089.805245	0.090154
1089.967308	0.087191
1090.129352	0.086516
1090.291378	0.088015
1090.453386	0.084208
1090.615376	0.088502
1090.777347	0.089251
1090.939301	0.090048
1091.101236	0.090089
1091.263153	0.092192
1091.425051	0.093585
1091.586932	0.095814
1091.748794	0.093851
1091.910638	0.092612
1092.072463	0.090697
1092.234271	0.092558
1092.396060	0.092179
1092.557831	0.091498
1092.719584	0.090373
1092.881319	0.089903
1093.043035	0.088594
1093.204733	0.087503
1093.366413	0.091249
1093.528075	0.090877
1093.689718	0.086650
1093.851343	0.087787
1094.012950	0.086240
1094.174539	0.084583
1094.336110	0.085025
1094.497662	0.082552
1094.659196	0.086619
1094.820712	0.083958
1094.982210	0.083928
1095.143689	0.087069
1095.305151	0.085535
1095.466594	0.087615
1095.628018	0.088529
1095.789425	0.088571
1095.950813	0.094419
1096.112183	0.093368
1096.273535	0.096274
1096.434869	0.097446
1096.596184	0.096813
1096.757482	0.100149
1096.918761	0.100146
1097.080021	0.104255
1097.241264	0.105686
1097.402488	0.102389
1097.563694	0.102388
1097.724882	0.100744
1097.886052	0.104579
1098.047203	0.103161
1098.208336	0.100426
1098.369451	0.102084
1098.530548	0.098406
1098.691627	0.095637
1098.852687	0.096546
1099.013729	0.095850
1099.174753	0.097189
1099.335758	0.092451
1099.496746	0.092963
1099.657715	0.092373
1099.818666	0.089641
1099.979599	0.089260
1100.140513	0.090129
1100.301409	0.089349
1100.462287	0.089043
1100.623147	0.087856
1100.783989	0.085908
1100.944812	0.084488
1101.105617	0.086076
1101.266404	0.085807
1101.427173	0.088185
1101.587923	0.092078
1101.748656	0.093004
1101.909370	0.094697
1102.070066	0.093757
1102.230743	0.096440
1102.391403	0.097548
1102.552044	0.098377
1102.712667	0.095597
1102.873271	0.095572
1103.033858	0.091270
1103.194426	0.092335
1103.354976	0.090687
1103.515508	0.091942
1103.676021	0.094364
1103.836517	0.093821
1103.996994	0.095366
1104.157453	0.101738
1104.317893	0.099992
1104.478316	0.100660
1104.638720	0.101562
1104.799106	0.101338
1104.959474	0.100735
1105.119823	0.096502
1105.280155	0.098480
1105.440468	0.094262
1105.600763	0.091231
1105.761039	0.093982
1105.921298	0.097573
1106.081538	0.093884
1106.241760	0.096875
1106.401964	0.099550
1106.562149	0.100966
1106.722316	0.100854
1106.882465	0.103223
1107.042596	0.103592
1107.202709	0.099793
1107.362803	0.095233
1107.522879	0.093472
1107.682937	0.094019
1107.842977	0.091865
1108.002999	0.092760
1108.163002	0.093071
1108.322987	0.090158
1108.482954	0.095242
1108.642902	0.099673
1108.802833	0.104288
1108.962745	0.104324
1109.122639	0.099953
1109.282515	0.100214
1109.442372	0.098978
1109.602211	0.096435
1109.762032	0.098416
1109.921835	0.094061
1110.081620	0.090958
1110.241386	0.087595
1110.401134	0.091957
1110.560864	0.093775
1110.720576	0.092104
1110.880269	0.089996
1111.039945	0.092897
1111.199602	0.092843
1111.359240	0.093735
1111.518861	0.092535
1111.678463	0.091974
1111.838047	0.090973
1111.997613	0.087112
1112.157161	0.090465
1112.316690	0.091987
1112.476202	0.092294
1112.635695	0.092964
1112.795169	0.093723
1112.954626	0.096778
1113.114064	0.101840
1113.273484	0.100938
1113.432886	0.107362
1113.592270	0.104793
1113.751635	0.109177
1113.910983	0.105251
1114.070312	0.102180
1114.229622	0.097439
1114.388915	0.098048
1114.548189	0.089918
1114.707445	0.091725
1114.866683	0.091136
1115.025903	0.091347
1115.185104	0.089071
1115.344287	0.091025
1115.503452	0.096236
1115.662599	0.100264
1115.821727	0.099488
1115.980838	0.102294
1116.139930	0.102842
1116.299004	0.099240
1116.458059	0.104535
1116.617097	0.103345
1116.776116	0.106118
1116.935117	0.101739
1117.094099	0.102860
1117.253064	0.100742
1117.412010	0.099685
1117.570938	0.097203
1117.729848	0.100546
1117.888740	0.090959
1118.047613	0.091463
1118.206468	0.088104
1118.365305	0.093076
1118.524124	0.093616
1118.682924	0.095303
1118.841707	0.098979
1119.000471	0.097536
1119.159216	0.095724
1119.317944	0.095788
1119.476653	0.099260
1119.635344	0.102395
1119.794017	0.096893
1119.952672	0.092733
1120.111308	0.092173
1120.269927	0.092070
1120.428527	0.096508
1120.587108	0.094077
1120.745672	0.096220
1120.904217	0.095622
1121.062744	0.092732
1121.221253	0.092046
1121.379744	0.091304
1121.538216	0.092645
1121.696671	0.093667
1121.855107	0.089261
1122.013524	0.093895
1122.171924	0.095868
1122.330305	0.094559
1122.488668	0.097344
1122.647013	0.100945
1122.805340	0.104882
1122.963648	0.095196
1123.121938	0.092052
1123.280210	0.095942
1123.438464	0.097352
1123.596700	0.099848
1123.754917	0.097279
1123.913116	0.098684
1124.071297	0.102545
1124.229459	0.099139
1124.387604	0.104081
1124.545730	0.105752
1124.703838	0.100924
1124.861928	0.094783
1125.019999	0.093740
1125.178052	0.093772
1125.336088	0.092094
1125.494104	0.091504
1125.652103	0.093072
1125.810083	0.096666
1125.968045	0.093328
1126.125989	0.095202
1126.283915	0.097556
1126.441823	0.096980
1126.599712	0.097210
1126.757583	0.097290
1126.915436	0.096039
1127.073270	0.096078
1127.231087	0.097974
1127.388885	0.100260
1127.546665	0.102767
1127.704426	0.099926
1127.862170	0.104315
1128.019895	0.107938
1128.177602	0.098398
1128.335291	0.097788
1128.492961	0.096637
1128.650614	0.093602
1128.808248	0.096329
1128.965864	0.098783
1129.123461	0.099122
1129.281041	0.099096
1129.438602	0.101112
1129.596145	0.112917
1129.753670	0.114957
1129.911176	0.115862
1130.068665	0.117634
1130.226135	0.109296
1130.383587	0.102257
1130.541020	0.109281
1130.698436	0.109565
1130.855833	0.106728
1131.013212	0.107901
1131.170573	0.105513
1131.327915	0.106515
1131.485239	0.102913
1131.642545	0.107754
1131.799833	0.111881
1131.957103	0.108545
1132.114354	0.099558
1132.271588	0.101041
1132.428803	0.095628
1132.585999	0.095456
1132.743178	0.094717
1132.900338	0.100008
1133.057480	0.093179
1133.214604	0.090740
1133.371710	0.088384
1133.528797	0.087447
1133.685866	0.084934
1133.842917	0.090061
1133.999950	0.087464
1134.156964	0.091095
1134.313960	0.084912
1134.470938	0.093960
1134.627898	0.095432
1134.784840	0.098326
1134.941763	0.104400
1135.098668	0.108782
1135.255555	0.104643
1135.412424	0.104604
1135.569274	0.101771
1135.726107	0.104317
1135.882921	0.098650
1136.039716	0.101791
1136.196494	0.096466
1136.353253	0.095927
1136.509995	0.093555
1136.666717	0.090180
1136.823422	0.086107
1136.980109	0.083359
1137.136777	0.082781
1137.293427	0.087706
1137.450059	0.087613
1137.606672	0.094843
1137.763267	0.094755
1137.919844	0.097176
1138.076403	0.103098
1138.232944	0.103804
1138.389466	0.103021
1138.545971	0.104580
1138.702457	0.102474
1138.858924	0.100665
1139.015374	0.095695
1139.171805	0.096091
1139.328218	0.093193
1139.484613	0.096594
1139.640990	0.103970
1139.797348	0.103815
1139.953688	0.109996
1140.110010	0.112896
1140.266314	0.108223
1140.422600	0.107545
1140.578867	0.114146
1140.735116	0.116003
1140.891347	0.112381
1141.047559	0.108149
1141.203754	0.117670
1141.359930	0.108197
1141.516088	0.108425
1141.672228	0.110441
1141.828349	0.112246
1141.984452	0.105012
1142.140537	0.105399
1142.296604	0.098348
1142.452653	0.095892
1142.608683	0.092192
1142.764695	0.092884
1142.920689	0.091749
1143.076665	0.096108
1143.232622	0.099054
1143.388562	0.104041
1143.544483	0.099720
1143.700385	0.098807
1143.856270	0.108066
1144.012136	0.110381
1144.167985	0.116218
1144.323814	0.117595
1144.479626	0.120429
1144.635420	0.118651
1144.791195	0.115466
1144.946952	0.119849
1145.102691	0.126563
1145.258411	0.125138
1145.414113	0.120876
1145.569798	0.124623
1145.725463	0.122841
1145.881111	0.118795
1146.036741	0.120326
1146.192352	0.113558
1146.347945	0.104930
1146.503519	0.101382
1146.659076	0.091481
1146.814614	0.092036
1146.970134	0.084033
1147.125636	0.080667
1147.281120	0.077179
1147.436585	0.071977
1147.592032	0.079968
1147.747461	0.092087
1147.902872	0.095768
1148.058265	0.098558
1148.213639	0.094408
1148.368995	0.095159
1148.524333	0.097700
1148.679653	0.100806
1148.834954	0.106990
1148.990237	0.101836
1149.145502	0.096066
1149.300749	0.099430
1149.455977	0.099447
1149.611188	0.105032
1149.766380	0.113816
1149.921553	0.106258
1150.076709	0.101347
1150.231846	0.100044
1150.386966	0.102334
1150.542066	0.096739
1150.697149	0.095348
1150.852214	0.098665
1151.007260	0.094179
1151.162288	0.085302
1151.317298	0.089497
1151.472289	0.093745
1151.627263	0.092174
1151.782218	0.089937
1151.937155	0.093155
1152.092073	0.085227
1152.246974	0.078015
1152.401856	0.080836
1152.556720	0.080731
1152.711566	0.083254
1152.866393	0.081325
1153.021203	0.077621
1153.175994	0.079893
1153.330767	0.083225
1153.485521	0.093766
1153.640258	0.104736
1153.794976	0.110902
1153.949676	0.115485
1154.104358	0.115828
1154.259021	0.118499
1154.413667	0.126103
1154.568294	0.136845
1154.722903	0.132415
1154.877493	0.123505
1155.032066	0.122673
1155.186620	0.120079
1155.341156	0.116932
1155.495674	0.117313
1155.650173	0.107552
1155.804654	0.097381
1155.959118	0.086389
1156.113562	0.093896
1156.267989	0.096486
1156.422397	0.091352
1156.576788	0.092833
1156.731160	0.089592
1156.885513	0.095361
1157.039849	0.109874
1157.194166	0.120674
1157.348465	0.121480
1157.502746	0.122164
1157.657009	0.122187
1157.811253	0.115765
1157.965479	0.105733
1158.119687	0.110125
1158.273877	0.109059
1158.428048	0.101234
1158.582201	0.093039
1158.736337	0.093083
1158.890453	0.089002
1159.044552	0.084756
1159.198632	0.092898
1159.352694	0.087072
1159.506738	0.088988
1159.660764	0.081472
1159.814771	0.093815
1159.968761	0.090732
1160.122732	0.091539
1160.276685	0.092425
1160.430619	0.090047
1160.584535	0.086605
1160.738434	0.095903
1160.892313	0.094058
1161.046175	0.096843
1161.200019	0.083853
1161.353844	0.086850
1161.507651	0.086248
1161.661440	0.083820
1161.815210	0.095034
1161.968962	0.098465
1162.122697	0.100314
1162.276412	0.101863
1162.430110	0.107349
1162.583789	0.102755
1162.737451	0.100955
1162.891094	0.100881
1163.044718	0.108746
1163.198325	0.112906
1163.351913	0.110609
1163.505483	0.107999
1163.659035	0.100845
1163.812569	0.092148
1163.966084	0.097483
1164.119581	0.103509
1164.273060	0.100867
1164.426521	0.089387
1164.579964	0.079651
1164.733388	0.078744
1164.886794	0.082179
1165.040182	0.079335
1165.193551	0.084591
1165.346903	0.087905
1165.500236	0.095848
1165.653551	0.097819
1165.806848	0.098869
1165.960126	0.101701
1166.113386	0.109075
1166.266628	0.109552
1166.419852	0.110214
1166.573058	0.100219
1166.726245	0.097597
1166.879414	0.092505
1167.032565	0.096371
1167.185698	0.104873
1167.338812	0.101088
1167.491909	0.097797
1167.644987	0.098906
1167.798046	0.099526
1167.951088	0.116427
1168.104111	0.121718
1168.257117	0.106653
1168.410103	0.106178
1168.563072	0.098701
1168.716023	0.097528
1168.868955	0.097382
1169.021869	0.101005
1169.174765	0.103876
1169.327642	0.085175
1169.480501	0.078266
1169.633343	0.089796
1169.786165	0.075643
1169.938970	0.077404
1170.091757	0.075473
1170.244525	0.074852
1170.397275	0.068777
1170.550007	0.069102
1170.702720	0.072471
1170.855415	0.065158
1171.008092	0.074521
1171.160751	0.095011
1171.313392	0.100671
1171.466014	0.019429
1171.618619	0.203883
1171.771205	0.203883
1171.923772	0.203883
