sample name	sample
index	1019
start time	 04-19-2021  11:56:52 AM
880	0.587664
Peak Time (s)	100.035
Peak Height 	0.5877
calc peak height	100,103
Baseline Time (s)	9.035
Baseline Value 	-0.00515
subtract baseline	10,4
Abs	0.391244
Peak Time (s)	100.538
Peak Height 	0.3912
calc peak height	100,103
Baseline Time (s)	11.537
Baseline Value 	0.002834
subtract baseline	10,3
PK_550	0.206526
Peak Time (s)	100.538
Peak Height 	0.2065
calc peak height	100,103
Baseline Time (s)	9.536
Baseline Value 	2.1635E-4
subtract baseline	10,2
PK_880	0.362014
Peak Time (s)	101.536
Peak Height 	0.362
calc peak height	100,103
Baseline Time (s)	10.537
Baseline Value 	0.001782
subtract baseline	10,1


Time (s)	A880-A510	A880-A775	A880-A975	A880	I510	I775	I975	I880	
0.035500	-0.001751	-0.000565	-0.002069	0.002325	6558.298273	45869.344801	3962.924653	24265.648289
0.535500	-0.002973	0.000143	-0.003235	0.004981	6524.729330	45676.590761	3952.368533	24134.646342
1.036500	-0.001607	-0.000482	-0.003874	0.004354	6541.946941	45676.898014	3952.338477	24165.509005
1.539000	-0.005065	-0.000363	-0.002365	0.007634	6484.063259	45365.959733	3947.474847	24004.562247
2.036500	-0.001171	0.000046	-0.001314	0.001700	6568.783833	45991.995639	3966.760552	24296.577400
2.537500	-0.000132	-0.000513	0.001113	0.001148	6582.678923	45991.297343	3975.076903	24323.944395
3.040500	0.002014	-0.000071	0.001460	-0.000646	6617.313259	46214.269862	3981.095027	24413.156978
3.534000	-0.000794	0.000471	-0.002837	0.001483	6573.960900	46055.872074	3963.130599	24307.327344
4.035000	-0.001714	0.000073	-0.002858	0.001641	6564.565982	46000.519809	3962.633448	24299.509327
4.535500	0.000441	0.000264	0.000021	0.000737	6591.297684	46109.577349	3973.172372	24344.351873
5.036000	0.001111	0.001140	-0.000549	0.001203	6593.096991	46150.556226	3970.277360	24321.246852
5.536000	0.000354	0.001127	-0.000761	0.000964	6588.542817	46173.024326	3970.351741	24333.072961
6.036000	-0.001943	-0.000008	0.000948	-0.000236	6578.945225	46179.522639	3978.498364	24392.712740
6.537000	-0.001244	0.000093	-0.004869	0.000167	6581.538575	46149.343272	3961.145593	24372.678620
7.037000	-0.001469	0.000619	-0.001534	0.000411	6577.430164	46177.502770	3969.737450	24360.549328
7.540000	-0.002451	0.000859	0.000599	-0.000057	6572.950497	46248.287806	3977.016447	24383.826171
8.034000	0.000294	0.000574	-0.003122	-0.000016	6596.614824	46215.701592	3966.502174	24381.769197
8.535000	0.000578	0.000848	0.001125	0.000328	6596.093515	46208.717826	3977.413001	24364.684303
9.035000	-0.000398	-0.000066	-0.003735	0.000000	6590.409567	46150.158244	3964.755493	24380.988967
9.536000	-0.001453	0.000000	0.000073	-0.000109	6582.120508	46167.691707	3975.689163	24386.429229
10.035500	-0.002741	-0.000145	-0.005825	-0.000023	6570.121073	46144.643196	3959.026182	24382.137804
10.536500	0.000000	0.000820	0.000804	0.000057	6593.402582	46233.086245	3977.273397	24378.178715
11.036500	0.000842	-0.000231	-0.003807	-0.000572	6606.327735	46190.862205	3966.146795	24409.473485
11.536500	0.000134	0.001142	0.000000	0.000296	6592.471579	46241.228344	3974.347366	24366.258755
12.039500	-0.000489	0.000732	-0.004801	-0.000581	6594.705385	46287.969244	3963.409565	24409.911939
12.540000	0.000359	0.000823	-0.000677	-0.000340	6600.032209	46272.958259	3974.233171	24397.894881
13.035000	0.001982	-0.000052	-0.001172	-0.002825	6636.317232	46434.364619	3979.817696	24521.959483
13.535000	0.000312	-0.000003	-0.006386	-0.000758	6603.300627	46232.225056	3959.507031	24418.725713
14.035000	-0.000446	0.000325	-0.003682	0.001121	6580.175742	46077.486311	3961.791281	24325.315289
14.535500	-0.001486	0.000614	0.001968	0.002052	6562.974684	46013.480547	3974.941362	24279.152746
15.036500	-0.001800	0.000664	-0.005360	-0.000106	6579.062422	46233.641718	3960.543335	24386.256084
15.539000	-0.000638	-0.000071	0.001006	-0.001364	6600.277719	46286.041880	3981.836355	24448.954520
16.037000	-0.002106	0.000960	-0.001612	0.002536	6553.379612	45999.800529	3963.608298	24255.217438
16.539500	-0.002303	0.000773	0.000908	-0.000614	6579.106840	46295.476128	3979.449992	24411.571848
17.040000	0.000255	0.000521	-0.001197	-0.001102	6605.826634	46319.042319	3974.911530	24435.877749
17.534500	0.001738	0.000370	0.001567	-0.003262	6638.034275	46520.760205	3988.785743	24543.853908
18.035000	0.000316	0.000727	-0.001847	-0.000663	6602.499370	46295.794404	3971.864986	24414.015058
18.535500	-0.000884	-0.000092	0.001690	0.000294	6583.575291	46118.261262	3979.094011	24366.359586
19.035500	-0.000947	0.000864	-0.000097	0.000977	6577.048731	46145.515205	3972.172355	24332.459377
19.536000	-0.001154	0.000589	-0.004288	0.000665	6577.968963	46149.181772	3961.374450	24347.924459
20.036000	0.000883	0.001146	-0.001723	0.001297	6590.262181	46141.711088	3966.741617	24316.549762
20.536500	-0.000500	-0.000279	-0.002689	-0.000156	6590.882801	46144.564460	3968.100317	24388.768750
21.039500	-0.002090	-0.000063	0.000425	0.000314	6572.853311	46119.172346	3975.486901	24365.359011
21.537000	-0.001256	0.000894	0.001602	0.001066	6573.572204	46139.584193	3976.679109	24328.011716
22.037000	-0.000931	0.000343	-0.003286	0.000917	6577.714411	46099.495362	3963.455095	24335.406800
22.535000	-0.001112	0.000136	0.001108	0.000119	6583.102798	46158.448092	3977.951017	24375.048524
23.035500	-0.001141	0.000664	-0.003102	0.000608	6578.586371	46162.369855	3964.825139	24350.781429
23.535500	-0.001088	0.000563	-0.002215	0.000707	6578.176824	46142.426981	3967.016228	24345.854553
24.035500	-0.001044	0.000640	0.001443	0.000627	6579.264799	46158.044049	3977.466725	24349.823809
24.536000	0.000495	0.000623	-0.004997	0.000819	6591.060572	46137.229697	3958.988535	24340.293097
25.036000	-0.000846	0.000627	-0.002339	0.000599	6581.243854	46159.573448	3966.972729	24351.226078
25.538500	-0.001326	0.000076	-0.002115	0.000151	6580.955605	46149.219840	3968.842782	24373.458010
26.037000	-0.003375	0.000051	-0.003332	0.000690	6558.385380	46092.990621	3963.959011	24346.684207
26.537500	0.000150	0.000556	-0.001128	0.000619	6589.779214	46150.411224	3970.289461	24350.199640
27.037500	-0.001565	0.000281	-0.004847	0.001819	6564.314937	46003.553870	3956.640199	24290.706894
27.535000	-0.001357	0.000438	0.001703	0.000889	6574.232004	46111.762143	3977.459203	24336.800462
28.035500	-0.000239	0.000431	0.001144	-0.002034	6609.682618	46403.509277	3984.115802	24482.408930
28.535500	0.001565	0.000317	-0.001099	-0.000833	6615.004649	46271.734630	3974.431817	24422.465128
29.069000	-0.001258	0.000637	-0.000017	0.004243	6545.926742	45798.390959	3963.298072	24170.978176
29.536000	0.000084	0.001098	-0.000758	-0.000770	6601.397018	46343.561214	3975.210637	24419.312168
30.039500	-0.000067	0.000472	0.002504	0.000781	6586.459707	46125.959145	3980.015293	24342.177286
30.536500	-0.000379	0.000406	0.001054	-0.001508	6603.822331	46348.190721	3982.377607	24456.125020
31.037000	-0.003961	0.000007	0.000173	0.002934	6533.869548	45865.631359	3967.466575	24235.552200
31.537500	-0.000978	0.000075	-0.002577	0.001558	6571.714495	46009.044510	3963.646461	24303.655491
32.035000	-0.003059	0.000247	0.002101	0.001319	6555.664950	46049.841233	3977.369726	24315.455701
32.535000	0.000097	0.000411	-0.001815	-0.000629	6600.276336	46260.711437	3971.856500	24412.292733
33.040500	-0.001951	-0.000148	0.002214	0.003235	6548.655917	45820.498887	3972.318482	24220.681571
33.536000	0.001969	0.001102	0.003730	-0.000348	6614.284373	46301.668268	3986.657312	24398.282109
34.036000	-0.000505	0.000687	0.001063	0.001202	6578.947201	46105.432215	3974.787643	24321.289508
34.539000	0.000030	0.000523	0.000118	-0.000887	6601.950442	46297.703750	3977.997305	24425.154605
35.036500	-0.003154	0.000363	-0.002171	0.003476	6536.158098	45847.176612	3959.456009	24208.774426
35.536500	-0.000844	0.000218	-0.000510	0.001476	6573.589991	46031.383739	3969.623254	24307.675016
36.037000	-0.001225	0.001357	0.002476	0.002355	6562.604516	46057.288076	3975.515751	24264.155415
36.537000	-0.001398	-0.000110	0.000466	0.001171	6571.416118	46029.166225	3973.203098	24322.822869
37.035000	-0.004752	-0.000094	0.000068	0.002246	6532.981629	45923.854354	3969.089438	24269.569114
37.535500	-0.000287	0.001174	-0.002896	0.001734	6576.206514	46100.925078	3962.270633	24294.913702
38.036000	-0.001662	0.000457	-0.001284	0.001904	6562.735250	46012.626226	3966.277224	24286.488027
38.536000	-0.002519	0.000075	-0.001546	0.001453	6559.199582	46019.410259	3966.801796	24308.815040
39.039000	-0.000957	0.000088	-0.001080	0.000964	6577.080500	46069.423808	3969.463149	24333.101060
39.536500	-0.000984	0.000694	-0.003139	0.001641	6570.927715	46062.311226	3961.853492	24299.494166
40.036500	-0.001220	0.000807	0.001920	0.002413	6562.146796	45996.773371	3973.794615	24261.287889
40.537500	-0.000850	0.000064	-0.000712	0.001220	6575.772807	46041.571490	3969.774270	24320.398670
41.037500	0.000774	0.000510	0.000462	0.001483	6587.683554	46059.766518	3972.319911	24307.356581
41.535000	-0.001076	0.000312	-0.001641	0.001307	6573.047881	46057.660607	3966.944637	24316.099638
42.035500	-0.000103	0.000821	-0.000348	0.001572	6579.227940	46081.971090	3969.809352	24302.951966
42.535500	0.000382	0.001153	-0.000242	0.001786	6581.594654	46093.638325	3969.506337	24292.337926
43.035500	-0.000214	0.001373	-0.001139	0.001759	6576.626239	46118.358620	3967.085049	24293.692849
43.538500	0.000614	0.000855	0.003007	0.001377	6587.210567	46104.694770	3979.755262	24312.610615
44.036000	-0.001261	0.001473	-0.002755	0.002376	6562.108306	46066.752170	3960.883530	24263.110595
44.536500	-0.001555	0.000549	-0.001973	0.001049	6571.110082	46106.838292	3966.735920	24328.861616
45.036500	0.001633	0.001043	-0.000514	-0.002578	6631.032603	46519.653672	3980.974960	24509.619086
45.537000	0.000516	0.001644	0.002505	0.000164	6596.991514	46304.794615	3981.756500	24372.840484
46.037500	-0.001966	0.001150	0.001198	0.002920	6551.255147	45980.420251	3970.359022	24236.208319
46.535000	-0.000469	0.001329	-0.002264	-0.000203	6591.563205	46309.986022	3969.415897	24391.103849
47.035000	-0.001378	0.000640	-0.003992	0.004989	6538.425946	45724.882740	3950.265647	24134.233757
47.535500	0.000788	0.000646	0.002208	-0.000516	6605.360515	46272.903474	3982.835098	24406.680106
48.038500	-0.003616	-0.000084	-0.000496	0.004560	6522.816038	45695.835870	3961.092179	24155.365970
48.547000	0.001124	0.001834	-0.001504	0.000490	6599.467470	46291.087882	3969.600342	24356.619445
49.036500	-0.003121	0.000933	-0.000818	0.004842	6524.654724	45768.360732	3959.417915	24141.473201
49.536500	0.002405	0.001115	0.001488	0.000647	6609.355682	46203.532132	3977.537422	24348.841830
50.045000	-0.000870	0.001582	-0.001029	0.004572	6546.437378	45859.381686	3959.581791	24154.751088
50.537000	0.003010	0.001308	0.003161	-0.000228	6622.426639	46310.427071	3984.713705	24392.353007
51.037500	-0.003079	0.001141	0.000819	0.005008	6523.584240	45772.586617	3963.493258	24133.307305
51.535000	0.001636	0.001229	-0.000410	-0.001905	6625.099241	46470.607476	3979.373735	24475.940634
52.035500	-0.001881	0.000681	-0.000065	0.008491	6503.950309	45384.388314	3951.436889	23962.749061
52.538500	0.022536	-0.009460	0.027230	0.166572	5518.083060	31713.470260	3641.141529	17499.380480
53.035500	0.019600	-0.009556	0.002319	0.321413	4684.782639	23042.315889	3341.864874	13084.606251
53.536000	-0.034320	-0.016238	-0.058825	-0.052056	6752.769347	49882.793335	3956.354020	27131.864155
54.036500	-0.013991	-0.035074	-0.032157	-0.163401	8158.913733	61056.643743	4404.587155	34248.992887
54.537000	-0.004423	-0.062144	-0.015173	-0.217865	9013.034827	64848.715040	4699.011145	38453.785714
55.036500	0.007201	-0.018084	-0.001730	-0.143406	8173.753314	60654.909400	4444.615917	32832.914155
55.537000	0.015967	-0.012745	0.007570	-0.137355	8207.564160	60560.214793	4457.276284	32417.071556
56.035000	0.020293	-0.000735	0.016816	-0.109838	7925.477226	58534.774851	4387.278486	30597.483939
56.535000	0.034946	0.008497	0.024263	-0.092438	7893.043987	57496.642699	4350.366156	29504.934542
57.038500	0.047029	0.017871	0.039796	-0.060281	7662.197965	54702.000436	4290.569410	27597.475244
57.535000	0.064056	0.027971	0.056138	-0.006872	7270.078359	49777.397070	4165.204848	24725.549294
58.036000	0.079895	0.038774	0.073913	0.031500	7043.175231	46888.777905	4100.029144	22869.614323
58.536000	0.091455	0.046589	0.094358	0.089475	6611.318581	42081.373411	3988.937654	20358.937820
59.036500	0.107332	0.057915	0.102993	0.118331	6498.584700	40527.951631	3932.945789	19228.799397
59.537500	0.126195	0.067786	0.129952	0.161695	6294.741089	37728.816129	3889.394211	17665.605246
60.037000	0.141047	0.077055	0.143902	0.222078	5945.168287	33852.327221	3774.687503	15733.227730
60.537500	0.153341	0.084039	0.162533	0.239457	5908.359731	33118.217608	3777.621659	15225.063353
61.035000	0.172118	0.094408	0.177181	0.273869	5797.830208	31486.208410	3732.267421	14276.921300
61.538000	0.186437	0.104477	0.197367	0.318516	5594.444861	29292.009804	3678.917129	13153.597524
62.035500	0.204148	0.112462	0.217916	0.350985	5500.495529	27840.585296	3653.988819	12406.225346
62.536000	0.221197	0.121436	0.235177	0.378336	5436.780069	26803.700540	3633.414887	11818.594355
63.036000	0.232822	0.128795	0.251456	0.407393	5332.355750	25634.668826	3608.037659	11233.561909
63.536500	0.249666	0.136588	0.268408	0.425441	5325.298346	25102.184209	3605.896077	10889.409989
64.036500	0.258800	0.143314	0.281544	0.454769	5209.765229	23971.896993	3574.869927	10359.764192
64.537000	0.276523	0.152511	0.287770	0.473294	5205.289910	23522.363100	3552.065090	10043.195061
65.037000	0.281907	0.157335	0.299796	0.487958	5154.069057	23058.462648	3547.257285	9802.008196
65.535000	0.297154	0.162681	0.311695	0.506895	5134.006755	22434.782979	3534.571976	9502.341824
66.038000	0.300414	0.167733	0.319983	0.539188	4981.946364	21241.930976	3492.819599	9020.524857
66.535000	0.307368	0.170353	0.329858	0.545344	4985.989557	21092.516335	3499.137500	8932.669359
67.035500	0.305706	0.172368	0.330035	0.551858	4944.896349	20904.155137	3488.403837	8841.055619
67.536000	0.316386	0.176002	0.332132	0.544501	5036.595867	21367.791054	3504.475748	8944.630288
68.036500	0.316682	0.177499	0.341008	0.546330	5028.654249	21353.609525	3516.685457	8918.717032
68.536000	0.317262	0.178100	0.341362	0.550242	5011.488024	21212.829998	3510.496935	8863.662384
69.037000	0.316874	0.179374	0.338571	0.553687	4991.903007	21121.068725	3499.769813	8815.583192
69.536500	0.315815	0.180404	0.343015	0.552863	4990.701542	21199.385950	3508.820882	8827.039610
70.037500	0.322550	0.182534	0.341823	0.557767	5000.035540	21082.332027	3498.357544	8759.131361
70.538000	0.321576	0.185132	0.343430	0.558503	4991.317023	21160.822288	3499.843523	8749.003273
71.038000	0.326290	0.185922	0.353709	0.563995	4987.362618	20963.234870	3508.062874	8673.975507
71.536000	0.328454	0.187840	0.353230	0.563262	5002.120873	21074.362982	3508.502169	8683.932345
72.036000	0.326811	0.189065	0.354569	0.566146	4979.104094	21004.729266	3505.836840	8644.849069
72.536000	0.329203	0.188086	0.350258	0.564868	4997.749164	21017.288927	3500.634581	8662.141790
73.036000	0.330071	0.189254	0.352718	0.569380	4979.240165	20877.669802	3497.135366	8601.334615
73.536500	0.334392	0.192303	0.355289	0.569935	4998.368350	20981.689635	3500.572680	8593.897509
74.037000	0.331325	0.190467	0.355969	0.570982	4977.481125	20861.521341	3499.946443	8579.900602
74.537000	0.332203	0.192592	0.362460	0.572157	4975.973969	20900.983379	3509.081068	8564.214127
75.040500	0.333912	0.193126	0.362097	0.576570	4962.365647	20740.211521	3500.869153	8505.735972
75.535000	0.336179	0.194076	0.363111	0.573747	4988.058634	20896.588469	3507.460237	8543.074033
76.035500	0.337556	0.196362	0.364629	0.577343	4976.824981	20842.155656	3503.884747	8495.550731
76.535000	0.338959	0.195614	0.366290	0.576115	4990.154739	20862.080530	3508.860784	8511.731222
77.036000	0.338177	0.195653	0.365983	0.576079	4986.365209	20865.193913	3508.392328	8512.204389
77.536500	0.338671	0.194456	0.367810	0.574984	4994.442404	20860.956548	3513.456189	8526.678527
78.036500	0.339072	0.197437	0.364909	0.578149	4980.410601	20853.297612	3502.979699	8484.939158
78.537000	0.342012	0.199320	0.369200	0.579685	4987.525270	20867.725365	3507.719889	8464.794522
79.037000	0.343044	0.198827	0.372428	0.579301	4994.732876	20863.205264	3513.981140	8469.833961
79.540000	0.341146	0.198969	0.375314	0.580277	4980.136879	20828.591453	3517.312521	8457.054026
80.035000	0.345990	0.198232	0.367584	0.579855	5006.946596	20815.517482	3504.645011	8462.574873
80.535000	0.348018	0.200486	0.374652	0.581364	5009.604475	20846.388169	3514.259503	8442.853201
81.035500	0.349244	0.201980	0.374567	0.585185	4996.343790	20750.077773	3507.491118	8393.246545
81.536000	0.348242	0.201168	0.377410	0.581975	5007.621565	20849.359388	3518.007113	8434.890229
82.036000	0.349643	0.199397	0.372591	0.581091	5019.358197	20812.579735	3511.153898	8446.417096
82.536500	0.348639	0.201208	0.372590	0.582082	5009.114244	20846.610717	3509.436446	8433.505977
83.036500	0.347756	0.201356	0.378619	0.585573	4986.797731	20708.318769	3513.839436	8388.230812
83.536500	0.352556	0.201237	0.379548	0.583145	5023.794434	20803.712185	3519.704288	8419.682634
84.040000	0.351095	0.203171	0.376830	0.584486	5009.374627	20828.268581	3512.618842	8402.283940
84.537500	0.351725	0.203224	0.382432	0.584856	5010.707963	20815.112194	3521.762246	8397.493358
85.035000	0.348886	0.201344	0.373700	0.585567	4992.571059	20708.064837	3505.339087	8388.308571
85.535000	0.350131	0.203157	0.377110	0.583741	5008.256019	20858.610053	3514.401655	8411.940183
86.035000	0.352491	0.202033	0.377877	0.583332	5022.490792	20828.941315	3516.452624	8417.250316
86.535500	0.352261	0.202021	0.378447	0.583111	5022.447955	20837.655935	3517.835062	8420.124639
87.036500	0.351123	0.203675	0.381385	0.586982	4996.761093	20745.879628	3516.205968	8370.063558
87.537000	0.352831	0.203092	0.383168	0.583932	5021.148117	20847.990555	3524.687226	8409.462742
88.036500	0.353152	0.203676	0.375431	0.584528	5019.728563	20847.503912	3510.119179	8401.738156
88.540000	0.354118	0.202871	0.380161	0.583709	5028.947933	20848.087803	3519.790391	8412.355296
89.037500	0.349014	0.204354	0.375101	0.586801	4986.946845	20781.382020	3505.625645	8372.387828
89.537500	0.353286	0.203955	0.369227	0.583926	5023.527134	20884.117560	3500.482446	8409.539599
90.035000	0.354240	0.202917	0.379952	0.583806	5029.076889	20845.995533	3519.253425	8411.103489
90.535000	0.355091	0.205341	0.377620	0.584884	5027.902499	20901.950531	3513.299836	8397.135581
91.036000	0.352981	0.205135	0.376274	0.586898	5006.677617	20809.705490	3507.480291	8371.135210
91.536000	0.357409	0.204140	0.383138	0.585099	5038.798792	20843.028453	3522.577886	8394.349632
92.036500	0.353499	0.205064	0.380043	0.586003	5013.927467	20843.868656	3515.571244	8382.673687
92.536500	0.356479	0.205821	0.379520	0.586126	5028.661611	20870.259324	3514.446962	8381.097341
93.039500	0.357658	0.205501	0.382637	0.585711	5036.915886	20874.195150	3520.621506	8386.446340
93.537500	0.359316	0.206367	0.378555	0.585633	5045.942761	20913.468241	3513.624109	8387.449589
94.034500	0.355818	0.205048	0.385096	0.586660	5022.486049	20815.964446	3523.276609	8374.207585
94.535000	0.359580	0.206667	0.382985	0.586419	5043.229545	20893.229741	3519.989796	8377.315185
95.035000	0.355980	0.205836	0.383450	0.585312	5030.283542	20904.705336	3522.751211	8391.596052
95.538500	0.359022	0.205012	0.375595	0.585485	5045.181870	20863.235092	3508.747483	8389.360731
96.035500	0.360790	0.207697	0.384547	0.588248	5040.005051	20860.013401	3519.521942	8353.783771
96.535500	0.359540	0.204532	0.385664	0.584951	5050.672434	20865.507191	3527.299743	8396.268778
97.036500	0.355802	0.204880	0.384790	0.584866	5031.672266	20883.512502	3525.903173	8397.369338
97.539500	0.355310	0.205439	0.384495	0.585267	5027.051933	20890.065363	3524.674161	8392.179315
98.037000	0.357104	0.205820	0.382458	0.586832	5028.237835	20840.851551	3518.341835	8371.988838
98.537500	0.357105	0.205854	0.388564	0.585941	5032.855944	20879.302218	3530.690322	8383.484329
99.034500	0.358789	0.206088	0.382549	0.587959	5031.126154	20805.237758	3516.530688	8357.493254
99.535500	0.359933	0.206736	0.384834	0.586436	5044.978159	20895.391079	3523.211404	8377.096198
100.035500	0.357683	0.206441	0.376650	0.587664	5026.930784	20832.113787	3506.808833	8361.285277
100.538500	0.360967	0.206526	0.391244	0.586385	5050.635575	20888.785282	3534.678064	8377.751683
101.036000	0.361725	0.206063	0.382486	0.586412	5054.454651	20868.406082	3519.127644	8377.399893
101.536000	0.362014	0.205992	0.382334	0.586139	5057.402853	20876.811709	3519.339442	8380.928770
102.039500	0.360289	0.206328	0.383844	0.587205	5042.824346	20846.459581	3520.116317	8367.183637
102.540000	0.359565	0.206191	0.385597	0.586170	5044.445635	20883.787199	3525.025924	8380.524548
103.037000	0.361572	0.207904	0.386002	0.588027	5045.229006	20877.801749	3522.466461	8356.628284
103.540500	0.362977	0.207495	0.385780	0.586898	5058.470916	20907.772375	3524.064312	8371.143061
104.037000	0.361653	0.206836	0.383467	0.586028	5056.089774	20916.556978	3521.523250	8382.354112
104.535000	0.363483	0.207771	0.383416	0.586545	5062.971878	20933.987132	3520.525333	8375.686529
105.035500	0.358435	0.206916	0.382100	0.586152	5038.658374	20914.719098	3518.906533	8380.754182
105.536000	0.358447	0.206092	0.387101	0.584518	5047.230295	20948.504424	3530.618799	8401.876137
106.036000	0.361095	0.207718	0.387393	0.586373	5051.367710	20938.954215	3527.842648	8377.906750
106.538500	0.359589	0.207303	0.385491	0.586031	5045.298820	20935.930884	3525.083935	8382.321714
107.036500	0.360217	0.206124	0.387543	0.584781	5055.102297	20938.888846	3530.937133	8398.474290
107.539500	0.360966	0.207223	0.384832	0.585639	5054.533507	20948.930678	3524.612932	8387.380011
108.037500	0.361674	0.207620	0.389791	0.585805	5057.366439	20958.543510	3533.116586	8385.227413
108.537500	0.362000	0.207178	0.385901	0.585479	5060.783182	20953.711395	3526.783881	8389.440926
109.035000	0.361009	0.205574	0.387341	0.584952	5058.352187	20908.799219	3530.273491	8396.255091
109.605500	0.360070	0.208322	0.385726	0.586605	5044.813827	20954.495751	3524.486548	8374.921398
110.035500	0.363745	0.208260	0.385742	0.586110	5066.635070	20972.599610	3525.387844	8381.299394
110.541500	0.359339	0.205810	0.385548	0.583270	5058.416863	20988.889266	3530.077391	8418.059034
111.039000	0.363481	0.207281	0.390976	0.585571	5068.084318	20954.209189	3535.654704	8388.256169
111.535500	0.362199	0.209273	0.392377	0.585874	5059.759093	21024.892802	3537.623185	8384.347794
112.036500	0.361392	0.205966	0.379646	0.584925	5060.504518	20926.305290	3516.760664	8396.610585
112.544500	0.364335	0.209127	0.388167	0.586380	5068.319651	20997.554685	3529.203827	8377.811814
113.037000	0.360169	0.207061	0.382782	0.585079	5053.293454	20965.582611	3521.987419	8394.619516
