sample name	sample
index	1299
start time	 04-29-2021  03:41:37 PM


Wavelength (nm)	Absorbance
494.344910	NaN
494.563924	NaN
494.782919	NaN
495.001897	NaN
495.220856	0.038882
495.439797	0.067985
495.658719	0.044442
495.877624	0.250465
496.096510	0.122815
496.315378	0.089718
496.534227	0.131570
496.753059	0.029882
496.971872	-0.073603
497.190667	0.099984
497.409444	0.102301
497.628203	0.107695
497.846943	0.110558
498.065665	0.113028
498.284369	0.114190
498.503055	0.114402
498.721723	0.115275
498.940372	0.114664
499.159003	0.113865
499.377616	0.114297
499.596210	0.113334
499.814787	0.111733
500.033345	0.110903
500.251885	0.109024
500.470406	0.109144
500.688910	0.108094
500.907395	0.108541
501.125862	0.109002
501.344311	0.110390
501.562742	0.110525
501.781154	0.110715
501.999548	0.111013
502.217924	0.112294
502.436282	0.111807
502.654621	0.113656
502.872942	0.112751
503.091245	0.112930
503.309530	0.111463
503.527797	0.110818
503.746045	0.110129
503.964275	0.110555
504.182487	0.109918
504.400681	0.109364
504.618856	0.108048
504.837013	0.109218
505.055152	0.109097
505.273273	0.109090
505.491376	0.110097
505.709460	0.110314
505.927526	0.110220
506.145574	0.111296
506.363604	0.110732
506.581615	0.110579
506.799608	0.110230
507.017583	0.111168
507.235540	0.110405
507.453478	0.109852
507.671399	0.109159
507.889301	0.110190
508.107185	0.109868
508.325050	0.111728
508.542898	0.111749
508.760727	0.111354
508.978538	0.110939
509.196330	0.112594
509.414105	0.113032
509.631861	0.114180
509.849599	0.112359
510.067319	0.111306
510.285021	0.110587
510.502704	0.111093
510.720369	0.110954
510.938016	0.110339
511.155645	0.109794
511.373255	0.109915
511.590848	0.109531
511.808422	0.110196
512.025977	0.110943
512.243515	0.110810
512.461034	0.110708
512.678536	0.111388
512.896018	0.112398
513.113483	0.111831
513.330930	0.111620
513.548358	0.112460
513.765768	0.112831
513.983160	0.112916
514.200533	0.112668
514.417889	0.112561
514.635226	0.113217
514.852545	0.113263
515.069845	0.114279
515.287128	0.113913
515.504392	0.113544
515.721638	0.112900
515.938866	0.112776
516.156075	0.113085
516.373267	0.113411
516.590440	0.112437
516.807594	0.112037
517.024731	0.111435
517.241850	0.111614
517.458950	0.111707
517.676032	0.112643
517.893095	0.113196
518.110141	0.114177
518.327168	0.113641
518.544177	0.113726
518.761168	0.114168
518.978141	0.113534
519.195095	0.114905
519.412031	0.115463
519.628949	0.115409
519.845849	0.114957
520.062731	0.114199
520.279594	0.114426
520.496439	0.115000
520.713266	0.115064
520.930074	0.115628
521.146865	0.114221
521.363637	0.113646
521.580391	0.113339
521.797127	0.113662
522.013844	0.114145
522.230543	0.114320
522.447224	0.114351
522.663887	0.113784
522.880532	0.114198
523.097158	0.114800
523.313766	0.115307
523.530356	0.115407
523.746928	0.115664
523.963481	0.115328
524.180017	0.115575
524.396534	0.115661
524.613032	0.116803
524.829513	0.116800
525.045975	0.117115
525.262420	0.116507
525.478845	0.116990
525.695253	0.116960
525.911643	0.117414
526.128014	0.117747
526.344367	0.118138
526.560702	0.117351
526.777018	0.117978
526.993316	0.117971
527.209597	0.119038
527.425858	0.119395
527.642102	0.119375
527.858328	0.119554
528.074535	0.119423
528.290724	0.119394
528.506894	0.119680
528.723047	0.119467
528.939181	0.119375
529.155297	0.119090
529.371395	0.118100
529.587475	0.118255
529.803536	0.118496
530.019579	0.118974
530.235604	0.118354
530.451611	0.118493
530.667600	0.118956
530.883570	0.119776
531.099522	0.119495
531.315456	0.120594
531.531372	0.120470
531.747269	0.120728
531.963148	0.120362
532.179009	0.121405
532.394852	0.121305
532.610676	0.121469
532.826482	0.120726
533.042271	0.121316
533.258040	0.121257
533.473792	0.121784
533.689525	0.121553
533.905240	0.121870
534.120937	0.121773
534.336616	0.122138
534.552277	0.121758
534.767919	0.122156
534.983543	0.122082
535.199149	0.122345
535.414736	0.122003
535.630306	0.121958
535.845857	0.121658
536.061390	0.121931
536.276904	0.122156
536.492401	0.122567
536.707879	0.122579
536.923339	0.123074
537.138781	0.123062
537.354204	0.123338
537.569610	0.123159
537.784997	0.123469
538.000366	0.123063
538.215716	0.122952
538.431049	0.122534
538.646363	0.122740
538.861659	0.123107
539.076937	0.122702
539.292196	0.123058
539.507438	0.124164
539.722661	0.124556
539.937866	0.125134
540.153052	0.125296
540.368221	0.126445
540.583371	0.126736
540.798503	0.126496
541.013617	0.127167
541.228712	0.126741
541.443789	0.126695
541.658848	0.126426
541.873889	0.126021
542.088912	0.126212
542.303916	0.125827
542.518902	0.125767
542.733870	0.125633
542.948820	0.125950
543.163752	0.126283
543.378665	0.125655
543.593560	0.126179
543.808437	0.126673
544.023295	0.126817
544.238136	0.126881
544.452958	0.127367
544.667762	0.126978
544.882548	0.126340
545.097315	0.126742
545.312064	0.127366
545.526795	0.127213
545.741508	0.126747
545.956203	0.127202
546.170879	0.127110
546.385537	0.127213
546.600177	0.127940
546.814799	0.128432
547.029402	0.128257
547.243988	0.128149
547.458555	0.128487
547.673103	0.128613
547.887634	0.127925
548.102146	0.128217
548.316640	0.128083
548.531116	0.128360
548.745574	0.128446
548.960013	0.128616
549.174435	0.129088
549.388838	0.128878
549.603222	0.129842
549.817589	0.130578
550.031937	0.130661
550.246267	0.130731
550.460579	0.130592
550.674873	0.130846
550.889148	0.131021
551.103405	0.130808
551.317644	0.131616
551.531865	0.131540
551.746068	0.131737
551.960252	0.131586
552.174418	0.132074
552.388566	0.132095
552.602696	0.132537
552.816807	0.132597
553.030900	0.132459
553.244975	0.131942
553.459032	0.131737
553.673070	0.131566
553.887091	0.132018
554.101093	0.131874
554.315077	0.132073
554.529042	0.131714
554.742990	0.131752
554.956919	0.132188
555.170830	0.132613
555.384722	0.132950
555.598597	0.132761
555.812453	0.132363
556.026291	0.132433
556.240111	0.132662
556.453913	0.132742
556.667696	0.132884
556.881461	0.132913
557.095208	0.132508
557.308937	0.132463
557.522647	0.132682
557.736339	0.132723
557.950013	0.132475
558.163669	0.132526
558.377307	0.132596
558.590926	0.132520
558.804527	0.132637
559.018110	0.132797
559.231675	0.132719
559.445221	0.133016
559.658749	0.133462
559.872259	0.133611
560.085751	0.133446
560.299225	0.133572
560.512680	0.133976
560.726117	0.133839
560.939536	0.133943
561.152937	0.134034
561.366319	0.134116
561.579683	0.134016
561.793029	0.134306
562.006357	0.134375
562.219667	0.134492
562.432958	0.134617
562.646231	0.134472
562.859486	0.134759
563.072723	0.134694
563.285941	0.135319
563.499141	0.135503
563.712323	0.135776
563.925487	0.135982
564.138632	0.136077
564.351760	0.136002
564.564869	0.136467
564.777960	0.136546
564.991032	0.137086
565.204087	0.136577
565.417123	0.136577
565.630141	0.136391
565.843140	0.136561
566.056122	0.136501
566.269085	0.136670
566.482030	0.136596
566.694957	0.136527
566.907866	0.136409
567.120756	0.136408
567.333628	0.136830
567.546482	0.137012
567.759318	0.136866
567.972135	0.137215
568.184935	0.137216
568.397716	0.137452
568.610478	0.137471
568.823223	0.137803
569.035949	0.137743
569.248657	0.137546
569.461347	0.137987
569.674019	0.138180
569.886672	0.138200
570.099308	0.138318
570.311925	0.138351
570.524523	0.138638
570.737104	0.138124
570.949666	0.138561
571.162210	0.138843
571.374736	0.138486
571.587244	0.138301
571.799733	0.138120
572.012205	0.138250
572.224658	0.138684
572.437092	0.138482
572.649509	0.138874
572.861907	0.138409
573.074287	0.138222
573.286649	0.138237
573.498993	0.138816
573.711318	0.139031
573.923625	0.139076
574.135914	0.138979
574.348185	0.139486
574.560438	0.139980
574.772672	0.140447
574.984888	0.140621
575.197086	0.140666
575.409266	0.140634
575.621427	0.140660
575.833570	0.140704
576.045695	0.140791
576.257802	0.140796
576.469890	0.140736
576.681961	0.140674
576.894013	0.140799
577.106046	0.141033
577.318062	0.140486
577.530059	0.140636
577.742039	0.140381
577.954000	0.140433
578.165942	0.139886
578.377867	0.139681
578.589773	0.140003
578.801661	0.139822
579.013531	0.139867
579.225382	0.140229
579.437216	0.140074
579.649031	0.140203
579.860828	0.140293
580.072606	0.140743
580.284367	0.141295
580.496109	0.141166
580.707833	0.141321
580.919539	0.141460
581.131227	0.141834
581.342896	0.142192
581.554547	0.142260
581.766180	0.142372
581.977795	0.142727
582.189391	0.142585
582.400969	0.142513
582.612529	0.142846
582.824071	0.142611
583.035595	0.142427
583.247100	0.142396
583.458587	0.142961
583.670056	0.142962
583.881506	0.142790
584.092939	0.142607
584.304353	0.142746
584.515749	0.142879
584.727127	0.143341
584.938486	0.143693
585.149828	0.143885
585.361151	0.143747
585.572456	0.143468
585.783742	0.143576
585.995011	0.144008
586.206261	0.144430
586.417493	0.144474
586.628706	0.144262
586.839902	0.144238
587.051079	0.144450
587.262238	0.144615
587.473379	0.144831
587.684502	0.144820
587.895606	0.144774
588.106692	0.144430
588.317760	0.144768
588.528810	0.144962
588.739841	0.144912
588.950855	0.144697
589.161850	0.144849
589.372827	0.145021
589.583785	0.145407
589.794726	0.145114
590.005648	0.145526
590.216552	0.145420
590.427437	0.145413
590.638305	0.145819
590.849154	0.145959
591.059985	0.145748
591.270798	0.146003
591.481592	0.145950
591.692369	0.146092
591.903127	0.146071
592.113867	0.146085
592.324588	0.146074
592.535292	0.146011
592.745977	0.146051
592.956644	0.146088
593.167293	0.146334
593.377923	0.146434
593.588536	0.146530
593.799130	0.146844
594.009706	0.147021
594.220263	0.147254
594.430803	0.147414
594.641324	0.147721
594.851827	0.147728
595.062312	0.147551
595.272778	0.148021
595.483227	0.148105
595.693657	0.148072
595.904069	0.147768
596.114462	0.147882
596.324838	0.147993
596.535195	0.147995
596.745534	0.148347
596.955855	0.148214
597.166157	0.147690
597.376441	0.148037
597.586707	0.148101
597.796955	0.148585
598.007185	0.148679
598.217396	0.148660
598.427589	0.148654
598.637764	0.148828
598.847921	0.149156
599.058060	0.149346
599.268180	0.149171
599.478282	0.149188
599.688366	0.149156
599.898431	0.149286
600.108479	0.149182
600.318508	0.149130
600.528519	0.148749
600.738511	0.148647
600.948486	0.148439
601.158442	0.148531
601.368380	0.148651
601.578300	0.148784
601.788202	0.148688
601.998085	0.148587
602.207950	0.148537
602.417797	0.148787
602.627626	0.148870
602.837436	0.149140
603.047228	0.149504
603.257002	0.149306
603.466758	0.148936
603.676496	0.148786
603.886215	0.149122
604.095916	0.149615
604.305599	0.149774
604.515264	0.149801
604.724910	0.149716
604.934538	0.149669
605.144148	0.149624
605.353740	0.149738
605.563314	0.150230
605.772869	0.150018
605.982406	0.149702
606.191925	0.149781
606.401425	0.150012
606.610908	0.150068
606.820372	0.149848
607.029818	0.150078
607.239246	0.150164
607.448655	0.149861
607.658047	0.150158
607.867420	0.150083
608.076775	0.150153
608.286111	0.150115
608.495430	0.150205
608.704730	0.150335
608.914012	0.150213
609.123275	0.150346
609.332521	0.150470
609.541748	0.150448
609.750957	0.150541
609.960148	0.150500
610.169321	0.150423
610.378475	0.150467
610.587611	0.150505
610.796729	0.150609
611.005829	0.150347
611.214910	0.150314
611.423974	0.150298
611.633019	0.150339
611.842045	0.150320
612.051054	0.150315
612.260044	0.150276
612.469017	0.150192
612.677970	0.150214
612.886906	0.150563
613.095824	0.150657
613.304723	0.150676
613.513604	0.150682
613.722467	0.150700
613.931311	0.150809
614.140138	0.151244
614.348946	0.151643
614.557736	0.151883
614.766507	0.152062
614.975261	0.152210
615.183996	0.152290
615.392713	0.152720
615.601412	0.152819
615.810092	0.152875
616.018754	0.152862
616.227399	0.152665
616.436024	0.152754
616.644632	0.152613
616.853222	0.152586
617.061793	0.152867
617.270346	0.152440
617.478880	0.152378
617.687397	0.152432
617.895895	0.152384
618.104375	0.152394
618.312837	0.152190
618.521281	0.152108
618.729706	0.152157
618.938113	0.151932
619.146502	0.152052
619.354873	0.152163
619.563226	0.151990
619.771560	0.151811
619.979876	0.151805
620.188174	0.151652
620.396453	0.151766
620.604715	0.151612
620.812958	0.151562
621.021183	0.151781
621.229390	0.151849
621.437578	0.152037
621.645748	0.152139
621.853900	0.152310
622.062034	0.152922
622.270150	0.153038
622.478247	0.153195
622.686326	0.153315
622.894387	0.153135
623.102430	0.153174
623.310454	0.152970
623.518461	0.153072
623.726449	0.152987
623.934418	0.152615
624.142370	0.152536
624.350303	0.152415
624.558218	0.152393
624.766115	0.152817
624.973994	0.152774
625.181855	0.153188
625.389697	0.153078
625.597521	0.152947
625.805327	0.153201
626.013114	0.153330
626.220883	0.153482
626.428634	0.153736
626.636367	0.153791
626.844082	0.153830
627.051778	0.153962
627.259457	0.154383
627.467117	0.154662
627.674758	0.154693
627.882382	0.154846
628.089987	0.155102
628.297574	0.155222
628.505143	0.155011
628.712694	0.155125
628.920226	0.154846
629.127740	0.154512
629.335236	0.154423
629.542714	0.154193
629.750174	0.154051
629.957615	0.153855
630.165038	0.153604
630.372443	0.153655
630.579829	0.153695
630.787198	0.154009
630.994548	0.154200
631.201880	0.154479
631.409194	0.154805
631.616489	0.154844
631.823766	0.154987
632.031025	0.155376
632.238266	0.155688
632.445489	0.155574
632.652693	0.155430
632.859879	0.155674
633.067047	0.155581
633.274197	0.155506
633.481329	0.155554
633.688442	0.155756
633.895537	0.155758
634.102614	0.155572
634.309672	0.155877
634.516713	0.155929
634.723735	0.155990
634.930739	0.156121
635.137724	0.156362
635.344692	0.156725
635.551641	0.156728
635.758572	0.156805
635.965485	0.156995
636.172379	0.157026
636.379256	0.157185
636.586114	0.157228
636.792954	0.157319
636.999775	0.157494
637.206579	0.157560
637.413364	0.157716
637.620131	0.157759
637.826880	0.157706
638.033610	0.157716
638.240323	0.157671
638.447017	0.157612
638.653692	0.157580
638.860350	0.157504
639.066990	0.157320
639.273611	0.157430
639.480214	0.157342
639.686798	0.157535
639.893365	0.157704
640.099913	0.157722
640.306443	0.157801
640.512955	0.157963
640.719449	0.157887
640.925924	0.158142
641.132381	0.158350
641.338820	0.158413
641.545241	0.158697
641.751644	0.158660
641.958028	0.158873
642.164394	0.159027
642.370742	0.159080
642.577071	0.159408
642.783383	0.159602
642.989676	0.159552
643.195951	0.159561
643.402207	0.159519
643.608446	0.159774
643.814666	0.159854
644.020868	0.160072
644.227052	0.160218
644.433218	0.160108
644.639365	0.160056
644.845494	0.160066
645.051605	0.160358
645.257698	0.160512
645.463772	0.160611
645.669828	0.160704
645.875866	0.160769
646.081886	0.160933
646.287888	0.161359
646.493871	0.161649
646.699836	0.161754
646.905783	0.161804
647.111712	0.161755
647.317622	0.161333
647.523514	0.161337
647.729388	0.161246
647.935244	0.161342
648.141082	0.161169
648.346901	0.161049
648.552702	0.160953
648.758485	0.161166
648.964250	0.161381
649.169996	0.162080
649.375724	0.162388
649.581434	0.162714
649.787126	0.162785
649.992800	0.162955
650.198455	0.163069
650.404092	0.163441
650.609711	0.163346
650.815311	0.163607
651.020894	0.163611
651.226458	0.163758
651.432004	0.163689
651.637532	0.163597
651.843041	0.163435
652.048532	0.163588
652.254006	0.163600
652.459460	0.163735
652.664897	0.163606
652.870315	0.163414
653.075716	0.163333
653.281097	0.163406
653.486461	0.163741
653.691807	0.164032
653.897134	0.164017
654.102443	0.163938
654.307734	0.163918
654.513006	0.163864
654.718261	0.164120
654.923497	0.164158
655.128715	0.164245
655.333915	0.163924
655.539096	0.164164
655.744259	0.164336
655.949404	0.164461
656.154531	0.164744
656.359640	0.164968
656.564730	0.165056
656.769802	0.165259
656.974856	0.165458
657.179892	0.165914
657.384909	0.166131
657.589908	0.166264
657.794889	0.166541
657.999852	0.166618
658.204797	0.166718
658.409723	0.166915
658.614631	0.166926
658.819521	0.167009
659.024393	0.167184
659.229246	0.167082
659.434081	0.166914
659.638898	0.167154
659.843697	0.167181
660.048478	0.167238
660.253240	0.167279
660.457984	0.167588
660.662710	0.167575
660.867417	0.167521
661.072107	0.167457
661.276778	0.167761
661.481431	0.167755
661.686066	0.167876
661.890682	0.167866
662.095281	0.168077
662.299861	0.168116
662.504422	0.168248
662.708966	0.168507
662.913491	0.168860
663.117999	0.169051
663.322488	0.168969
663.526958	0.168894
663.731411	0.169080
663.935845	0.168949
664.140261	0.169064
664.344659	0.169130
664.549038	0.169095
664.753400	0.169056
664.957743	0.169087
665.162068	0.169056
665.366375	0.169199
665.570663	0.169382
665.774933	0.169651
665.979185	0.169686
666.183419	0.169758
666.387635	0.169710
666.591832	0.169726
666.796011	0.169584
667.000172	0.169837
667.204315	0.170106
667.408439	0.170185
667.612545	0.170087
667.816634	0.169940
668.020703	0.169953
668.224755	0.170128
668.428788	0.170228
668.632803	0.170694
668.836800	0.170855
669.040779	0.170868
669.244739	0.170975
669.448681	0.171289
669.652605	0.171470
669.856511	0.171769
670.060399	0.171745
670.264268	0.171922
670.468119	0.171880
670.671952	0.171944
670.875767	0.172105
671.079563	0.172135
671.283341	0.172086
671.487101	0.172556
671.690843	0.172724
671.894567	0.172892
672.098272	0.172855
672.301959	0.173000
672.505628	0.172999
672.709278	0.173095
672.912911	0.172923
673.116525	0.173012
673.320121	0.172956
673.523699	0.172972
673.727258	0.173161
673.930799	0.173382
674.134322	0.173333
674.337827	0.173498
674.541314	0.173494
674.744782	0.173934
674.948232	0.173998
675.151664	0.173783
675.355078	0.173918
675.558474	0.173983
675.761851	0.174051
675.965210	0.174260
676.168551	0.174521
676.371873	0.174596
676.575178	0.174613
676.778464	0.174821
676.981732	0.175198
677.184981	0.175130
677.388213	0.175183
677.591426	0.175284
677.794621	0.175322
677.997798	0.175336
678.200956	0.175594
678.404097	0.175632
678.607219	0.175803
678.810323	0.175791
679.013408	0.175851
679.216476	0.176009
679.419525	0.176246
679.622556	0.176558
679.825569	0.176652
680.028563	0.176645
680.231540	0.176900
680.434498	0.176930
680.637438	0.177085
680.840359	0.177349
681.043263	0.177482
681.246148	0.177362
681.449015	0.177126
681.651864	0.177367
681.854694	0.177383
682.057506	0.177397
682.260301	0.177482
682.463076	0.177543
682.665834	0.177609
682.868573	0.177818
683.071295	0.178209
683.273998	0.178530
683.476682	0.178495
683.679349	0.178882
683.881997	0.179118
684.084627	0.179375
684.287239	0.179551
684.489833	0.179816
684.692408	0.179772
684.894965	0.179631
685.097504	0.179840
685.300025	0.179966
685.502527	0.179996
685.705012	0.179964
685.907478	0.179973
686.109925	0.180004
686.312355	0.179809
686.514766	0.179845
686.717159	0.179896
686.919534	0.179889
687.121891	0.179951
687.324230	0.179848
687.526550	0.179927
687.728852	0.179852
687.931136	0.179980
688.133401	0.180139
688.335649	0.180236
688.537878	0.180496
688.740089	0.180563
688.942281	0.180763
689.144456	0.180977
689.346612	0.181123
689.548750	0.181408
689.750870	0.181635
689.952971	0.181776
690.155055	0.182099
690.357120	0.182159
690.559167	0.182366
690.761195	0.182299
690.963206	0.182314
691.165198	0.182494
691.367172	0.182506
691.569128	0.182507
691.771065	0.182679
691.972984	0.182563
692.174885	0.182754
692.376768	0.182443
692.578633	0.182555
692.780479	0.182770
692.982308	0.182683
693.184118	0.182847
693.385909	0.182618
693.587683	0.182619
693.789438	0.182570
693.991175	0.182509
694.192894	0.182666
694.394595	0.182668
694.596277	0.182746
694.797941	0.182685
694.999587	0.182622
695.201215	0.182788
695.402824	0.182817
695.604416	0.183059
695.805989	0.183317
696.007543	0.183425
696.209080	0.183239
696.410598	0.183149
696.612099	0.183130
696.813580	0.183156
697.015044	0.183328
697.216490	0.183344
697.417917	0.183384
697.619326	0.183121
697.820717	0.183170
698.022089	0.183386
698.223444	0.183499
698.424780	0.183529
698.626098	0.183765
698.827397	0.183763
699.028679	0.183819
699.229942	0.183971
699.431187	0.184087
699.632414	0.184175
699.833622	0.184354
700.034813	0.184569
700.235985	0.184886
700.437139	0.184881
700.638274	0.185106
700.839392	0.185273
701.040491	0.185367
701.241572	0.185575
701.442635	0.185847
701.643679	0.185858
701.844706	0.185774
702.045714	0.185655
702.246704	0.185906
702.447675	0.185860
702.648629	0.185649
702.849564	0.185518
703.050481	0.185553
703.251380	0.185499
703.452260	0.185591
703.653122	0.185838
703.853966	0.186180
704.054792	0.185852
704.255600	0.185791
704.456389	0.186055
704.657160	0.186146
704.857913	0.186017
705.058648	0.185948
705.259365	0.185813
705.460063	0.185637
705.660743	0.185543
705.861405	0.185634
706.062048	0.185690
706.262674	0.185683
706.463281	0.185745
706.663870	0.185809
706.864441	0.185864
707.064993	0.185889
707.265527	0.185926
707.466043	0.185779
707.666541	0.185776
707.867021	0.186108
708.067482	0.186116
708.267925	0.186069
708.468350	0.186104
708.668757	0.186255
708.869145	0.186558
709.069516	0.186886
709.269868	0.187328
709.470201	0.187319
709.670517	0.187174
709.870814	0.187281
710.071093	0.187517
710.271354	0.187486
710.471597	0.187443
710.671821	0.187334
710.872028	0.187009
711.072216	0.186771
711.272385	0.186956
711.472537	0.186815
711.672670	0.186658
711.872785	0.186280
712.072882	0.186282
712.272961	0.186124
712.473021	0.185989
712.673063	0.186082
712.873087	0.186092
713.073093	0.186014
713.273081	0.186094
713.473050	0.185990
713.673001	0.186109
713.872934	0.186225
714.072849	0.186202
714.272745	0.186308
714.472623	0.186198
714.672483	0.186001
714.872325	0.185942
715.072148	0.185681
715.271954	0.185690
715.471741	0.185549
715.671509	0.185154
715.871260	0.185075
716.070992	0.184983
716.270707	0.184914
716.470403	0.185110
716.670080	0.185058
716.869740	0.185051
717.069381	0.185050
717.269004	0.185110
717.468609	0.185093
717.668195	0.185125
717.867764	0.185051
718.067314	0.184873
718.266846	0.184798
718.466360	0.184862
718.665855	0.185122
718.865332	0.185297
719.064791	0.185300
719.264232	0.185532
719.463655	0.185718
719.663059	0.185893
719.862445	0.186045
720.061813	0.186092
720.261163	0.186046
720.460494	0.185981
720.659807	0.185836
720.859102	0.185579
721.058379	0.185426
721.257638	0.185168
721.456878	0.184831
721.656100	0.184868
721.855304	0.184678
722.054490	0.184536
722.253657	0.184366
722.452806	0.184391
722.651937	0.184695
722.851050	0.184543
723.050145	0.184392
723.249221	0.184387
723.448279	0.184234
723.647319	0.184208
723.846340	0.184170
724.045344	0.184259
724.244329	0.184211
724.443296	0.183984
724.642245	0.184103
724.841175	0.184151
725.040088	0.184089
725.238982	0.183814
725.437857	0.183819
725.636715	0.183782
725.835554	0.183848
726.034376	0.183635
726.233179	0.183706
726.431963	0.183835
726.630730	0.184005
726.829478	0.184100
727.028208	0.184509
727.226920	0.184333
727.425614	0.184406
727.624289	0.184027
727.822946	0.184061
728.021585	0.183768
728.220206	0.183540
728.418808	0.183189
728.617392	0.183368
728.815958	0.183060
729.014506	0.183190
729.213036	0.182873
729.411547	0.182904
729.610040	0.183047
729.808515	0.183095
730.006972	0.183235
730.205410	0.183438
730.403831	0.183202
730.602233	0.183316
730.800616	0.182979
730.998982	0.183114
731.197329	0.182946
731.395658	0.182637
731.593969	0.182580
731.792262	0.182553
731.990536	0.182338
732.188793	0.182361
732.387031	0.182355
732.585250	0.182318
732.783452	0.182383
732.981635	0.182499
733.179800	0.182529
733.377947	0.182529
733.576076	0.182267
733.774186	0.182224
733.972278	0.182169
734.170352	0.181841
734.368408	0.181824
734.566446	0.181525
734.764465	0.181488
734.962466	0.181183
735.160449	0.180999
735.358413	0.180832
735.556360	0.180578
735.754288	0.180335
735.952198	0.180150
736.150090	0.179848
736.347963	0.179601
736.545818	0.179203
736.743655	0.178907
736.941474	0.178840
737.139275	0.178547
737.337057	0.178417
737.534821	0.178128
737.732567	0.178090
737.930295	0.177975
738.128005	0.177887
738.325696	0.177945
738.523369	0.178019
738.721024	0.177789
738.918660	0.178002
739.116279	0.177885
739.313879	0.177955
739.511461	0.177876
739.709024	0.177930
739.906570	0.177852
740.104097	0.177768
740.301606	0.177511
740.499097	0.177496
740.696569	0.177327
740.894024	0.177223
741.091460	0.177061
741.288878	0.176992
741.486277	0.176779
741.683659	0.176709
741.881022	0.176360
742.078367	0.176544
742.275694	0.176453
742.473002	0.176393
742.670293	0.176501
742.867565	0.176423
743.064819	0.176387
743.262054	0.176253
743.459272	0.176302
743.656471	0.176476
743.853652	0.176262
744.050815	0.176226
744.247959	0.175965
744.445085	0.175713
744.642194	0.175762
744.839283	0.175372
745.036355	0.175416
745.233408	0.175216
745.430444	0.175157
745.627461	0.175212
745.824459	0.175024
746.021440	0.175269
746.218402	0.175258
746.415346	0.175083
746.612272	0.175121
746.809180	0.175187
747.006069	0.175379
747.202940	0.175237
747.399793	0.175252
747.596628	0.175255
747.793444	0.174882
747.990243	0.174966
748.187023	0.174636
748.383784	0.174544
748.580528	0.174502
748.777253	0.174171
748.973960	0.173937
749.170649	0.173849
749.367320	0.173618
749.563973	0.173362
749.760607	0.173143
749.957223	0.173189
750.153821	0.172985
750.350400	0.172909
750.546962	0.172896
750.743505	0.172921
750.940030	0.172663
751.136536	0.172805
751.333025	0.172716
751.529495	0.172482
751.725947	0.172138
751.922381	0.172066
752.118796	0.171780
752.315194	0.171509
752.511573	0.171474
752.707934	0.171519
752.904276	0.171267
753.100601	0.171265
753.296907	0.171279
753.493195	0.171519
753.689465	0.171522
753.885716	0.171450
754.081949	0.171443
754.278164	0.171275
754.474361	0.171078
754.670540	0.171155
754.866700	0.171347
755.062843	0.171150
755.258967	0.170970
755.455072	0.170952
755.651160	0.170727
755.847229	0.170548
756.043280	0.170544
756.239313	0.170475
756.435328	0.170463
756.631324	0.170290
756.827302	0.170272
757.023262	0.170005
757.219204	0.169803
757.415127	0.169909
757.611033	0.170116
757.806920	0.169952
758.002788	0.169964
758.198639	0.169731
758.394471	0.169721
758.590286	0.169827
758.786081	0.170038
758.981859	0.169896
759.177619	0.169816
759.373360	0.169488
759.569083	0.169348
759.764788	0.169284
759.960474	0.169058
760.156143	0.168953
760.351793	0.169079
760.547425	0.169101
760.743038	0.168962
760.938634	0.168811
761.134211	0.168695
761.329770	0.168802
761.525311	0.168640
761.720833	0.168658
761.916338	0.168430
762.111824	0.168071
762.307292	0.167934
762.502741	0.168090
762.698173	0.168109
762.893586	0.168229
763.088981	0.168074
763.284358	0.168112
763.479716	0.168040
763.675057	0.168098
763.870379	0.167982
764.065683	0.167712
764.260968	0.167808
764.456236	0.167780
764.651485	0.167659
764.846716	0.167673
765.041929	0.167672
765.237123	0.167853
765.432299	0.167860
765.627457	0.167812
765.822597	0.168009
766.017719	0.167958
766.212822	0.167738
766.407907	0.167621
766.602974	0.167584
766.798023	0.167136
766.993054	0.166757
767.188066	0.166644
767.383060	0.166813
767.578036	0.166568
767.772993	0.166403
767.967933	0.166435
768.162854	0.166253
768.357757	0.166182
768.552642	0.166463
768.747508	0.166600
768.942356	0.166383
769.137186	0.166396
769.331998	0.166416
769.526792	0.166527
769.721567	0.166414
769.916324	0.166641
770.111063	0.166515
770.305784	0.166423
770.500486	0.166473
770.695171	0.166646
770.889837	0.166377
771.084484	0.166094
771.279114	0.165875
771.473725	0.165978
771.668318	0.165715
771.862893	0.165816
772.057450	0.165787
772.251988	0.165768
772.446509	0.165536
772.641011	0.165561
772.835494	0.165615
773.029960	0.165597
773.224407	0.165470
773.418836	0.165723
773.613247	0.165691
773.807640	0.165707
774.002014	0.165570
774.196370	0.165615
774.390708	0.165588
774.585028	0.165723
774.779330	0.165662
774.973613	0.165778
775.167878	0.165699
775.362125	0.165395
775.556354	0.165210
775.750564	0.165125
775.944756	0.165474
776.138930	0.165338
776.333086	0.165267
776.527223	0.165408
776.721343	0.165468
776.915444	0.165590
777.109526	0.166017
777.303591	0.166200
777.497637	0.166331
777.691666	0.165997
777.885676	0.166019
778.079667	0.166506
778.273641	0.166606
778.467596	0.166522
778.661533	0.166402
778.855452	0.166287
779.049352	0.166275
779.243235	0.166184
779.437099	0.166131
779.630945	0.166234
779.824773	0.166126
780.018582	0.165952
780.212373	0.166113
780.406146	0.166179
780.599901	0.166239
780.793638	0.166446
780.987356	0.166640
781.181056	0.166691
781.374738	0.166800
781.568402	0.166701
781.762047	0.166820
781.955674	0.166731
782.149283	0.166630
782.342874	0.166559
782.536447	0.166557
782.730001	0.166471
782.923537	0.166633
783.117055	0.166612
783.310555	0.166770
783.504036	0.166845
783.697499	0.167033
783.890944	0.167150
784.084371	0.167359
784.277780	0.167410
784.471170	0.167548
784.664542	0.167586
784.857896	0.167571
785.051231	0.167541
785.244549	0.167566
785.437848	0.167459
785.631129	0.167446
785.824392	0.167363
786.017636	0.167453
786.210863	0.167522
786.404071	0.167562
786.597260	0.167849
786.790432	0.167822
786.983585	0.167864
787.176721	0.168024
787.369838	0.168233
787.562936	0.168530
787.756017	0.168349
787.949079	0.168248
788.142123	0.168007
788.335149	0.168095
788.528156	0.168222
788.721146	0.168266
788.914117	0.168208
789.107070	0.168339
789.300005	0.168168
789.492921	0.168262
789.685819	0.168481
789.878699	0.168760
790.071561	0.168758
790.264405	0.168849
790.457230	0.168838
790.650037	0.169120
790.842826	0.169218
791.035597	0.169360
791.228349	0.169486
791.421084	0.169534
791.613800	0.169566
791.806497	0.169502
791.999177	0.169344
792.191838	0.169470
792.384481	0.169400
792.577106	0.169102
792.769713	0.168904
792.962301	0.168717
793.154871	0.168766
793.347423	0.168788
793.539957	0.168817
793.732473	0.168847
793.924970	0.168907
794.117449	0.168945
794.309910	0.169135
794.502353	0.169302
794.694777	0.169649
794.887183	0.169682
795.079571	0.170024
795.271941	0.170275
795.464293	0.170481
795.656626	0.170570
795.848941	0.170518
796.041238	0.170771
796.233516	0.170845
796.425777	0.170939
796.618019	0.171178
796.810243	0.171136
797.002449	0.171200
797.194636	0.171432
797.386805	0.171706
797.578956	0.171923
797.771089	0.172039
797.963204	0.172345
798.155300	0.172499
798.347378	0.172563
798.539438	0.172687
798.731480	0.172641
798.923503	0.172872
799.115509	0.172770
799.307496	0.173116
799.499465	0.173043
799.691415	0.172923
799.883348	0.173112
800.075262	0.173209
800.267158	0.173461
800.459035	0.173703
800.650895	0.173598
800.842736	0.173943
801.034559	0.173708
801.226364	0.173976
801.418150	0.174412
801.609919	0.174398
801.801669	0.174462
801.993401	0.174719
802.185114	0.174640
802.376810	0.174893
802.568487	0.174849
802.760146	0.175138
802.951787	0.175109
803.143409	0.174912
803.335014	0.175225
803.526600	0.175267
803.718168	0.175176
803.909717	0.175460
804.101249	0.175576
804.292762	0.176037
804.484257	0.176173
804.675734	0.176356
804.867192	0.176577
805.058632	0.176449
805.250054	0.176726
805.441458	0.176852
805.632844	0.176922
805.824211	0.176788
806.015561	0.176713
806.206891	0.176739
806.398204	0.176832
806.589499	0.176892
806.780775	0.177029
806.972033	0.177185
807.163273	0.177292
807.354495	0.177286
807.545698	0.177408
807.736883	0.177272
807.928050	0.177517
808.119199	0.177863
808.310329	0.178060
808.501441	0.178192
808.692535	0.178161
808.883611	0.178086
809.074669	0.178321
809.265708	0.178557
809.456729	0.178973
809.647732	0.179076
809.838717	0.179115
810.029683	0.179418
810.220632	0.179632
810.411562	0.179764
810.602474	0.180197
810.793367	0.180404
810.984242	0.180652
811.175100	0.180744
811.365938	0.180897
811.556759	0.181197
811.747562	0.181141
811.938346	0.181335
812.129112	0.181529
812.319860	0.181627
812.510589	0.181871
812.701300	0.182214
812.891994	0.182272
813.082668	0.182543
813.273325	0.182708
813.463964	0.183231
813.654584	0.183354
813.845186	0.183662
814.035769	0.183858
814.226335	0.184120
814.416882	0.184069
814.607411	0.184417
814.797922	0.184491
814.988415	0.184756
815.178889	0.184666
815.369345	0.184744
815.559783	0.184815
815.750203	0.185092
815.940605	0.185014
816.130988	0.185357
816.321353	0.185578
816.511700	0.186058
816.702028	0.186164
816.892339	0.186589
817.082631	0.187121
817.272905	0.187446
817.463161	0.187599
817.653398	0.188064
817.843617	0.188255
818.033819	0.188348
818.224001	0.188412
818.414166	0.188361
818.604312	0.188143
818.794440	0.188121
818.984550	0.188112
819.174642	0.188237
819.364716	0.188357
819.554771	0.188550
819.744808	0.188710
819.934827	0.188719
820.124827	0.189124
820.314810	0.189606
820.504774	0.190011
820.694720	0.190470
820.884647	0.190543
821.074557	0.190717
821.264448	0.190944
821.454321	0.191315
821.644176	0.191579
821.834012	0.191690
822.023831	0.192023
822.213631	0.192073
822.403413	0.192020
822.593176	0.192454
822.782922	0.192638
822.972649	0.192658
823.162358	0.192740
823.352049	0.193101
823.541721	0.193275
823.731376	0.193297
823.921012	0.193413
824.110629	0.193901
824.300229	0.194095
824.489811	0.194530
824.679374	0.194945
824.868919	0.195236
825.058445	0.195325
825.247954	0.195658
825.437444	0.196057
825.626916	0.196525
825.816370	0.196645
826.005806	0.196658
826.195223	0.196597
826.384622	0.196906
826.574003	0.197216
826.763366	0.197345
826.952711	0.197519
827.142037	0.197731
827.331345	0.197705
827.520635	0.197715
827.709906	0.198096
827.899160	0.198541
828.088395	0.198738
828.277612	0.198784
828.466810	0.199015
828.655991	0.198995
828.845153	0.199071
829.034297	0.199069
829.223423	0.199234
829.412531	0.199302
829.601620	0.199416
829.790691	0.199660
829.979744	0.199766
830.168779	0.199984
830.357795	0.200630
830.546793	0.200942
830.735773	0.201364
830.924735	0.201848
831.113679	0.202299
831.302604	0.202445
831.491511	0.202216
831.680400	0.202753
831.869271	0.202955
832.058123	0.202924
832.246957	0.202870
832.435773	0.203090
832.624571	0.203312
832.813351	0.203240
833.002112	0.203601
833.190855	0.204090
833.379580	0.204035
833.568287	0.204575
833.756975	0.204916
833.945645	0.205407
834.134297	0.205706
834.322931	0.205961
834.511547	0.206389
834.700144	0.206371
834.888723	0.206679
835.077284	0.206995
835.265826	0.207110
835.454351	0.207083
835.642857	0.207348
835.831345	0.207691
836.019815	0.207981
836.208266	0.208343
836.396699	0.208656
836.585114	0.208803
836.773511	0.209260
836.961890	0.209268
837.150250	0.209945
837.338592	0.209988
837.526916	0.210167
837.715222	0.210409
837.903510	0.210611
838.091779	0.211276
838.280030	0.211837
838.468263	0.212070
838.656477	0.212636
838.844674	0.212630
839.032852	0.213045
839.221012	0.213580
839.409153	0.213794
839.597277	0.213892
839.785382	0.213839
839.973469	0.213791
840.161538	0.213756
840.349589	0.214005
840.537621	0.214263
840.725635	0.214518
840.913631	0.214394
841.101609	0.214756
841.289568	0.215344
841.477509	0.215787
841.665432	0.216139
841.853337	0.216458
842.041224	0.216491
842.229092	0.217117
842.416942	0.217541
842.604774	0.218117
842.792588	0.218376
842.980383	0.218569
843.168160	0.218918
843.355919	0.219304
843.543660	0.220106
843.731382	0.220656
843.919087	0.220750
844.106773	0.221128
844.294441	0.221304
844.482090	0.221584
844.669722	0.222023
844.857335	0.222223
845.044930	0.222141
845.232507	0.222309
845.420065	0.222591
845.607605	0.222918
845.795127	0.223182
845.982631	0.223402
846.170117	0.223653
846.357584	0.223608
846.545033	0.223827
846.732464	0.224341
846.919877	0.224430
847.107272	0.224603
847.294648	0.224692
847.482006	0.224457
847.669346	0.224712
847.856667	0.224817
848.043971	0.225156
848.231256	0.225595
848.418523	0.225646
848.605771	0.225900
848.793002	0.226534
848.980214	0.227229
849.167408	0.227826
849.354584	0.228187
849.541742	0.228842
849.728881	0.229173
849.916002	0.229431
850.103105	0.229975
850.290190	0.230188
850.477256	0.230076
850.664304	0.229981
850.851334	0.230470
851.038346	0.230507
851.225340	0.230370
851.412315	0.230592
851.599272	0.230506
851.786211	0.230619
851.973132	0.230967
852.160034	0.231271
852.346918	0.231592
852.533784	0.231384
852.720632	0.231744
852.907462	0.232329
853.094273	0.232515
853.281066	0.232987
853.467841	0.233291
853.654598	0.233479
853.841336	0.233728
854.028056	0.234027
854.214758	0.234555
854.401442	0.234888
854.588107	0.235199
854.774755	0.235681
854.961384	0.235758
855.147995	0.235957
855.334587	0.236318
855.521162	0.236577
855.707718	0.236465
855.894256	0.236873
856.080775	0.237233
856.267277	0.237149
856.453760	0.237147
856.640225	0.237318
856.826672	0.237440
857.013101	0.237394
857.199511	0.237696
857.385903	0.238480
857.572277	0.238794
857.758633	0.238880
857.944970	0.239443
858.131290	0.239863
858.317591	0.240314
858.503873	0.240820
858.690138	0.240943
858.876384	0.241271
859.062612	0.241346
859.248822	0.241430
859.435014	0.241952
859.621188	0.242176
859.807343	0.242418
859.993480	0.242575
860.179599	0.242909
860.365699	0.243610
860.551781	0.243893
860.737846	0.244091
860.923891	0.244418
861.109919	0.244853
861.295929	0.244930
861.481920	0.245336
861.667893	0.245825
861.853848	0.245956
862.039784	0.246119
862.225702	0.245842
862.411603	0.245782
862.597484	0.246020
862.783348	0.245802
862.969193	0.246262
863.155021	0.246565
863.340830	0.246632
863.526620	0.246865
863.712393	0.246912
863.898147	0.247256
864.083883	0.247872
864.269601	0.247995
864.455301	0.248823
864.640982	0.248967
864.826645	0.248886
865.012290	0.249264
865.197917	0.249482
865.383526	0.249666
865.569116	0.250047
865.754688	0.250494
865.940242	0.250564
866.125777	0.250122
866.311295	0.250308
866.496794	0.250770
866.682275	0.250772
866.867737	0.251303
867.053182	0.251488
867.238608	0.251515
867.424016	0.251034
867.609406	0.251283
867.794778	0.251895
867.980131	0.251820
868.165466	0.251709
868.350783	0.252257
868.536082	0.252165
868.721362	0.252498
868.906625	0.252915
869.091869	0.253812
869.277094	0.254152
869.462302	0.253831
869.647491	0.254186
869.832662	0.254438
870.017815	0.254344
870.202950	0.254386
870.388066	0.254684
870.573165	0.254845
870.758245	0.254446
870.943306	0.254264
871.128350	0.254672
871.313375	0.255171
871.498382	0.255290
871.683371	0.255659
871.868342	0.255731
872.053294	0.255910
872.238229	0.255945
872.423144	0.256657
872.608042	0.256927
872.792922	0.257314
872.977783	0.257265
873.162626	0.257389
873.347451	0.257224
873.532258	0.257933
873.717046	0.258218
873.901816	0.258682
874.086568	0.258945
874.271302	0.259104
874.456017	0.259016
874.640715	0.258930
874.825394	0.259450
875.010055	0.259783
875.194697	0.259981
875.379322	0.260001
875.563928	0.260179
875.748516	0.259822
875.933085	0.260140
876.117637	0.259916
876.302170	0.260183
876.486685	0.260308
876.671182	0.260526
876.855661	0.260272
877.040121	0.260432
877.224563	0.260432
877.408987	0.260563
877.593393	0.260647
877.777780	0.261185
877.962150	0.261253
878.146501	0.261377
878.330833	0.261183
878.515148	0.261140
878.699444	0.261254
878.883722	0.261443
879.067982	0.261617
879.252224	0.261846
879.436447	0.261913
879.620653	0.262044
879.804840	0.262239
879.989008	0.262829
880.173159	0.262752
880.357291	0.262865
880.541405	0.262836
880.725501	0.263052
880.909579	0.263589
881.093638	0.263797
881.277680	0.264291
881.461703	0.264211
881.645707	0.264201
881.829694	0.264762
882.013662	0.264945
882.197612	0.264887
882.381544	0.265083
882.565458	0.264635
882.749353	0.264506
882.933230	0.264307
883.117089	0.264664
883.300930	0.264484
883.484753	0.264174
883.668557	0.264515
883.852343	0.264844
884.036111	0.264551
884.219861	0.264601
884.403592	0.265175
884.587305	0.265283
884.771000	0.264970
884.954677	0.265179
885.138335	0.265764
885.321976	0.265376
885.505598	0.265069
885.689201	0.265435
885.872787	0.265476
886.056354	0.265016
886.239904	0.265280
886.423434	0.265545
886.606947	0.265401
886.790442	0.265174
886.973918	0.265740
887.157376	0.266540
887.340816	0.266355
887.524237	0.266512
887.707641	0.266607
887.891026	0.266606
888.074393	0.266512
888.257741	0.266882
888.441072	0.266811
888.624384	0.266357
888.807678	0.265621
888.990954	0.265587
889.174211	0.265253
889.357451	0.265642
889.540672	0.265300
889.723875	0.265701
889.907059	0.265942
890.090226	0.265928
890.273374	0.265926
890.456504	0.266424
890.639616	0.266659
890.822709	0.267202
891.005785	0.267056
891.188842	0.267330
891.371881	0.266530
891.554901	0.265959
891.737904	0.266290
891.920888	0.266058
892.103854	0.266105
892.286802	0.266190
892.469731	0.266019
892.652643	0.265576
892.835536	0.265289
893.018410	0.265210
893.201267	0.265243
893.384106	0.265087
893.566926	0.265246
893.749728	0.265270
893.932511	0.265135
894.115277	0.265081
894.298024	0.265250
894.480753	0.265354
894.663464	0.265132
894.846157	0.264875
895.028831	0.264844
895.211487	0.264802
895.394125	0.264501
895.576745	0.264068
895.759346	0.263878
895.941930	0.263460
896.124495	0.263543
896.307041	0.263626
896.489570	0.263995
896.672080	0.263552
896.854573	0.263791
897.037046	0.263405
897.219502	0.263508
897.401940	0.262996
897.584359	0.263661
897.766760	0.263209
897.949143	0.263870
898.131507	0.263523
898.313854	0.263295
898.496182	0.262133
898.678492	0.262146
898.860783	0.261818
899.043057	0.261811
899.225312	0.260907
899.407549	0.260529
899.589768	0.259543
899.771968	0.259326
899.954151	0.258985
900.136315	0.259199
900.318461	0.258799
900.500588	0.258662
900.682698	0.258495
900.864789	0.258171
901.046862	0.258522
901.228917	0.258566
901.410953	0.258799
901.592971	0.259354
901.774972	0.259270
901.956953	0.259354
902.138917	0.259435
902.320862	0.259903
902.502790	0.259816
902.684699	0.259000
902.866589	0.258967
903.048462	0.258466
903.230316	0.257552
903.412152	0.257800
903.593970	0.257269
903.775770	0.257541
903.957551	0.257003
904.139314	0.257355
904.321059	0.257518
904.502786	0.257443
904.684494	0.257138
904.866185	0.257121
905.047857	0.256618
905.229510	0.256762
905.411146	0.256167
905.592763	0.255802
905.774363	0.255010
905.955943	0.255064
906.137506	0.255124
906.319051	0.254831
906.500577	0.255386
906.682085	0.255437
906.863575	0.255727
907.045046	0.255565
907.226500	0.255614
907.407935	0.255634
907.589352	0.255679
907.770750	0.254861
907.952131	0.254833
908.133493	0.254792
908.314837	0.254606
908.496163	0.253570
908.677470	0.253006
908.858760	0.252427
909.040031	0.251893
909.221284	0.251143
909.402518	0.251263
909.583735	0.251435
909.764933	0.250431
909.946113	0.250020
910.127275	0.250301
910.308418	0.250352
910.489544	0.250161
910.670651	0.250601
910.851740	0.250296
911.032810	0.250086
911.213863	0.249340
911.394897	0.249314
911.575913	0.248830
911.756911	0.248473
911.937890	0.248036
912.118851	0.247924
912.299794	0.247408
912.480719	0.247191
912.661626	0.246566
912.842514	0.246599
913.023384	0.246380
913.204236	0.246115
913.385070	0.245161
913.565886	0.244874
913.746683	0.244682
913.927462	0.244228
914.108223	0.243781
914.288965	0.243682
914.469690	0.242543
914.650396	0.241766
914.831084	0.240990
915.011754	0.241013
915.192405	0.240989
915.373038	0.240292
915.553653	0.239499
915.734250	0.239474
915.914829	0.238894
916.095389	0.238584
916.275931	0.238361
916.456455	0.238446
916.636961	0.238393
916.817448	0.237331
916.997917	0.236743
917.178368	0.236478
917.358801	0.235871
917.539216	0.235659
917.719612	0.236058
917.899990	0.235781
918.080350	0.235281
918.260692	0.234387
918.441015	0.233794
918.621320	0.233157
918.801607	0.233129
918.981876	0.232320
919.162127	0.231568
919.342359	0.230501
919.522573	0.229330
919.702769	0.229177
919.882947	0.229294
920.063106	0.228777
920.243247	0.228509
920.423370	0.227295
920.603475	0.227202
920.783562	0.226911
920.963630	0.226539
921.143680	0.226724
921.323712	0.225639
921.503725	0.224331
921.683721	0.224400
921.863698	0.223957
922.043657	0.224087
922.223598	0.222703
922.403520	0.222226
922.583424	0.221917
922.763311	0.221533
922.943178	0.221591
923.123028	0.221863
923.302859	0.220951
923.482673	0.221211
923.662467	0.220965
923.842244	0.221218
924.022003	0.220878
924.201743	0.220249
924.381465	0.219498
924.561169	0.218249
924.740854	0.217119
924.920522	0.217221
925.100171	0.216011
925.279802	0.215228
925.459414	0.214558
925.639009	0.213680
925.818585	0.213505
925.998143	0.213343
926.177683	0.213717
926.357205	0.213427
926.536708	0.213316
926.716193	0.213349
926.895660	0.212985
927.075109	0.212986
927.254539	0.212248
927.433951	0.211469
927.613345	0.210844
927.792721	0.210069
927.972079	0.209955
928.151418	0.209222
928.330739	0.208325
928.510042	0.207409
928.689327	0.206421
928.868593	0.206273
929.047841	0.205331
929.227071	0.204525
929.406283	0.204301
929.585476	0.203226
929.764652	0.202425
929.943809	0.202222
930.122948	0.202231
930.302068	0.201710
930.481171	0.200884
930.660255	0.200743
930.839321	0.200653
931.018369	0.200141
931.197398	0.199758
931.376409	0.198343
931.555402	0.197481
931.734377	0.196629
931.913334	0.196412
932.092272	0.195373
932.271192	0.193932
932.450094	0.193117
932.628978	0.192061
932.807844	0.191010
932.986691	0.192154
933.165520	0.191700
933.344331	0.191500
933.523123	0.190225
933.701898	0.190784
933.880654	0.191290
934.059392	0.189999
934.238111	0.188904
934.416813	0.189397
934.595496	0.187518
934.774161	0.186892
934.952808	0.185976
935.131437	0.186319
935.310047	0.185632
935.488639	0.185355
935.667213	0.185229
935.845769	0.184900
936.024306	0.183874
936.202825	0.182850
936.381326	0.181782
936.559809	0.181257
936.738274	0.179706
936.916720	0.178036
937.095148	0.176159
937.273558	0.175414
937.451950	0.175100
937.630323	0.174103
937.808678	0.173490
937.987015	0.173530
938.165334	0.172459
938.343635	0.171961
938.521917	0.171639
938.700181	0.171773
938.878427	0.170509
939.056655	0.169091
939.234864	0.168168
939.413055	0.169126
939.591228	0.168010
939.769383	0.167850
939.947519	0.167696
940.125638	0.167939
940.303738	0.167252
940.481820	0.167838
940.659883	0.166259
940.837929	0.165100
941.015956	0.162348
941.193965	0.161407
941.371955	0.160279
941.549928	0.160567
941.727882	0.158940
941.905818	0.157944
942.083736	0.156992
942.261636	0.157973
942.439517	0.158241
942.617380	0.158428
942.795225	0.158158
942.973052	0.158159
943.150860	0.155587
943.328651	0.156392
943.506423	0.155850
943.684176	0.155502
943.861912	0.154400
944.039629	0.153683
944.217328	0.151809
944.395009	0.150652
944.572672	0.148043
944.750317	0.146918
944.927943	0.145211
945.105551	0.144623
945.283141	0.143328
945.460712	0.141806
945.638265	0.140577
945.815801	0.140307
945.993317	0.139608
946.170816	0.141028
946.348297	0.140691
946.525759	0.139640
946.703203	0.138215
946.880629	0.138402
947.058036	0.139008
947.235425	0.139332
947.412797	0.139442
947.590149	0.139198
947.767484	0.138098
947.944800	0.139266
948.122099	0.137265
948.299379	0.136912
948.476640	0.135769
948.653884	0.135350
948.831109	0.133141
949.008316	0.132115
949.185505	0.131376
949.362676	0.129846
949.539828	0.128064
949.716962	0.129558
949.894078	0.129384
950.071176	0.129711
950.248256	0.128594
950.425317	0.129770
950.602360	0.129085
950.779385	0.128571
950.956391	0.128883
951.133380	0.126614
951.310350	0.125476
951.487302	0.123887
951.664235	0.120996
951.841151	0.119134
952.018048	0.117160
952.194927	0.118917
952.371788	0.118277
952.548631	0.118451
952.725455	0.118028
952.902261	0.118829
953.079049	0.118297
953.255819	0.120860
953.432570	0.123340
953.609303	0.123049
953.786018	0.120232
953.962715	0.120840
954.139394	0.119404
954.316054	0.120547
954.492696	0.119485
954.669320	0.121297
954.845926	0.117724
955.022513	0.116133
955.199083	0.117281
955.375634	0.116912
955.552166	0.114417
955.728681	0.115699
955.905177	0.113675
956.081655	0.113274
956.258115	0.111245
956.434557	0.112652
956.610980	0.112051
956.787385	0.111101
956.963772	0.111273
957.140141	0.111525
957.316492	0.109898
957.492824	0.112348
957.669138	0.112317
957.845434	0.112624
958.021712	0.109156
958.197971	0.109726
958.374212	0.108001
958.550435	0.108883
958.726640	0.110319
958.902826	0.111402
959.078995	0.108751
959.255145	0.107242
959.431277	0.107036
959.607390	0.109666
959.783486	0.108941
959.959563	0.110353
960.135622	0.110657
960.311662	0.108672
960.487685	0.108082
960.663689	0.108005
960.839675	0.106765
961.015643	0.105644
961.191593	0.106959
961.367524	0.104567
961.543437	0.103902
961.719332	0.101473
961.895209	0.101722
962.071067	0.100063
962.246907	0.101021
962.422730	0.102221
962.598533	0.103089
962.774319	0.099786
962.950086	0.102183
963.125835	0.103652
963.301566	0.103881
963.477279	0.104632
963.652973	0.105329
963.828650	0.105050
964.004308	0.106738
964.179947	0.105446
964.355569	0.108328
964.531172	0.107059
964.706757	0.104605
964.882324	0.102032
965.057873	0.103242
965.233403	0.102664
965.408916	0.101451
965.584410	0.100516
965.759885	0.100756
965.935343	0.098409
966.110782	0.098671
966.286203	0.098154
966.461606	0.100329
966.636991	0.098533
966.812357	0.096635
966.987705	0.098624
967.163035	0.097092
967.338347	0.097485
967.513641	0.097369
967.688916	0.099536
967.864173	0.099082
968.039412	0.098094
968.214632	0.099428
968.389835	0.100374
968.565019	0.102207
968.740185	0.101848
968.915333	0.102680
969.090462	0.104804
969.265573	0.103162
969.440667	0.104553
969.615741	0.107059
969.790798	0.105762
969.965836	0.106415
970.140856	0.104922
970.315858	0.105375
970.490842	0.103313
970.665808	0.099715
970.840755	0.097064
971.015684	0.098366
971.190595	0.097311
971.365487	0.097658
971.540362	0.098478
971.715218	0.099355
971.890056	0.100372
972.064875	0.103278
972.239677	0.105611
972.414460	0.108180
972.589225	0.106037
972.763972	0.106001
972.938700	0.105789
973.113411	0.103809
973.288103	0.100679
973.462777	0.101456
973.637432	0.098531
973.812070	0.099836
973.986689	0.100654
974.161290	0.100103
974.335873	0.099569
974.510437	0.098248
974.684984	0.100351
974.859512	0.103524
975.034022	0.103309
975.208513	0.105186
975.382987	0.102999
975.557442	0.103085
975.731879	0.105785
975.906298	0.107139
976.080698	0.108303
976.255080	0.107430
976.429445	0.105084
976.603790	0.104902
976.778118	0.106734
976.952427	0.108580
977.126719	0.108011
977.300992	0.105862
977.475246	0.106092
977.649483	0.106454
977.823701	0.108624
977.997901	0.106899
978.172083	0.105809
978.346247	0.105225
978.520392	0.105739
978.694519	0.105591
978.868628	0.108297
979.042719	0.105863
979.216791	0.104801
979.390845	0.104217
979.564882	0.106487
979.738899	0.106106
979.912899	0.104674
980.086880	0.101950
980.260843	0.101511
980.434788	0.102160
980.608715	0.103033
980.782623	0.105289
980.956514	0.104404
981.130386	0.103149
981.304240	0.103273
981.478075	0.103017
981.651892	0.104508
981.825692	0.106109
981.999472	0.102525
982.173235	0.102656
982.346980	0.100680
982.520706	0.098059
982.694414	0.100304
982.868104	0.099561
983.041775	0.098895
983.215428	0.098331
983.389064	0.094995
983.562680	0.097161
983.736279	0.096987
983.909860	0.098228
984.083422	0.100607
984.256966	0.099677
984.430491	0.100772
984.603999	0.101068
984.777488	0.101617
984.950959	0.103210
985.124412	0.101507
985.297847	0.104151
985.471263	0.104086
985.644661	0.103848
985.818041	0.103337
985.991403	0.104128
986.164747	0.103842
986.338072	0.103951
986.511379	0.105202
986.684668	0.106317
986.857938	0.105051
987.031191	0.102323
987.204425	0.101083
987.377641	0.101811
987.550839	0.102642
987.724018	0.102858
987.897179	0.102734
988.070322	0.102416
988.243447	0.102774
988.416554	0.101523
988.589642	0.103827
988.762712	0.103336
988.935764	0.103973
989.108798	0.101908
989.281813	0.101446
989.454811	0.100892
989.627790	0.099337
989.800751	0.098247
989.973693	0.098583
990.146617	0.097532
990.319524	0.099579
990.492412	0.097884
990.665281	0.096292
990.838133	0.095880
991.010966	0.096447
991.183781	0.096067
991.356578	0.096024
991.529356	0.096377
991.702117	0.096671
991.874859	0.096654
992.047583	0.097603
992.220288	0.099154
992.392976	0.098201
992.565645	0.097561
992.738296	0.099137
992.910929	0.098917
993.083543	0.098993
993.256139	0.099138
993.428718	0.098663
993.601277	0.100522
993.773819	0.102156
993.946342	0.104260
994.118848	0.106698
994.291335	0.105473
994.463803	0.105269
994.636254	0.104442
994.808686	0.103984
994.981100	0.104835
995.153496	0.103351
995.325874	0.101560
995.498233	0.099242
995.670574	0.094975
995.842897	0.094494
996.015202	0.096934
996.187488	0.097886
996.359757	0.098129
996.532007	0.099546
996.704239	0.097585
996.876452	0.096689
997.048648	0.097557
997.220825	0.098616
997.392984	0.100939
997.565124	0.098743
997.737247	0.099157
997.909351	0.099057
998.081437	0.097767
998.253505	0.099482
998.425554	0.100727
998.597586	0.102505
998.769599	0.102714
998.941594	0.100782
999.113571	0.099330
999.285529	0.097798
999.457469	0.097125
999.629391	0.095725
999.801295	0.095756
999.973181	0.094606
1000.145048	0.092441
1000.316897	0.092779
1000.488728	0.091426
1000.660541	0.093377
1000.832335	0.092256
1001.004111	0.092933
1001.175869	0.092580
1001.347609	0.091936
1001.519331	0.090956
1001.691034	0.091142
1001.862719	0.092358
1002.034386	0.094144
1002.206035	0.095444
1002.377665	0.096478
1002.549277	0.097251
1002.720871	0.096732
1002.892447	0.097028
1003.064004	0.098206
1003.235544	0.100976
1003.407065	0.098735
1003.578568	0.097711
1003.750052	0.095530
1003.921519	0.097091
1004.092967	0.096164
1004.264397	0.097437
1004.435809	0.095215
1004.607202	0.096189
1004.778577	0.094923
1004.949934	0.096605
1005.121273	0.099107
1005.292594	0.099522
1005.463896	0.097083
1005.635180	0.097177
1005.806446	0.096815
1005.977694	0.099880
1006.148923	0.098646
1006.320135	0.097792
1006.491328	0.095101
1006.662503	0.094106
1006.833659	0.095137
1007.004798	0.097793
1007.175918	0.097934
1007.347020	0.098127
1007.518103	0.097375
1007.689169	0.098915
1007.860216	0.099267
1008.031245	0.102126
1008.202256	0.100742
1008.373248	0.100889
1008.544223	0.099791
1008.715179	0.098555
1008.886117	0.096790
1009.057036	0.096227
1009.227938	0.096935
1009.398821	0.096894
1009.569686	0.096146
1009.740533	0.098998
1009.911361	0.098347
1010.082172	0.099469
1010.252964	0.100821
1010.423738	0.102783
1010.594493	0.103630
1010.765231	0.101798
1010.935950	0.101743
1011.106651	0.103914
1011.277334	0.101539
1011.447998	0.100675
1011.618645	0.098662
1011.789273	0.099095
1011.959882	0.098719
1012.130474	0.097798
1012.301048	0.098801
1012.471603	0.098595
1012.642140	0.096706
1012.812658	0.096507
1012.983159	0.098470
1013.153641	0.098139
1013.324105	0.095696
1013.494551	0.094377
1013.664979	0.093399
1013.835388	0.091381
1014.005779	0.092526
1014.176152	0.090507
1014.346507	0.088602
1014.516843	0.087372
1014.687162	0.087641
1014.857462	0.089330
1015.027744	0.091874
1015.198007	0.092289
1015.368252	0.091761
1015.538480	0.090793
1015.708689	0.092157
1015.878879	0.094259
1016.049052	0.093116
1016.219206	0.092164
1016.389342	0.090831
1016.559460	0.086420
1016.729559	0.085650
1016.899641	0.086571
1017.069704	0.086127
1017.239749	0.087247
1017.409775	0.088017
1017.579784	0.087152
1017.749774	0.089540
1017.919746	0.090113
1018.089700	0.093205
1018.259635	0.094695
1018.429553	0.094224
1018.599452	0.095630
1018.769333	0.095450
1018.939195	0.096142
1019.109040	0.097911
1019.278866	0.096144
1019.448674	0.095612
1019.618464	0.095923
1019.788235	0.093820
1019.957989	0.095827
1020.127724	0.094693
1020.297441	0.092856
1020.467139	0.090195
1020.636820	0.089787
1020.806482	0.090250
1020.976126	0.091041
1021.145752	0.088800
1021.315359	0.089383
1021.484948	0.088686
1021.654519	0.090022
1021.824072	0.091146
1021.993607	0.091710
1022.163123	0.092740
1022.332621	0.093495
1022.502101	0.093444
1022.671563	0.096784
1022.841007	0.097098
1023.010432	0.096163
1023.179839	0.093856
1023.349228	0.092372
1023.518598	0.093428
1023.687951	0.091894
1023.857285	0.090494
1024.026601	0.091783
1024.195899	0.091154
1024.365178	0.093437
1024.534439	0.094001
1024.703682	0.095333
1024.872907	0.097425
1025.042114	0.097853
1025.211302	0.097804
1025.380472	0.097689
1025.549624	0.096660
1025.718758	0.096180
1025.887873	0.094412
1026.056970	0.095691
1026.226049	0.095404
1026.395110	0.094326
1026.564153	0.091831
1026.733177	0.092800
1026.902183	0.091129
1027.071171	0.092302
1027.240141	0.091480
1027.409092	0.092690
1027.578026	0.092751
1027.746940	0.092908
1027.915837	0.092592
1028.084716	0.094277
1028.253576	0.093683
1028.422418	0.097789
1028.591242	0.096878
1028.760048	0.096281
1028.928835	0.095021
1029.097604	0.093979
1029.266355	0.094022
1029.435088	0.095168
1029.603803	0.094900
1029.772499	0.094321
1029.941177	0.094098
1030.109837	0.093353
1030.278478	0.090897
1030.447102	0.091795
1030.615707	0.091751
1030.784294	0.090086
1030.952863	0.090407
1031.121413	0.090075
1031.289945	0.090625
1031.458460	0.088700
1031.626955	0.089683
1031.795433	0.092689
1031.963892	0.092505
1032.132334	0.094361
1032.300756	0.097569
1032.469161	0.095634
1032.637548	0.097793
1032.805916	0.097804
1032.974266	0.097427
1033.142598	0.095761
1033.310911	0.095763
1033.479207	0.095582
1033.647484	0.093775
1033.815743	0.090566
1033.983983	0.090409
1034.152206	0.089416
1034.320410	0.089590
1034.488596	0.089954
1034.656764	0.089785
1034.824914	0.091087
1034.993045	0.092028
1035.161158	0.092113
1035.329253	0.092782
1035.497330	0.094671
1035.665388	0.094249
1035.833428	0.094759
1036.001450	0.095255
1036.169454	0.096057
1036.337440	0.095794
1036.505407	0.094207
1036.673356	0.095872
1036.841287	0.094712
1037.009200	0.093550
1037.177094	0.093624
1037.344970	0.092632
1037.512828	0.092857
1037.680668	0.092216
1037.848489	0.091435
1038.016293	0.091803
1038.184078	0.090240
1038.351845	0.093728
1038.519593	0.092945
1038.687324	0.092937
1038.855036	0.092871
1039.022730	0.091881
1039.190406	0.093581
1039.358063	0.093641
1039.525702	0.092334
1039.693323	0.092664
1039.860926	0.091329
1040.028511	0.093472
1040.196077	0.094257
1040.363625	0.094497
1040.531155	0.095019
1040.698667	0.094590
1040.866161	0.095906
1041.033636	0.098014
1041.201093	0.096866
1041.368532	0.095910
1041.535952	0.094643
1041.703355	0.093483
1041.870739	0.094710
1042.038105	0.095034
1042.205452	0.095953
1042.372782	0.092735
1042.540093	0.092877
1042.707386	0.093983
1042.874661	0.093799
1043.041918	0.094778
1043.209156	0.093236
1043.376376	0.093709
1043.543578	0.092814
1043.710762	0.093050
1043.877927	0.093146
1044.045074	0.092787
1044.212203	0.093529
1044.379314	0.095278
1044.546407	0.094545
1044.713481	0.096446
1044.880537	0.092896
1045.047575	0.092708
1045.214595	0.091631
1045.381596	0.093950
1045.548579	0.094362
1045.715544	0.092805
1045.882491	0.090900
1046.049420	0.091789
1046.216330	0.090031
1046.383222	0.091783
1046.550096	0.092912
1046.716951	0.092426
1046.883789	0.090359
1047.050608	0.089739
1047.217409	0.090822
1047.384192	0.091308
1047.550956	0.091114
1047.717703	0.091582
1047.884431	0.091839
1048.051140	0.093454
1048.217832	0.094470
1048.384505	0.095182
1048.551161	0.096116
1048.717798	0.096693
1048.884416	0.098202
1049.051017	0.096937
1049.217599	0.096016
1049.384163	0.094913
1049.550709	0.093576
1049.717237	0.092640
1049.883746	0.092709
1050.050237	0.090419
1050.216710	0.087906
1050.383165	0.087978
1050.549601	0.087745
1050.716019	0.089473
1050.882420	0.089943
1051.048801	0.088266
1051.215165	0.087996
1051.381510	0.089783
1051.547837	0.091369
1051.714146	0.092886
1051.880437	0.091628
1052.046709	0.091451
1052.212964	0.090313
1052.379200	0.090699
1052.545417	0.093189
1052.711617	0.091696
1052.877798	0.090255
1053.043961	0.088172
1053.210106	0.088239
1053.376233	0.088864
1053.542341	0.090071
1053.708432	0.092199
1053.874504	0.092687
1054.040557	0.091478
1054.206593	0.092122
1054.372610	0.092179
1054.538609	0.094126
1054.704590	0.093349
1054.870553	0.092271
1055.036497	0.090710
1055.202424	0.089502
1055.368331	0.090228
1055.534221	0.089250
1055.700093	0.091645
1055.865946	0.091258
1056.031781	0.087453
1056.197598	0.087795
1056.363397	0.087716
1056.529177	0.088548
1056.694939	0.089392
1056.860683	0.087234
1057.026409	0.085988
1057.192116	0.084682
1057.357806	0.086223
1057.523477	0.089737
1057.689130	0.088160
1057.854764	0.088601
1058.020381	0.086899
1058.185979	0.086597
1058.351559	0.087178
1058.517120	0.089833
1058.682664	0.090719
1058.848189	0.088861
1059.013696	0.089040
1059.179185	0.092739
1059.344656	0.091854
1059.510108	0.092884
1059.675542	0.094783
1059.840958	0.097023
1060.006356	0.094910
1060.171735	0.096645
1060.337096	0.097499
1060.502439	0.097001
1060.667764	0.095391
1060.833071	0.097897
1060.998359	0.100747
1061.163629	0.099153
1061.328881	0.097660
1061.494115	0.099080
1061.659330	0.094824
1061.824527	0.096486
1061.989706	0.095932
1062.154867	0.095437
1062.320010	0.092014
1062.485134	0.091397
1062.650240	0.091603
1062.815328	0.093126
1062.980398	0.092561
1063.145449	0.094422
1063.310482	0.093891
1063.475497	0.094927
1063.640494	0.093457
1063.805473	0.098526
1063.970433	0.097693
1064.135375	0.096348
1064.300299	0.096358
1064.465204	0.096152
1064.630092	0.094419
1064.794961	0.092147
1064.959812	0.093399
1065.124645	0.093120
1065.289459	0.091193
1065.454256	0.089586
1065.619034	0.090842
1065.783793	0.089773
1065.948535	0.091712
1066.113258	0.094368
1066.277964	0.095138
1066.442651	0.093469
1066.607319	0.093360
1066.771970	0.092346
1066.936602	0.095287
1067.101216	0.093240
1067.265812	0.090422
1067.430389	0.091519
1067.594949	0.090670
1067.759490	0.093070
1067.924013	0.093339
1068.088518	0.094569
1068.253004	0.094880
1068.417472	0.092278
1068.581922	0.093336
1068.746354	0.097976
1068.910768	0.095983
1069.075163	0.094640
1069.239540	0.093093
1069.403899	0.095448
1069.568240	0.094976
1069.732562	0.093996
1069.896866	0.092234
1070.061152	0.092434
1070.225420	0.091250
1070.389670	0.089226
1070.553901	0.093626
1070.718114	0.094015
1070.882309	0.090807
1071.046486	0.090449
1071.210644	0.091090
1071.374784	0.092526
1071.538906	0.091799
1071.703010	0.093677
1071.867096	0.097678
1072.031163	0.092881
1072.195212	0.091662
1072.359243	0.094651
1072.523256	0.098239
1072.687250	0.095874
1072.851226	0.100673
1073.015184	0.098950
1073.179124	0.095512
1073.343045	0.094559
1073.506949	0.094533
1073.670834	0.093729
1073.834701	0.091350
1073.998549	0.086903
1074.162380	0.089927
1074.326192	0.086220
1074.489986	0.089341
1074.653761	0.090303
1074.817519	0.089324
1074.981258	0.089996
1075.144979	0.094125
1075.308682	0.093289
1075.472367	0.095957
1075.636033	0.093539
1075.799681	0.093438
1075.963311	0.097493
1076.126923	0.097264
1076.290516	0.097494
1076.454092	0.097709
1076.617649	0.095060
1076.781187	0.097531
1076.944708	0.099266
1077.108210	0.102996
1077.271695	0.104395
1077.435160	0.100099
1077.598608	0.099475
1077.762038	0.096772
1077.925449	0.098534
1078.088842	0.097963
1078.252217	0.096281
1078.415573	0.093440
1078.578912	0.089175
1078.742232	0.088692
1078.905534	0.085762
1079.068817	0.084071
1079.232083	0.085199
1079.395330	0.083381
1079.558559	0.082617
1079.721770	0.082003
1079.884962	0.083428
1080.048136	0.086280
1080.211293	0.085552
1080.374430	0.088050
1080.537550	0.092400
1080.700651	0.094094
1080.863735	0.095176
1081.026800	0.095618
1081.189846	0.098431
1081.352875	0.099838
1081.515885	0.098000
1081.678877	0.096232
1081.841851	0.094897
1082.004807	0.091624
1082.167744	0.090952
1082.330663	0.091828
1082.493564	0.093003
1082.656447	0.091488
1082.819312	0.090789
1082.982158	0.092292
1083.144986	0.093786
1083.307796	0.095006
1083.470587	0.096756
1083.633361	0.096705
1083.796116	0.095924
1083.958853	0.094238
1084.121571	0.090768
1084.284272	0.091033
1084.446954	0.089763
1084.609618	0.090862
1084.772264	0.091101
1084.934892	0.089496
1085.097501	0.092430
1085.260092	0.094412
1085.422665	0.096339
1085.585220	0.097466
1085.747756	0.093968
1085.910274	0.096165
1086.072774	0.096072
1086.235256	0.095278
1086.397720	0.094930
1086.560165	0.093568
1086.722592	0.090084
1086.885001	0.089100
1087.047392	0.093064
1087.209764	0.093995
1087.372119	0.093001
1087.534455	0.091219
1087.696772	0.090707
1087.859072	0.094219
1088.021353	0.093563
1088.183616	0.092717
1088.345861	0.093235
1088.508088	0.090239
1088.670296	0.092170
1088.832486	0.090540
1088.994658	0.092809
1089.156812	0.090878
1089.318948	0.084855
1089.481065	0.085214
1089.643164	0.085488
1089.805245	0.086154
1089.967308	0.085566
1090.129352	0.085473
1090.291378	0.090510
1090.453386	0.091203
1090.615376	0.093290
1090.777347	0.100267
1090.939301	0.097305
1091.101236	0.101634
1091.263153	0.103547
1091.425051	0.109824
1091.586932	0.106186
1091.748794	0.101047
1091.910638	0.099919
1092.072463	0.103036
1092.234271	0.100422
1092.396060	0.101798
1092.557831	0.102754
1092.719584	0.096789
1092.881319	0.091571
1093.043035	0.094507
1093.204733	0.095854
1093.366413	0.095751
1093.528075	0.091700
1093.689718	0.091088
1093.851343	0.090231
1094.012950	0.086647
1094.174539	0.090045
1094.336110	0.091971
1094.497662	0.094423
1094.659196	0.094061
1094.820712	0.093480
1094.982210	0.096079
1095.143689	0.093246
1095.305151	0.099352
1095.466594	0.098378
1095.628018	0.102020
1095.789425	0.099478
1095.950813	0.098646
1096.112183	0.103328
1096.273535	0.108567
1096.434869	0.110450
1096.596184	0.114477
1096.757482	0.109770
1096.918761	0.110622
1097.080021	0.108152
1097.241264	0.111390
1097.402488	0.112932
1097.563694	0.104950
1097.724882	0.097754
1097.886052	0.101733
1098.047203	0.100592
1098.208336	0.101136
1098.369451	0.099949
1098.530548	0.094571
1098.691627	0.091849
1098.852687	0.088191
1099.013729	0.087472
1099.174753	0.091228
1099.335758	0.084396
1099.496746	0.087909
1099.657715	0.087207
1099.818666	0.087160
1099.979599	0.089873
1100.140513	0.091458
1100.301409	0.092083
1100.462287	0.094254
1100.623147	0.095579
1100.783989	0.096112
1100.944812	0.094961
1101.105617	0.096086
1101.266404	0.098700
1101.427173	0.103332
1101.587923	0.102214
1101.748656	0.099244
1101.909370	0.101948
1102.070066	0.104384
1102.230743	0.101347
1102.391403	0.098124
1102.552044	0.099703
1102.712667	0.096610
1102.873271	0.090685
1103.033858	0.090413
1103.194426	0.095061
1103.354976	0.097761
1103.515508	0.094202
1103.676021	0.094224
1103.836517	0.093955
1103.996994	0.091210
1104.157453	0.094711
1104.317893	0.100805
1104.478316	0.104781
1104.638720	0.101195
1104.799106	0.097115
1104.959474	0.097472
1105.119823	0.099119
1105.280155	0.104119
1105.440468	0.106724
1105.600763	0.107118
1105.761039	0.106271
1105.921298	0.104758
1106.081538	0.106011
1106.241760	0.108627
1106.401964	0.108744
1106.562149	0.112943
1106.722316	0.109377
1106.882465	0.104565
1107.042596	0.102504
1107.202709	0.097988
1107.362803	0.096963
1107.522879	0.100569
1107.682937	0.098020
1107.842977	0.096040
1108.002999	0.093291
1108.163002	0.093681
1108.322987	0.097486
1108.482954	0.102599
1108.642902	0.108224
1108.802833	0.104058
1108.962745	0.101474
1109.122639	0.107235
1109.282515	0.107910
1109.442372	0.106406
1109.602211	0.107422
1109.762032	0.106376
1109.921835	0.107377
1110.081620	0.106445
1110.241386	0.115149
1110.401134	0.114268
1110.560864	0.109984
1110.720576	0.112521
1110.880269	0.120074
1111.039945	0.120104
1111.199602	0.121262
1111.359240	0.119230
1111.518861	0.114454
1111.678463	0.108156
1111.838047	0.108778
1111.997613	0.110315
1112.157161	0.112618
1112.316690	0.106509
1112.476202	0.109700
1112.635695	0.109567
1112.795169	0.109451
1112.954626	0.114018
1113.114064	0.114899
1113.273484	0.117614
1113.432886	0.118926
1113.592270	0.122460
1113.751635	0.127792
1113.910983	0.117523
1114.070312	0.122262
1114.229622	0.123261
1114.388915	0.127392
1114.548189	0.128525
1114.707445	0.128419
1114.866683	0.127265
1115.025903	0.124558
1115.185104	0.119028
1115.344287	0.130921
1115.503452	0.126700
1115.662599	0.125081
1115.821727	0.114432
1115.980838	0.113524
1116.139930	0.112623
1116.299004	0.110411
1116.458059	0.108165
1116.617097	0.112919
1116.776116	0.106760
1116.935117	0.104016
1117.094099	0.101315
1117.253064	0.107099
1117.412010	0.106950
1117.570938	0.096733
1117.729848	0.104022
1117.888740	0.103058
1118.047613	0.104935
1118.206468	0.108925
1118.365305	0.116662
1118.524124	0.115321
1118.682924	0.108932
1118.841707	0.112380
1119.000471	0.122143
1119.159216	0.118373
1119.317944	0.116748
1119.476653	0.112791
1119.635344	0.102432
1119.794017	0.097215
1119.952672	0.099291
1120.111308	0.107525
1120.269927	0.111692
1120.428527	0.108479
1120.587108	0.096616
1120.745672	0.098758
1120.904217	0.095800
1121.062744	0.104442
1121.221253	0.103010
1121.379744	0.100917
1121.538216	0.102274
1121.696671	0.094342
1121.855107	0.102541
1122.013524	0.113043
1122.171924	0.106083
1122.330305	0.106021
1122.488668	0.101422
1122.647013	0.103476
1122.805340	0.108499
1122.963648	0.105924
1123.121938	0.108404
1123.280210	0.104768
1123.438464	0.099116
1123.596700	0.104481
1123.754917	0.106626
1123.913116	0.108196
1124.071297	0.106057
1124.229459	0.103201
1124.387604	0.096722
1124.545730	0.100803
1124.703838	0.096027
1124.861928	0.099452
1125.019999	0.100368
1125.178052	0.105681
1125.336088	0.103549
1125.494104	0.105017
1125.652103	0.102026
1125.810083	0.112677
1125.968045	0.113460
1126.125989	0.122572
1126.283915	0.126265
1126.441823	0.125101
1126.599712	0.126716
1126.757583	0.133271
1126.915436	0.130821
1127.073270	0.132159
1127.231087	0.121885
1127.388885	0.115226
1127.546665	0.110013
1127.704426	0.106865
1127.862170	0.110443
1128.019895	0.098660
1128.177602	0.100515
1128.335291	0.105746
1128.492961	0.109717
1128.650614	0.110040
1128.808248	0.109768
1128.965864	0.109773
1129.123461	0.113429
1129.281041	0.104233
1129.438602	0.110342
1129.596145	0.109787
1129.753670	0.106101
1129.911176	0.111800
1130.068665	0.117458
1130.226135	0.113756
1130.383587	0.112025
1130.541020	0.110512
1130.698436	0.117087
1130.855833	0.110665
1131.013212	0.103412
1131.170573	0.102094
1131.327915	0.097440
1131.485239	0.095167
1131.642545	0.101371
1131.799833	0.099911
1131.957103	0.105038
1132.114354	0.106194
1132.271588	0.105490
1132.428803	0.109054
1132.585999	0.112197
1132.743178	0.108021
1132.900338	0.108439
1133.057480	0.111727
1133.214604	0.118168
1133.371710	0.111524
1133.528797	0.116068
1133.685866	0.124187
1133.842917	0.127731
1133.999950	0.129708
1134.156964	0.131733
1134.313960	0.131927
1134.470938	0.128420
1134.627898	0.120930
1134.784840	0.113451
1134.941763	0.101098
1135.098668	0.090192
1135.255555	0.081431
1135.412424	0.074418
1135.569274	0.070726
1135.726107	0.066430
1135.882921	0.061351
1136.039716	0.071165
1136.196494	0.085417
1136.353253	0.092993
1136.509995	0.097310
1136.666717	0.105544
1136.823422	0.104109
1136.980109	0.109824
1137.136777	0.117238
1137.293427	0.125065
1137.450059	0.112399
1137.606672	0.106736
1137.763267	0.104850
1137.919844	0.106480
1138.076403	0.097093
1138.232944	0.106789
1138.389466	0.104199
1138.545971	0.102050
1138.702457	0.101040
1138.858924	0.105423
1139.015374	0.097542
1139.171805	0.098750
1139.328218	0.101252
1139.484613	0.111859
1139.640990	0.098238
1139.797348	0.105305
1139.953688	0.104017
1140.110010	0.113378
1140.266314	0.113093
1140.422600	0.113487
1140.578867	0.108283
1140.735116	0.116105
1140.891347	0.120484
1141.047559	0.137068
1141.203754	0.125258
1141.359930	0.130526
1141.516088	0.119384
1141.672228	0.118388
1141.828349	0.125808
1141.984452	0.131608
1142.140537	0.121349
1142.296604	0.120368
1142.452653	0.121321
1142.608683	0.125893
1142.764695	0.119291
1142.920689	0.113742
1143.076665	0.127494
1143.232622	0.123740
1143.388562	0.121709
1143.544483	0.128712
1143.700385	0.132254
1143.856270	0.121094
1144.012136	0.124894
1144.167985	0.121297
1144.323814	0.128127
1144.479626	0.123346
1144.635420	0.127565
1144.791195	0.137198
1144.946952	0.144041
1145.102691	0.122754
1145.258411	0.141159
1145.414113	0.130394
1145.569798	0.141595
1145.725463	0.146644
1145.881111	0.141989
1146.036741	0.149042
1146.192352	0.136040
1146.347945	0.133954
1146.503519	0.154385
1146.659076	0.133496
1146.814614	0.129314
1146.970134	0.120915
1147.125636	0.118975
1147.281120	0.117886
1147.436585	0.105049
1147.592032	0.114347
1147.747461	0.113070
1147.902872	0.101540
1148.058265	0.103408
1148.213639	0.121883
1148.368995	0.134305
1148.524333	0.127703
1148.679653	0.116233
1148.834954	0.120851
1148.990237	0.108637
1149.145502	0.093732
1149.300749	0.103799
1149.455977	0.113591
1149.611188	0.095286
1149.766380	0.083287
1149.921553	0.084581
1150.076709	0.095381
1150.231846	0.094160
1150.386966	0.104034
1150.542066	0.102325
1150.697149	0.098570
1150.852214	0.085944
1151.007260	0.092315
1151.162288	0.090140
1151.317298	0.090959
1151.472289	0.086988
1151.627263	0.094686
1151.782218	0.082193
1151.937155	0.101543
1152.092073	0.093932
1152.246974	0.100275
1152.401856	0.108018
1152.556720	0.121558
1152.711566	0.130527
1152.866393	0.134795
1153.021203	0.116569
1153.175994	0.136440
1153.330767	0.117996
1153.485521	0.126765
1153.640258	0.114756
1153.794976	0.099622
1153.949676	0.082546
1154.104358	0.079408
1154.259021	0.088185
1154.413667	0.101253
1154.568294	0.096339
1154.722903	0.100275
1154.877493	0.101375
1155.032066	0.105348
1155.186620	0.118916
1155.341156	0.133492
1155.495674	0.126794
1155.650173	0.106168
1155.804654	0.097201
1155.959118	0.093721
1156.113562	0.105995
1156.267989	0.101771
1156.422397	0.091947
1156.576788	0.080084
1156.731160	0.056513
1156.885513	0.057447
1157.039849	0.074585
1157.194166	0.081874
1157.348465	0.065139
1157.502746	0.066228
1157.657009	0.069731
1157.811253	0.073427
1157.965479	0.081884
1158.119687	0.102335
1158.273877	0.102256
1158.428048	0.092385
1158.582201	0.094591
1158.736337	0.105780
1158.890453	0.086929
1159.044552	0.064376
1159.198632	0.089248
1159.352694	0.106229
1159.506738	0.115084
1159.660764	0.117721
1159.814771	0.111086
1159.968761	0.110578
1160.122732	0.156551
1160.276685	0.174355
1160.430619	0.190110
1160.584535	0.173127
1160.738434	0.171319
1160.892313	0.161194
1161.046175	0.136944
1161.200019	0.143239
1161.353844	0.140773
1161.507651	0.101866
1161.661440	0.092324
1161.815210	0.106356
1161.968962	0.098879
1162.122697	0.076712
1162.276412	0.089488
1162.430110	0.098496
1162.583789	0.107544
1162.737451	0.100191
1162.891094	0.098731
1163.044718	0.093229
1163.198325	0.103714
1163.351913	0.124458
1163.505483	0.118468
1163.659035	0.100140
1163.812569	0.120767
1163.966084	0.117158
1164.119581	0.113174
1164.273060	0.120753
1164.426521	0.109411
1164.579964	0.088767
1164.733388	0.071560
1164.886794	0.087477
1165.040182	0.098367
1165.193551	0.078653
1165.346903	0.075302
1165.500236	0.082391
1165.653551	0.071998
1165.806848	0.085190
1165.960126	0.086123
1166.113386	0.102333
1166.266628	0.106743
1166.419852	0.093103
1166.573058	0.087104
1166.726245	0.098835
1166.879414	0.098019
1167.032565	0.102058
1167.185698	0.107338
1167.338812	0.113029
1167.491909	0.093600
1167.644987	0.093682
1167.798046	0.123346
1167.951088	0.153431
1168.104111	0.130971
1168.257117	0.129897
1168.410103	0.129566
1168.563072	0.134076
1168.716023	0.126622
1168.868955	0.141797
1169.021869	0.137970
1169.174765	0.124372
1169.327642	0.114930
1169.480501	0.129195
1169.633343	0.133716
1169.786165	0.128980
1169.938970	0.118262
1170.091757	0.120790
1170.244525	0.151313
1170.397275	0.136747
1170.550007	0.130677
1170.702720	0.124314
1170.855415	0.128836
1171.008092	0.136798
1171.160751	0.146001
1171.313392	0.161198
1171.466014	0.218526
1171.618619	0.168852
1171.771205	0.168852
1171.923772	0.168852
