sample name	sample
index	305
start time	 02-25-2021  02:20:20 PM


Wavelength (nm)	Absorbance
494.344910	-0.442269
494.563924	-0.442269
494.782919	-0.442269
495.001897	-0.115173
495.220856	-0.151367
495.439797	-0.117954
495.658719	-0.079029
495.877624	-0.032737
496.096510	0.014128
496.315378	0.092608
496.534227	0.107224
496.753059	0.053748
496.971872	0.050209
497.190667	0.117110
497.409444	0.121619
497.628203	0.129939
497.846943	0.132358
498.065665	0.132157
498.284369	0.132472
498.503055	0.133741
498.721723	0.133712
498.940372	0.133167
499.159003	0.132857
499.377616	0.134447
499.596210	0.133886
499.814787	0.133194
500.033345	0.133208
500.251885	0.133394
500.470406	0.132961
500.688910	0.132810
500.907395	0.133654
501.125862	0.133938
501.344311	0.133021
501.562742	0.133504
501.781154	0.134282
501.999548	0.133931
502.217924	0.132464
502.436282	0.133185
502.654621	0.132428
502.872942	0.132676
503.091245	0.133554
503.309530	0.134207
503.527797	0.133609
503.746045	0.133261
503.964275	0.134546
504.182487	0.135995
504.400681	0.135872
504.618856	0.136714
504.837013	0.134551
505.055152	0.133777
505.273273	0.134358
505.491376	0.135711
505.709460	0.134630
505.927526	0.134224
506.145574	0.134202
506.363604	0.133020
506.581615	0.133210
506.799608	0.135258
507.017583	0.135680
507.235540	0.135754
507.453478	0.134408
507.671399	0.135424
507.889301	0.135770
508.107185	0.135783
508.325050	0.136750
508.542898	0.137368
508.760727	0.137998
508.978538	0.138587
509.196330	0.139107
509.414105	0.140299
509.631861	0.141851
509.849599	0.142584
510.067319	0.143843
510.285021	0.144942
510.502704	0.143894
510.720369	0.143601
510.938016	0.143238
511.155645	0.143120
511.373255	0.142122
511.590848	0.141365
511.808422	0.140422
512.025977	0.139029
512.243515	0.139145
512.461034	0.139438
512.678536	0.140154
512.896018	0.140831
513.113483	0.141148
513.330930	0.142453
513.548358	0.142727
513.765768	0.143591
513.983160	0.144329
514.200533	0.143984
514.417889	0.144954
514.635226	0.144694
514.852545	0.144784
515.069845	0.145165
515.287128	0.145682
515.504392	0.145534
515.721638	0.144964
515.938866	0.145209
516.156075	0.145455
516.373267	0.145778
516.590440	0.146313
516.807594	0.145990
517.024731	0.146166
517.241850	0.146192
517.458950	0.146681
517.676032	0.147218
517.893095	0.147304
518.110141	0.147215
518.327168	0.147845
518.544177	0.147384
518.761168	0.148337
518.978141	0.147874
519.195095	0.147570
519.412031	0.147983
519.628949	0.147943
519.845849	0.148854
520.062731	0.149299
520.279594	0.149428
520.496439	0.150295
520.713266	0.150739
520.930074	0.151678
521.146865	0.151471
521.363637	0.151887
521.580391	0.152855
521.797127	0.152894
522.013844	0.153457
522.230543	0.153591
522.447224	0.153005
522.663887	0.152124
522.880532	0.152383
523.097158	0.152806
523.313766	0.153010
523.530356	0.152967
523.746928	0.152671
523.963481	0.152166
524.180017	0.152250
524.396534	0.153002
524.613032	0.153559
524.829513	0.153359
525.045975	0.153632
525.262420	0.153773
525.478845	0.153772
525.695253	0.154376
525.911643	0.154873
526.128014	0.154867
526.344367	0.154876
526.560702	0.155078
526.777018	0.155541
526.993316	0.156750
527.209597	0.157122
527.425858	0.157848
527.642102	0.157951
527.858328	0.158297
528.074535	0.159071
528.290724	0.160244
528.506894	0.160915
528.723047	0.160977
528.939181	0.161175
529.155297	0.161754
529.371395	0.162200
529.587475	0.162964
529.803536	0.163471
530.019579	0.163834
530.235604	0.163868
530.451611	0.164166
530.667600	0.165455
530.883570	0.165360
531.099522	0.165496
531.315456	0.165491
531.531372	0.166130
531.747269	0.166436
531.963148	0.166143
532.179009	0.165871
532.394852	0.165779
532.610676	0.165658
532.826482	0.166459
533.042271	0.166693
533.258040	0.167403
533.473792	0.167521
533.689525	0.167893
533.905240	0.168491
534.120937	0.169678
534.336616	0.170685
534.552277	0.170484
534.767919	0.170501
534.983543	0.171147
535.199149	0.170467
535.414736	0.170431
535.630306	0.170751
535.845857	0.170794
536.061390	0.170267
536.276904	0.169909
536.492401	0.170803
536.707879	0.170743
536.923339	0.170857
537.138781	0.171910
537.354204	0.171925
537.569610	0.172199
537.784997	0.172743
538.000366	0.173138
538.215716	0.173921
538.431049	0.173974
538.646363	0.174169
538.861659	0.174184
539.076937	0.174037
539.292196	0.174934
539.507438	0.174779
539.722661	0.174650
539.937866	0.174872
540.153052	0.175102
540.368221	0.175144
540.583371	0.175727
540.798503	0.176409
541.013617	0.176830
541.228712	0.176783
541.443789	0.177513
541.658848	0.178342
541.873889	0.179039
542.088912	0.179372
542.303916	0.179959
542.518902	0.180082
542.733870	0.180403
542.948820	0.181113
543.163752	0.181699
543.378665	0.181946
543.593560	0.182560
543.808437	0.182556
544.023295	0.182410
544.238136	0.182908
544.452958	0.183506
544.667762	0.183490
544.882548	0.183597
545.097315	0.183145
545.312064	0.183062
545.526795	0.182868
545.741508	0.183426
545.956203	0.184159
546.170879	0.183953
546.385537	0.183810
546.600177	0.183952
546.814799	0.184335
547.029402	0.184726
547.243988	0.185026
547.458555	0.185263
547.673103	0.185542
547.887634	0.185531
548.102146	0.185951
548.316640	0.186329
548.531116	0.186850
548.745574	0.186752
548.960013	0.187557
549.174435	0.188229
549.388838	0.188483
549.603222	0.188817
549.817589	0.189388
550.031937	0.189519
550.246267	0.189676
550.460579	0.189583
550.674873	0.189843
550.889148	0.190132
551.103405	0.190407
551.317644	0.190805
551.531865	0.190830
551.746068	0.191004
551.960252	0.191498
552.174418	0.191728
552.388566	0.191936
552.602696	0.192028
552.816807	0.191620
553.030900	0.191091
553.244975	0.191144
553.459032	0.190934
553.673070	0.191058
553.887091	0.191102
554.101093	0.191193
554.315077	0.191624
554.529042	0.192130
554.742990	0.192066
554.956919	0.192831
555.170830	0.192936
555.384722	0.193412
555.598597	0.193372
555.812453	0.193420
556.026291	0.193809
556.240111	0.194107
556.453913	0.194051
556.667696	0.195085
556.881461	0.194955
557.095208	0.195432
557.308937	0.195490
557.522647	0.195974
557.736339	0.196207
557.950013	0.195970
558.163669	0.195796
558.377307	0.195842
558.590926	0.195396
558.804527	0.195909
559.018110	0.195927
559.231675	0.196101
559.445221	0.196422
559.658749	0.196993
559.872259	0.197836
560.085751	0.198199
560.299225	0.198832
560.512680	0.199232
560.726117	0.199295
560.939536	0.199527
561.152937	0.199612
561.366319	0.199493
561.579683	0.199378
561.793029	0.199192
562.006357	0.199313
562.219667	0.199565
562.432958	0.199465
562.646231	0.199786
562.859486	0.199875
563.072723	0.200093
563.285941	0.200024
563.499141	0.200089
563.712323	0.200362
563.925487	0.200069
564.138632	0.199752
564.351760	0.199981
564.564869	0.199804
564.777960	0.199854
564.991032	0.199702
565.204087	0.199947
565.417123	0.199941
565.630141	0.199670
565.843140	0.200220
566.056122	0.200874
566.269085	0.201422
566.482030	0.201865
566.694957	0.202026
566.907866	0.202798
567.120756	0.203080
567.333628	0.203108
567.546482	0.203627
567.759318	0.203739
567.972135	0.203677
568.184935	0.203855
568.397716	0.203934
568.610478	0.203890
568.823223	0.203804
569.035949	0.204095
569.248657	0.204725
569.461347	0.205096
569.674019	0.205422
569.886672	0.205518
570.099308	0.205704
570.311925	0.205841
570.524523	0.206481
570.737104	0.206811
570.949666	0.206787
571.162210	0.207334
571.374736	0.207162
571.587244	0.207401
571.799733	0.207641
572.012205	0.207852
572.224658	0.208188
572.437092	0.208385
572.649509	0.208433
572.861907	0.208849
573.074287	0.208585
573.286649	0.208825
573.498993	0.209015
573.711318	0.209178
573.923625	0.208936
574.135914	0.208858
574.348185	0.208776
574.560438	0.208923
574.772672	0.208683
574.984888	0.208900
575.197086	0.209124
575.409266	0.209235
575.621427	0.209229
575.833570	0.209465
576.045695	0.209735
576.257802	0.209953
576.469890	0.209875
576.681961	0.210209
576.894013	0.210046
577.106046	0.210321
577.318062	0.210174
577.530059	0.210379
577.742039	0.210613
577.954000	0.210885
578.165942	0.210925
578.377867	0.211325
578.589773	0.211691
578.801661	0.211952
579.013531	0.212020
579.225382	0.212685
579.437216	0.213025
579.649031	0.213169
579.860828	0.213221
580.072606	0.213213
580.284367	0.213065
580.496109	0.212913
580.707833	0.212968
580.919539	0.213061
581.131227	0.212605
581.342896	0.212682
581.554547	0.213034
581.766180	0.213079
581.977795	0.213477
582.189391	0.213954
582.400969	0.214296
582.612529	0.214206
582.824071	0.214453
583.035595	0.214952
583.247100	0.215130
583.458587	0.215348
583.670056	0.215579
583.881506	0.215929
584.092939	0.216034
584.304353	0.216068
584.515749	0.216576
584.727127	0.216828
584.938486	0.216797
585.149828	0.216855
585.361151	0.216633
585.572456	0.216708
585.783742	0.216841
585.995011	0.217095
586.206261	0.217151
586.417493	0.217492
586.628706	0.217519
586.839902	0.217887
587.051079	0.217941
587.262238	0.218294
587.473379	0.218890
587.684502	0.219079
587.895606	0.219333
588.106692	0.219605
588.317760	0.219403
588.528810	0.219683
588.739841	0.220127
588.950855	0.220194
589.161850	0.220465
589.372827	0.220265
589.583785	0.219942
589.794726	0.220019
590.005648	0.220516
590.216552	0.221001
590.427437	0.221113
590.638305	0.220915
590.849154	0.221338
591.059985	0.221457
591.270798	0.221550
591.481592	0.221820
591.692369	0.221872
591.903127	0.221554
592.113867	0.221641
592.324588	0.221666
592.535292	0.221722
592.745977	0.221737
592.956644	0.221756
593.167293	0.221933
593.377923	0.222353
593.588536	0.222494
593.799130	0.222509
594.009706	0.222373
594.220263	0.222318
594.430803	0.222433
594.641324	0.222731
594.851827	0.223066
595.062312	0.222994
595.272778	0.222654
595.483227	0.222546
595.693657	0.223040
595.904069	0.223067
596.114462	0.223482
596.324838	0.223938
596.535195	0.223754
596.745534	0.223867
596.955855	0.224056
597.166157	0.224206
597.376441	0.224632
597.586707	0.224732
597.796955	0.225559
598.007185	0.225673
598.217396	0.225694
598.427589	0.225981
598.637764	0.226107
598.847921	0.226436
599.058060	0.226814
599.268180	0.227293
599.478282	0.227640
599.688366	0.227537
599.898431	0.227939
600.108479	0.227833
600.318508	0.227645
600.528519	0.227824
600.738511	0.227619
600.948486	0.227869
601.158442	0.227747
601.368380	0.227645
601.578300	0.227567
601.788202	0.227403
601.998085	0.227924
602.207950	0.228718
602.417797	0.228622
602.627626	0.229305
602.837436	0.229335
603.047228	0.229474
603.257002	0.229963
603.466758	0.230146
603.676496	0.230231
603.886215	0.230094
604.095916	0.230053
604.305599	0.230211
604.515264	0.230216
604.724910	0.230776
604.934538	0.230715
605.144148	0.230477
605.353740	0.230621
605.563314	0.231085
605.772869	0.231298
605.982406	0.231258
606.191925	0.231662
606.401425	0.232030
606.610908	0.232018
606.820372	0.232369
607.029818	0.232596
607.239246	0.232568
607.448655	0.232604
607.658047	0.232711
607.867420	0.233162
608.076775	0.233364
608.286111	0.233080
608.495430	0.232829
608.704730	0.232767
608.914012	0.232745
609.123275	0.233325
609.332521	0.233323
609.541748	0.233378
609.750957	0.233240
609.960148	0.233208
610.169321	0.233492
610.378475	0.234101
610.587611	0.234206
610.796729	0.234159
611.005829	0.234045
611.214910	0.234142
611.423974	0.234144
611.633019	0.234268
611.842045	0.234234
612.051054	0.234224
612.260044	0.234141
612.469017	0.234320
612.677970	0.234895
612.886906	0.235033
613.095824	0.235007
613.304723	0.235271
613.513604	0.235535
613.722467	0.235525
613.931311	0.235778
614.140138	0.235932
614.348946	0.236087
614.557736	0.235919
614.766507	0.236014
614.975261	0.236360
615.183996	0.236577
615.392713	0.236464
615.601412	0.236807
615.810092	0.236628
616.018754	0.236616
616.227399	0.236989
616.436024	0.237201
616.644632	0.237522
616.853222	0.237550
617.061793	0.237610
617.270346	0.237814
617.478880	0.238173
617.687397	0.238635
617.895895	0.238857
618.104375	0.238871
618.312837	0.239014
618.521281	0.239104
618.729706	0.239302
618.938113	0.239421
619.146502	0.239550
619.354873	0.239595
619.563226	0.239688
619.771560	0.239845
619.979876	0.240055
620.188174	0.240046
620.396453	0.239979
620.604715	0.240045
620.812958	0.240383
621.021183	0.240696
621.229390	0.240667
621.437578	0.240552
621.645748	0.240724
621.853900	0.240686
622.062034	0.241022
622.270150	0.241142
622.478247	0.241126
622.686326	0.241059
622.894387	0.240731
623.102430	0.240614
623.310454	0.240965
623.518461	0.240792
623.726449	0.240877
623.934418	0.240859
624.142370	0.240970
624.350303	0.241265
624.558218	0.241286
624.766115	0.241787
624.973994	0.242120
625.181855	0.242057
625.389697	0.242452
625.597521	0.242915
625.805327	0.243250
626.013114	0.243374
626.220883	0.243591
626.428634	0.243896
626.636367	0.243922
626.844082	0.243894
627.051778	0.244247
627.259457	0.244250
627.467117	0.244006
627.674758	0.243876
627.882382	0.244017
628.089987	0.243996
628.297574	0.244100
628.505143	0.244420
628.712694	0.244678
628.920226	0.244621
629.127740	0.244718
629.335236	0.245050
629.542714	0.245505
629.750174	0.245793
629.957615	0.245939
630.165038	0.246188
630.372443	0.246028
630.579829	0.246271
630.787198	0.246501
630.994548	0.246660
631.201880	0.246857
631.409194	0.247139
631.616489	0.247294
631.823766	0.247306
632.031025	0.247276
632.238266	0.247687
632.445489	0.247657
632.652693	0.248055
632.859879	0.248385
633.067047	0.248411
633.274197	0.248117
633.481329	0.248277
633.688442	0.248939
633.895537	0.248990
634.102614	0.248989
634.309672	0.249384
634.516713	0.249289
634.723735	0.249346
634.930739	0.249389
635.137724	0.249650
635.344692	0.249752
635.551641	0.249760
635.758572	0.249958
635.965485	0.249870
636.172379	0.249797
636.379256	0.249983
636.586114	0.250135
636.792954	0.250361
636.999775	0.250400
637.206579	0.250460
637.413364	0.250221
637.620131	0.250346
637.826880	0.250780
638.033610	0.250887
638.240323	0.250823
638.447017	0.251051
638.653692	0.251066
638.860350	0.251275
639.066990	0.251482
639.273611	0.251676
639.480214	0.252005
639.686798	0.251986
639.893365	0.252191
640.099913	0.252503
640.306443	0.252462
640.512955	0.252879
640.719449	0.252805
640.925924	0.252552
641.132381	0.252644
641.338820	0.252583
641.545241	0.252955
641.751644	0.253173
641.958028	0.253389
642.164394	0.253639
642.370742	0.253623
642.577071	0.253994
642.783383	0.254756
642.989676	0.255289
643.195951	0.255459
643.402207	0.255717
643.608446	0.255651
643.814666	0.255991
644.020868	0.256276
644.227052	0.256450
644.433218	0.256510
644.639365	0.256477
644.845494	0.256297
645.051605	0.256715
645.257698	0.256854
645.463772	0.257095
645.669828	0.256649
645.875866	0.256275
646.081886	0.256529
646.287888	0.256752
646.493871	0.257025
646.699836	0.257284
646.905783	0.257288
647.111712	0.257429
647.317622	0.257656
647.523514	0.258160
647.729388	0.258780
647.935244	0.258669
648.141082	0.259006
648.346901	0.259111
648.552702	0.259440
648.758485	0.259675
648.964250	0.259864
649.169996	0.260215
649.375724	0.260341
649.581434	0.260473
649.787126	0.260707
649.992800	0.260784
650.198455	0.260763
650.404092	0.260596
650.609711	0.260613
650.815311	0.260393
651.020894	0.260371
651.226458	0.260260
651.432004	0.260194
651.637532	0.260485
651.843041	0.260403
652.048532	0.260557
652.254006	0.260900
652.459460	0.261196
652.664897	0.261717
652.870315	0.261759
653.075716	0.262240
653.281097	0.262697
653.486461	0.263098
653.691807	0.263514
653.897134	0.263626
654.102443	0.263918
654.307734	0.263913
654.513006	0.264088
654.718261	0.264584
654.923497	0.264644
655.128715	0.264615
655.333915	0.264476
655.539096	0.264494
655.744259	0.264822
655.949404	0.265197
656.154531	0.265610
656.359640	0.265572
656.564730	0.265788
656.769802	0.266111
656.974856	0.266506
657.179892	0.266871
657.384909	0.266968
657.589908	0.267051
657.794889	0.266889
657.999852	0.267064
658.204797	0.267396
658.409723	0.267519
658.614631	0.267742
658.819521	0.267970
659.024393	0.268194
659.229246	0.268552
659.434081	0.268879
659.638898	0.269407
659.843697	0.269621
660.048478	0.269676
660.253240	0.269711
660.457984	0.270008
660.662710	0.269933
660.867417	0.269923
661.072107	0.270338
661.276778	0.270464
661.481431	0.270715
661.686066	0.270666
661.890682	0.270692
662.095281	0.271017
662.299861	0.271257
662.504422	0.271468
662.708966	0.271723
662.913491	0.271834
663.117999	0.271826
663.322488	0.271548
663.526958	0.271814
663.731411	0.272165
663.935845	0.272196
664.140261	0.272216
664.344659	0.272454
664.549038	0.272422
664.753400	0.272327
664.957743	0.272463
665.162068	0.272627
665.366375	0.272675
665.570663	0.272655
665.774933	0.272742
665.979185	0.272915
666.183419	0.273153
666.387635	0.273588
666.591832	0.273994
666.796011	0.274320
667.000172	0.274649
667.204315	0.274817
667.408439	0.275273
667.612545	0.275708
667.816634	0.275796
668.020703	0.275856
668.224755	0.275941
668.428788	0.275966
668.632803	0.276353
668.836800	0.276632
669.040779	0.277012
669.244739	0.276986
669.448681	0.277225
669.652605	0.277166
669.856511	0.277527
670.060399	0.277736
670.264268	0.278050
670.468119	0.278262
670.671952	0.278407
670.875767	0.278608
671.079563	0.278907
671.283341	0.278947
671.487101	0.279302
671.690843	0.279526
671.894567	0.279658
672.098272	0.279745
672.301959	0.279815
672.505628	0.279903
672.709278	0.280084
672.912911	0.280272
673.116525	0.280573
673.320121	0.280883
673.523699	0.281035
673.727258	0.281283
673.930799	0.281413
674.134322	0.281507
674.337827	0.281571
674.541314	0.281769
674.744782	0.281973
674.948232	0.282079
675.151664	0.282264
675.355078	0.282321
675.558474	0.282569
675.761851	0.282896
675.965210	0.283113
676.168551	0.283530
676.371873	0.283751
676.575178	0.284148
676.778464	0.284365
676.981732	0.284458
677.184981	0.284985
677.388213	0.285216
677.591426	0.285317
677.794621	0.285694
677.997798	0.285923
678.200956	0.286102
678.404097	0.285953
678.607219	0.286133
678.810323	0.286530
679.013408	0.286589
679.216476	0.286561
679.419525	0.286593
679.622556	0.286803
679.825569	0.286824
680.028563	0.286853
680.231540	0.287419
680.434498	0.287625
680.637438	0.287868
680.840359	0.287944
681.043263	0.288164
681.246148	0.288681
681.449015	0.288851
681.651864	0.289125
681.854694	0.289480
682.057506	0.289544
682.260301	0.289732
682.463076	0.289825
682.665834	0.289982
682.868573	0.290199
683.071295	0.290419
683.273998	0.290592
683.476682	0.290882
683.679349	0.291261
683.881997	0.291453
684.084627	0.291659
684.287239	0.291629
684.489833	0.291875
684.692408	0.292184
684.894965	0.292498
685.097504	0.292443
685.300025	0.292638
685.502527	0.292647
685.705012	0.292629
685.907478	0.292771
686.109925	0.293182
686.312355	0.293303
686.514766	0.293413
686.717159	0.293367
686.919534	0.293689
687.121891	0.293632
687.324230	0.293705
687.526550	0.294148
687.728852	0.294225
687.931136	0.294246
688.133401	0.294401
688.335649	0.294228
688.537878	0.294212
688.740089	0.294414
688.942281	0.294956
689.144456	0.295075
689.346612	0.295155
689.548750	0.295379
689.750870	0.295693
689.952971	0.295884
690.155055	0.296527
690.357120	0.296904
690.559167	0.297103
690.761195	0.297104
690.963206	0.297179
691.165198	0.297333
691.367172	0.297537
691.569128	0.297652
691.771065	0.297855
691.972984	0.298091
692.174885	0.298468
692.376768	0.298670
692.578633	0.298845
692.780479	0.299404
692.982308	0.299504
693.184118	0.299738
693.385909	0.300015
693.587683	0.300036
693.789438	0.299722
693.991175	0.299995
694.192894	0.299938
694.394595	0.300176
694.596277	0.300045
694.797941	0.300463
694.999587	0.300474
695.201215	0.300446
695.402824	0.300758
695.604416	0.301350
695.805989	0.301235
696.007543	0.301534
696.209080	0.301713
696.410598	0.302005
696.612099	0.302063
696.813580	0.302326
697.015044	0.302399
697.216490	0.302298
697.417917	0.302271
697.619326	0.302271
697.820717	0.302219
698.022089	0.302024
698.223444	0.302293
698.424780	0.302204
698.626098	0.302182
698.827397	0.302523
699.028679	0.302797
699.229942	0.302996
699.431187	0.302977
699.632414	0.303225
699.833622	0.303322
700.034813	0.303192
700.235985	0.303252
700.437139	0.303194
700.638274	0.303083
700.839392	0.303366
701.040491	0.303399
701.241572	0.303652
701.442635	0.303757
701.643679	0.303817
701.844706	0.303715
702.045714	0.303624
702.246704	0.303761
702.447675	0.303895
702.648629	0.303767
702.849564	0.303925
703.050481	0.304094
703.251380	0.304034
703.452260	0.304213
703.653122	0.304399
703.853966	0.304564
704.054792	0.304929
704.255600	0.304967
704.456389	0.305015
704.657160	0.304974
704.857913	0.304890
705.058648	0.304847
705.259365	0.304942
705.460063	0.305095
705.660743	0.305551
705.861405	0.305577
706.062048	0.305817
706.262674	0.305837
706.463281	0.305624
706.663870	0.305728
706.864441	0.305949
707.064993	0.306032
707.265527	0.305961
707.466043	0.305816
707.666541	0.305521
707.867021	0.305586
708.067482	0.305696
708.267925	0.306187
708.468350	0.306348
708.668757	0.306561
708.869145	0.306617
709.069516	0.306669
709.269868	0.306627
709.470201	0.306756
709.670517	0.306696
709.870814	0.306796
710.071093	0.306609
710.271354	0.306984
710.471597	0.306904
710.671821	0.306983
710.872028	0.306907
711.072216	0.306906
711.272385	0.307109
711.472537	0.307063
711.672670	0.307060
711.872785	0.307158
712.072882	0.306861
712.272961	0.306737
712.473021	0.306596
712.673063	0.306814
712.873087	0.306948
713.073093	0.307076
713.273081	0.307097
713.473050	0.307033
713.673001	0.306929
713.872934	0.306516
714.072849	0.306769
714.272745	0.306860
714.472623	0.306773
714.672483	0.306637
714.872325	0.306490
715.072148	0.306523
715.271954	0.306425
715.471741	0.306448
715.671509	0.306653
715.871260	0.306618
716.070992	0.306721
716.270707	0.306805
716.470403	0.306830
716.670080	0.306730
716.869740	0.306854
717.069381	0.307060
717.269004	0.306933
717.468609	0.306829
717.668195	0.306501
717.867764	0.306488
718.067314	0.306356
718.266846	0.306264
718.466360	0.306265
718.665855	0.305965
718.865332	0.305737
719.064791	0.305730
719.264232	0.305768
719.463655	0.305860
719.663059	0.305485
719.862445	0.305546
720.061813	0.305604
720.261163	0.305466
720.460494	0.305560
720.659807	0.305635
720.859102	0.305506
721.058379	0.305657
721.257638	0.305546
721.456878	0.305698
721.656100	0.305321
721.855304	0.305459
722.054490	0.305150
722.253657	0.305049
722.452806	0.305035
722.651937	0.305200
722.851050	0.304906
723.050145	0.304793
723.249221	0.304666
723.448279	0.305041
723.647319	0.304719
723.846340	0.305021
724.045344	0.304970
724.244329	0.304569
724.443296	0.304270
724.642245	0.304431
724.841175	0.304398
725.040088	0.304338
725.238982	0.303676
725.437857	0.303665
725.636715	0.303556
725.835554	0.303426
726.034376	0.303494
726.233179	0.303351
726.431963	0.302769
726.630730	0.302725
726.829478	0.302378
727.028208	0.302470
727.226920	0.302256
727.425614	0.301950
727.624289	0.301824
727.822946	0.301804
728.021585	0.301726
728.220206	0.301649
728.418808	0.301511
728.617392	0.301569
728.815958	0.301440
729.014506	0.301324
729.213036	0.301227
729.411547	0.301118
729.610040	0.300658
729.808515	0.300495
730.006972	0.300530
730.205410	0.300448
730.403831	0.300299
730.602233	0.300386
730.800616	0.300250
730.998982	0.300200
731.197329	0.299894
731.395658	0.299790
731.593969	0.299617
731.792262	0.299559
731.990536	0.299435
732.188793	0.299111
732.387031	0.298929
732.585250	0.298781
732.783452	0.298627
732.981635	0.298543
733.179800	0.298767
733.377947	0.298808
733.576076	0.298490
733.774186	0.298151
733.972278	0.298029
734.170352	0.297716
734.368408	0.297696
734.566446	0.297444
734.764465	0.297218
734.962466	0.296728
735.160449	0.296525
735.358413	0.296469
735.556360	0.296492
735.754288	0.296556
735.952198	0.296343
736.150090	0.296073
736.347963	0.295837
736.545818	0.295628
736.743655	0.295654
736.941474	0.295352
737.139275	0.295230
737.337057	0.294978
737.534821	0.294632
737.732567	0.294378
737.930295	0.294110
738.128005	0.294167
738.325696	0.294188
738.523369	0.293761
738.721024	0.293812
738.918660	0.293467
739.116279	0.293331
739.313879	0.293175
739.511461	0.293198
739.709024	0.293097
739.906570	0.292737
740.104097	0.292697
740.301606	0.292617
740.499097	0.292290
740.696569	0.292341
740.894024	0.291860
741.091460	0.291889
741.288878	0.291723
741.486277	0.291512
741.683659	0.291514
741.881022	0.291084
742.078367	0.290933
742.275694	0.290601
742.473002	0.290484
742.670293	0.290489
742.867565	0.289972
743.064819	0.289678
743.262054	0.289330
743.459272	0.288781
743.656471	0.288544
743.853652	0.288424
744.050815	0.288406
744.247959	0.288017
744.445085	0.287694
744.642194	0.287525
744.839283	0.287409
745.036355	0.287237
745.233408	0.287323
745.430444	0.287007
745.627461	0.286801
745.824459	0.286593
746.021440	0.286301
746.218402	0.286144
746.415346	0.285938
746.612272	0.285951
746.809180	0.285750
747.006069	0.285499
747.202940	0.285402
747.399793	0.285157
747.596628	0.285037
747.793444	0.284869
747.990243	0.284965
748.187023	0.284785
748.383784	0.284433
748.580528	0.284178
748.777253	0.284035
748.973960	0.284049
749.170649	0.284005
749.367320	0.283661
749.563973	0.283512
749.760607	0.283185
749.957223	0.283160
750.153821	0.282888
750.350400	0.282798
750.546962	0.282451
750.743505	0.282005
750.940030	0.281552
751.136536	0.281589
751.333025	0.281264
751.529495	0.281099
751.725947	0.281087
751.922381	0.280901
752.118796	0.280748
752.315194	0.280805
752.511573	0.280661
752.707934	0.280597
752.904276	0.280125
753.100601	0.279915
753.296907	0.279789
753.493195	0.279235
753.689465	0.279211
753.885716	0.279156
754.081949	0.278868
754.278164	0.278826
754.474361	0.278758
754.670540	0.278712
754.866700	0.278805
755.062843	0.278705
755.258967	0.278803
755.455072	0.278709
755.651160	0.278524
755.847229	0.278397
756.043280	0.278328
756.239313	0.277922
756.435328	0.277873
756.631324	0.277856
756.827302	0.277505
757.023262	0.277157
757.219204	0.276871
757.415127	0.276904
757.611033	0.276840
757.806920	0.276484
758.002788	0.276377
758.198639	0.276148
758.394471	0.276163
758.590286	0.276026
758.786081	0.275958
758.981859	0.275590
759.177619	0.275361
759.373360	0.275074
759.569083	0.275094
759.764788	0.274956
759.960474	0.274844
760.156143	0.274397
760.351793	0.274335
760.547425	0.274367
760.743038	0.274395
760.938634	0.273920
761.134211	0.273774
761.329770	0.273401
761.525311	0.273277
761.720833	0.273215
761.916338	0.272888
762.111824	0.272653
762.307292	0.272426
762.502741	0.272273
762.698173	0.272058
762.893586	0.272022
763.088981	0.271916
763.284358	0.271715
763.479716	0.271467
763.675057	0.271573
763.870379	0.271242
764.065683	0.271020
764.260968	0.270934
764.456236	0.271049
764.651485	0.270773
764.846716	0.270784
765.041929	0.270835
765.237123	0.270690
765.432299	0.270493
765.627457	0.270819
765.822597	0.270784
766.017719	0.270835
766.212822	0.270761
766.407907	0.270688
766.602974	0.270717
766.798023	0.270655
766.993054	0.270759
767.188066	0.270731
767.383060	0.270613
767.578036	0.270309
767.772993	0.269980
767.967933	0.270062
768.162854	0.270108
768.357757	0.269753
768.552642	0.269559
768.747508	0.269264
768.942356	0.269053
769.137186	0.268794
769.331998	0.269030
769.526792	0.269090
769.721567	0.268819
769.916324	0.268709
770.111063	0.268786
770.305784	0.268927
770.500486	0.268818
770.695171	0.268786
770.889837	0.268659
771.084484	0.268445
771.279114	0.268456
771.473725	0.268576
771.668318	0.268475
771.862893	0.268553
772.057450	0.268164
772.251988	0.268131
772.446509	0.268104
772.641011	0.268199
772.835494	0.268014
773.029960	0.267685
773.224407	0.267426
773.418836	0.267452
773.613247	0.267154
773.807640	0.267437
774.002014	0.267537
774.196370	0.267331
774.390708	0.267265
774.585028	0.267289
774.779330	0.267203
774.973613	0.266836
775.167878	0.266615
775.362125	0.266727
775.556354	0.266498
775.750564	0.266387
775.944756	0.266478
776.138930	0.266151
776.333086	0.266182
776.527223	0.266324
776.721343	0.266659
776.915444	0.266727
777.109526	0.266679
777.303591	0.266917
777.497637	0.267098
777.691666	0.266871
777.885676	0.267223
778.079667	0.267328
778.273641	0.267346
778.467596	0.267393
778.661533	0.267653
778.855452	0.267440
779.049352	0.267143
779.243235	0.266706
779.437099	0.266961
779.630945	0.266796
779.824773	0.266647
780.018582	0.266554
780.212373	0.266310
780.406146	0.265886
780.599901	0.265954
780.793638	0.266099
780.987356	0.266358
781.181056	0.266124
781.374738	0.265877
781.568402	0.265867
781.762047	0.265868
781.955674	0.265828
782.149283	0.265925
782.342874	0.265864
782.536447	0.265880
782.730001	0.265668
782.923537	0.266028
783.117055	0.266277
783.310555	0.266068
783.504036	0.266203
783.697499	0.266451
783.890944	0.266515
784.084371	0.266723
784.277780	0.266624
784.471170	0.266949
784.664542	0.266794
784.857896	0.266909
785.051231	0.267204
785.244549	0.267033
785.437848	0.267120
785.631129	0.267086
785.824392	0.266991
786.017636	0.266940
786.210863	0.266625
786.404071	0.266685
786.597260	0.266749
786.790432	0.266917
786.983585	0.266979
787.176721	0.267176
787.369838	0.267516
787.562936	0.267674
787.756017	0.267929
787.949079	0.268120
788.142123	0.268188
788.335149	0.268117
788.528156	0.268078
788.721146	0.268516
788.914117	0.268465
789.107070	0.268417
789.300005	0.268296
789.492921	0.268239
789.685819	0.268465
789.878699	0.268381
790.071561	0.268624
790.264405	0.268613
790.457230	0.268583
790.650037	0.268492
790.842826	0.268470
791.035597	0.268823
791.228349	0.268737
791.421084	0.268740
791.613800	0.269089
791.806497	0.269018
791.999177	0.269320
792.191838	0.269371
792.384481	0.269644
792.577106	0.269727
792.769713	0.270005
792.962301	0.270226
793.154871	0.270278
793.347423	0.270254
793.539957	0.270392
793.732473	0.270408
793.924970	0.270355
794.117449	0.270342
794.309910	0.270734
794.502353	0.270754
794.694777	0.270883
794.887183	0.271002
795.079571	0.271385
795.271941	0.271332
795.464293	0.271384
795.656626	0.271636
795.848941	0.271933
796.041238	0.271973
796.233516	0.272061
796.425777	0.272280
796.618019	0.272581
796.810243	0.272666
797.002449	0.273239
797.194636	0.273664
797.386805	0.274058
797.578956	0.274250
797.771089	0.274374
797.963204	0.274294
798.155300	0.274483
798.347378	0.274802
798.539438	0.274830
798.731480	0.274999
798.923503	0.274953
799.115509	0.274841
799.307496	0.274954
799.499465	0.275138
799.691415	0.275422
799.883348	0.275892
800.075262	0.276222
800.267158	0.276533
800.459035	0.276341
800.650895	0.276343
800.842736	0.276665
801.034559	0.276769
801.226364	0.277084
801.418150	0.277342
801.609919	0.277295
801.801669	0.277247
801.993401	0.277392
802.185114	0.277784
802.376810	0.278258
802.568487	0.278305
802.760146	0.278561
802.951787	0.278794
803.143409	0.278904
803.335014	0.279139
803.526600	0.279338
803.718168	0.279440
803.909717	0.279744
804.101249	0.279742
804.292762	0.280220
804.484257	0.280485
804.675734	0.280493
804.867192	0.281124
805.058632	0.281389
805.250054	0.281789
805.441458	0.282119
805.632844	0.282113
805.824211	0.282806
806.015561	0.282899
806.206891	0.283279
806.398204	0.283730
806.589499	0.283794
806.780775	0.284040
806.972033	0.284177
807.163273	0.284522
807.354495	0.284797
807.545698	0.284790
807.736883	0.285047
807.928050	0.285026
808.119199	0.285374
808.310329	0.285365
808.501441	0.285842
808.692535	0.286100
808.883611	0.286439
809.074669	0.286698
809.265708	0.286909
809.456729	0.287050
809.647732	0.287392
809.838717	0.287485
810.029683	0.288084
810.220632	0.288134
810.411562	0.288333
810.602474	0.288559
810.793367	0.289138
810.984242	0.289708
811.175100	0.290467
811.365938	0.290959
811.556759	0.291141
811.747562	0.291282
811.938346	0.291744
812.129112	0.292136
812.319860	0.292492
812.510589	0.292578
812.701300	0.292656
812.891994	0.292828
813.082668	0.293017
813.273325	0.293273
813.463964	0.293668
813.654584	0.293903
813.845186	0.294241
814.035769	0.294421
814.226335	0.294705
814.416882	0.294935
814.607411	0.295369
814.797922	0.295871
814.988415	0.296145
815.178889	0.296411
815.369345	0.296629
815.559783	0.296577
815.750203	0.297001
815.940605	0.297288
816.130988	0.297936
816.321353	0.297816
816.511700	0.298140
816.702028	0.298607
816.892339	0.299174
817.082631	0.299565
817.272905	0.300431
817.463161	0.300510
817.653398	0.301049
817.843617	0.301429
818.033819	0.302072
818.224001	0.302216
818.414166	0.302516
818.604312	0.302607
818.794440	0.302975
818.984550	0.303074
819.174642	0.303639
819.364716	0.304137
819.554771	0.304251
819.744808	0.304434
819.934827	0.305149
820.124827	0.305714
820.314810	0.306160
820.504774	0.306493
820.694720	0.307222
820.884647	0.307721
821.074557	0.308325
821.264448	0.308745
821.454321	0.309408
821.644176	0.309552
821.834012	0.310041
822.023831	0.310499
822.213631	0.311086
822.403413	0.311071
822.593176	0.311558
822.782922	0.311674
822.972649	0.312125
823.162358	0.312161
823.352049	0.312824
823.541721	0.313095
823.731376	0.313566
823.921012	0.313656
824.110629	0.314172
824.300229	0.314237
824.489811	0.314663
824.679374	0.315030
824.868919	0.315461
825.058445	0.315638
825.247954	0.316134
825.437444	0.316292
825.626916	0.316433
825.816370	0.316827
826.005806	0.317113
826.195223	0.317694
826.384622	0.317949
826.574003	0.318323
826.763366	0.318706
826.952711	0.319140
827.142037	0.319353
827.331345	0.319987
827.520635	0.320627
827.709906	0.321146
827.899160	0.321300
828.088395	0.321542
828.277612	0.321842
828.466810	0.322227
828.655991	0.322792
828.845153	0.323605
829.034297	0.324275
829.223423	0.324793
829.412531	0.325348
829.601620	0.325538
829.790691	0.326203
829.979744	0.327018
830.168779	0.327218
830.357795	0.327227
830.546793	0.327585
830.735773	0.327877
830.924735	0.327675
831.113679	0.328201
831.302604	0.328868
831.491511	0.329566
831.680400	0.330150
831.869271	0.330719
832.058123	0.331169
832.246957	0.331430
832.435773	0.331953
832.624571	0.332657
832.813351	0.332892
833.002112	0.333110
833.190855	0.333467
833.379580	0.333777
833.568287	0.334131
833.756975	0.334506
833.945645	0.335273
834.134297	0.335732
834.322931	0.336476
834.511547	0.336911
834.700144	0.337565
834.888723	0.337981
835.077284	0.338240
835.265826	0.338736
835.454351	0.339491
835.642857	0.339952
835.831345	0.340242
836.019815	0.340524
836.208266	0.341108
836.396699	0.341531
836.585114	0.341625
836.773511	0.342096
836.961890	0.342618
837.150250	0.342846
837.338592	0.343126
837.526916	0.343627
837.715222	0.344064
837.903510	0.344609
838.091779	0.344857
838.280030	0.345927
838.468263	0.346342
838.656477	0.346948
838.844674	0.347572
839.032852	0.348382
839.221012	0.349054
839.409153	0.349486
839.597277	0.349841
839.785382	0.350554
839.973469	0.350417
840.161538	0.350925
840.349589	0.351223
840.537621	0.351757
840.725635	0.351847
840.913631	0.352230
841.101609	0.352612
841.289568	0.352822
841.477509	0.353553
841.665432	0.354343
841.853337	0.354969
842.041224	0.355340
842.229092	0.355766
842.416942	0.356320
842.604774	0.356947
842.792588	0.357412
842.980383	0.357741
843.168160	0.358097
843.355919	0.358463
843.543660	0.358808
843.731382	0.359595
843.919087	0.360095
844.106773	0.360608
844.294441	0.360738
844.482090	0.361464
844.669722	0.362132
844.857335	0.362504
845.044930	0.363162
845.232507	0.363678
845.420065	0.364083
845.607605	0.364735
845.795127	0.365316
845.982631	0.366181
846.170117	0.366438
846.357584	0.366992
846.545033	0.367385
846.732464	0.367912
846.919877	0.368667
847.107272	0.369338
847.294648	0.369278
847.482006	0.369694
847.669346	0.370041
847.856667	0.370719
848.043971	0.371400
848.231256	0.372109
848.418523	0.372647
848.605771	0.373052
848.793002	0.373365
848.980214	0.374318
849.167408	0.374682
849.354584	0.375360
849.541742	0.375674
849.728881	0.376294
849.916002	0.376483
850.103105	0.376948
850.290190	0.377209
850.477256	0.377718
850.664304	0.378165
850.851334	0.378743
851.038346	0.379117
851.225340	0.379904
851.412315	0.380226
851.599272	0.380930
851.786211	0.381350
851.973132	0.382339
852.160034	0.382922
852.346918	0.383157
852.533784	0.383481
852.720632	0.383727
852.907462	0.383968
853.094273	0.384324
853.281066	0.384659
853.467841	0.384734
853.654598	0.384528
853.841336	0.384845
854.028056	0.385380
854.214758	0.385982
854.401442	0.386923
854.588107	0.387257
854.774755	0.387642
854.961384	0.387956
855.147995	0.388393
855.334587	0.388958
855.521162	0.389411
855.707718	0.389850
855.894256	0.390344
856.080775	0.390399
856.267277	0.390998
856.453760	0.391671
856.640225	0.392221
856.826672	0.393071
857.013101	0.393453
857.199511	0.393564
857.385903	0.393775
857.572277	0.394298
857.758633	0.394434
857.944970	0.394661
858.131290	0.395107
858.317591	0.395710
858.503873	0.395641
858.690138	0.396155
858.876384	0.396704
859.062612	0.397321
859.248822	0.397544
859.435014	0.398504
859.621188	0.398841
859.807343	0.399085
859.993480	0.399907
860.179599	0.400940
860.365699	0.401322
860.551781	0.402086
860.737846	0.402268
860.923891	0.402755
861.109919	0.403345
861.295929	0.404153
861.481920	0.404521
861.667893	0.404464
861.853848	0.404718
862.039784	0.405356
862.225702	0.405661
862.411603	0.406500
862.597484	0.406527
862.783348	0.406485
862.969193	0.406630
863.155021	0.407291
863.340830	0.407835
863.526620	0.408055
863.712393	0.408426
863.898147	0.408972
864.083883	0.410007
864.269601	0.410648
864.455301	0.411381
864.640982	0.411912
864.826645	0.411942
865.012290	0.412331
865.197917	0.413083
865.383526	0.413560
865.569116	0.413925
865.754688	0.413534
865.940242	0.414099
866.125777	0.414192
866.311295	0.414252
866.496794	0.414948
866.682275	0.415641
866.867737	0.415690
867.053182	0.415513
867.238608	0.415815
867.424016	0.416284
867.609406	0.416546
867.794778	0.416912
867.980131	0.417524
868.165466	0.417993
868.350783	0.417941
868.536082	0.418393
868.721362	0.418967
868.906625	0.418979
869.091869	0.419409
869.277094	0.419658
869.462302	0.419829
869.647491	0.420281
869.832662	0.420344
870.017815	0.420557
870.202950	0.420147
870.388066	0.420679
870.573165	0.421275
870.758245	0.421074
870.943306	0.421468
871.128350	0.421707
871.313375	0.421971
871.498382	0.422350
871.683371	0.422622
871.868342	0.423409
872.053294	0.423602
872.238229	0.423945
872.423144	0.424954
872.608042	0.425063
872.792922	0.425411
872.977783	0.425728
873.162626	0.426336
873.347451	0.426623
873.532258	0.427183
873.717046	0.427747
873.901816	0.427700
874.086568	0.427603
874.271302	0.427588
874.456017	0.428148
874.640715	0.428574
874.825394	0.428908
875.010055	0.429238
875.194697	0.429503
875.379322	0.429381
875.563928	0.429668
875.748516	0.430070
875.933085	0.431093
876.117637	0.431107
876.302170	0.431216
876.486685	0.431390
876.671182	0.431965
876.855661	0.432360
877.040121	0.433038
877.224563	0.433493
877.408987	0.433797
877.593393	0.433746
877.777780	0.434365
877.962150	0.434812
878.146501	0.435001
878.330833	0.434734
878.515148	0.434790
878.699444	0.434757
878.883722	0.434726
879.067982	0.434713
879.252224	0.435223
879.436447	0.435391
879.620653	0.435382
879.804840	0.435004
879.989008	0.435288
880.173159	0.435152
880.357291	0.435597
880.541405	0.436329
880.725501	0.436579
880.909579	0.436717
881.093638	0.436940
881.277680	0.436492
881.461703	0.436782
881.645707	0.437353
881.829694	0.438002
882.013662	0.438231
882.197612	0.438335
882.381544	0.438659
882.565458	0.438665
882.749353	0.438474
882.933230	0.439001
883.117089	0.439434
883.300930	0.439227
883.484753	0.439294
883.668557	0.438903
883.852343	0.438999
884.036111	0.438725
884.219861	0.438643
884.403592	0.438894
884.587305	0.439258
884.771000	0.439626
884.954677	0.439863
885.138335	0.440114
885.321976	0.440559
885.505598	0.440556
885.689201	0.440685
885.872787	0.441022
886.056354	0.441358
886.239904	0.441648
886.423434	0.440951
886.606947	0.441488
886.790442	0.441364
886.973918	0.441257
887.157376	0.441480
887.340816	0.441608
887.524237	0.441685
887.707641	0.441486
887.891026	0.441112
888.074393	0.441945
888.257741	0.441340
888.441072	0.441364
888.624384	0.441856
888.807678	0.441292
888.990954	0.441484
889.174211	0.440667
889.357451	0.441032
889.540672	0.441098
889.723875	0.440891
889.907059	0.441159
890.090226	0.441252
890.273374	0.440735
890.456504	0.441061
890.639616	0.440933
890.822709	0.441279
891.005785	0.440574
891.188842	0.440883
891.371881	0.440935
891.554901	0.440610
891.737904	0.440861
891.920888	0.440818
892.103854	0.440886
892.286802	0.440639
892.469731	0.440549
892.652643	0.440742
892.835536	0.440241
893.018410	0.439423
893.201267	0.439506
893.384106	0.438965
893.566926	0.438572
893.749728	0.438069
893.932511	0.438712
894.115277	0.438887
894.298024	0.438906
894.480753	0.438634
894.663464	0.439258
894.846157	0.439122
895.028831	0.438890
895.211487	0.439770
895.394125	0.439499
895.576745	0.438877
895.759346	0.438700
895.941930	0.438150
896.124495	0.437974
896.307041	0.437524
896.489570	0.437627
896.672080	0.437379
896.854573	0.436345
897.037046	0.436520
897.219502	0.436167
897.401940	0.436302
897.584359	0.436687
897.766760	0.436910
897.949143	0.436547
898.131507	0.436723
898.313854	0.437024
898.496182	0.437058
898.678492	0.436400
898.860783	0.436140
899.043057	0.435871
899.225312	0.435298
899.407549	0.434940
899.589768	0.434918
899.771968	0.434248
899.954151	0.433206
900.136315	0.432753
900.318461	0.433035
900.500588	0.432460
900.682698	0.432289
900.864789	0.431560
901.046862	0.431171
901.228917	0.430645
901.410953	0.429452
901.592971	0.429621
901.774972	0.429225
901.956953	0.428485
902.138917	0.428119
902.320862	0.427420
902.502790	0.427733
902.684699	0.427285
902.866589	0.427140
903.048462	0.427964
903.230316	0.427965
903.412152	0.427934
903.593970	0.428512
903.775770	0.428773
903.957551	0.428128
904.139314	0.428086
904.321059	0.428527
904.502786	0.428302
904.684494	0.427951
904.866185	0.427217
905.047857	0.427089
905.229510	0.425893
905.411146	0.425002
905.592763	0.424731
905.774363	0.424304
905.955943	0.423393
906.137506	0.422842
906.319051	0.422218
906.500577	0.421364
906.682085	0.420723
906.863575	0.420702
907.045046	0.420725
907.226500	0.420669
907.407935	0.420257
907.589352	0.420168
907.770750	0.419944
907.952131	0.419232
908.133493	0.419614
908.314837	0.419475
908.496163	0.418762
908.677470	0.418592
908.858760	0.418724
909.040031	0.418304
909.221284	0.417323
909.402518	0.416240
909.583735	0.415174
909.764933	0.414276
909.946113	0.413278
910.127275	0.413046
910.308418	0.411781
910.489544	0.410294
910.670651	0.409799
910.851740	0.409552
911.032810	0.409838
911.213863	0.410656
911.394897	0.410387
911.575913	0.409694
911.756911	0.408790
911.937890	0.409183
912.118851	0.409179
912.299794	0.407856
912.480719	0.407450
912.661626	0.406399
912.842514	0.405800
913.023384	0.404782
913.204236	0.404438
913.385070	0.403962
913.565886	0.403239
913.746683	0.402069
913.927462	0.401526
914.108223	0.400242
914.288965	0.399204
914.469690	0.397585
914.650396	0.397812
914.831084	0.397516
915.011754	0.396662
915.192405	0.395836
915.373038	0.395481
915.553653	0.395055
915.734250	0.394593
915.914829	0.394651
916.095389	0.394358
916.275931	0.393277
916.456455	0.392184
916.636961	0.392206
916.817448	0.391490
916.997917	0.391477
917.178368	0.391293
917.358801	0.390283
917.539216	0.389179
917.719612	0.388348
917.899990	0.387703
918.080350	0.386694
918.260692	0.385983
918.441015	0.385951
918.621320	0.384461
918.801607	0.383390
918.981876	0.383532
919.162127	0.383568
919.342359	0.382742
919.522573	0.382110
919.702769	0.382133
919.882947	0.381490
920.063106	0.379754
920.243247	0.379374
920.423370	0.378478
920.603475	0.377285
920.783562	0.375978
920.963630	0.375750
921.143680	0.374882
921.323712	0.373825
921.503725	0.372976
921.683721	0.372859
921.863698	0.372507
922.043657	0.371641
922.223598	0.371671
922.403520	0.371262
922.583424	0.369955
922.763311	0.368849
922.943178	0.367802
923.123028	0.366182
923.302859	0.365546
923.482673	0.364007
923.662467	0.363482
923.842244	0.362403
924.022003	0.361154
924.201743	0.360282
924.381465	0.359464
924.561169	0.358915
924.740854	0.358677
924.920522	0.357495
925.100171	0.356913
925.279802	0.356100
925.459414	0.354875
925.639009	0.354784
925.818585	0.354705
925.998143	0.354831
926.177683	0.354253
926.357205	0.353290
926.536708	0.351967
926.716193	0.351459
926.895660	0.350840
927.075109	0.350959
927.254539	0.350359
927.433951	0.348724
927.613345	0.347515
927.792721	0.346219
927.972079	0.345743
928.151418	0.345009
928.330739	0.343888
928.510042	0.342769
928.689327	0.340713
928.868593	0.339100
929.047841	0.339301
929.227071	0.337718
929.406283	0.337766
929.585476	0.336781
929.764652	0.335940
929.943809	0.335247
930.122948	0.334487
930.302068	0.333126
930.481171	0.331406
930.660255	0.329132
930.839321	0.328438
931.018369	0.326753
931.197398	0.325207
931.376409	0.323980
931.555402	0.322963
931.734377	0.322033
931.913334	0.322046
932.092272	0.321747
932.271192	0.321313
932.450094	0.320745
932.628978	0.319722
932.807844	0.318449
932.986691	0.317506
933.165520	0.316100
933.344331	0.314972
933.523123	0.312902
933.701898	0.310971
933.880654	0.310217
934.059392	0.308441
934.238111	0.307927
934.416813	0.307397
934.595496	0.306326
934.774161	0.305670
934.952808	0.304191
935.131437	0.303557
935.310047	0.302707
935.488639	0.301891
935.667213	0.301482
935.845769	0.300139
936.024306	0.298293
936.202825	0.297905
936.381326	0.295358
936.559809	0.294608
936.738274	0.293630
936.916720	0.293149
937.095148	0.291005
937.273558	0.290002
937.451950	0.289372
937.630323	0.289829
937.808678	0.288273
937.987015	0.289429
938.165334	0.288085
938.343635	0.286606
938.521917	0.285414
938.700181	0.284819
938.878427	0.283220
939.056655	0.281924
939.234864	0.280194
939.413055	0.279421
939.591228	0.277228
939.769383	0.276607
939.947519	0.276194
940.125638	0.275337
940.303738	0.274301
940.481820	0.272919
940.659883	0.271074
940.837929	0.270061
941.015956	0.268881
941.193965	0.266800
941.371955	0.265121
941.549928	0.264078
941.727882	0.262365
941.905818	0.260806
942.083736	0.259928
942.261636	0.258192
942.439517	0.257166
942.617380	0.256139
942.795225	0.256886
942.973052	0.255427
943.150860	0.253532
943.328651	0.252920
943.506423	0.251058
943.684176	0.250308
943.861912	0.248116
944.039629	0.246143
944.217328	0.245632
944.395009	0.243823
944.572672	0.243098
944.750317	0.242100
944.927943	0.241556
945.105551	0.241572
945.283141	0.239844
945.460712	0.240263
945.638265	0.238837
945.815801	0.235687
945.993317	0.234025
946.170816	0.232549
946.348297	0.230476
946.525759	0.227916
946.703203	0.226904
946.880629	0.225368
947.058036	0.222850
947.235425	0.221728
947.412797	0.220359
947.590149	0.218047
947.767484	0.217614
947.944800	0.218108
948.122099	0.218032
948.299379	0.216566
948.476640	0.214830
948.653884	0.215182
948.831109	0.213598
949.008316	0.214473
949.185505	0.213640
949.362676	0.211092
949.539828	0.209786
949.716962	0.208193
949.894078	0.207290
950.071176	0.205359
950.248256	0.203106
950.425317	0.202497
950.602360	0.200049
950.779385	0.198601
950.956391	0.197804
951.133380	0.196171
951.310350	0.194833
951.487302	0.193472
951.664235	0.193350
951.841151	0.194510
952.018048	0.193598
952.194927	0.193087
952.371788	0.191666
952.548631	0.189302
952.725455	0.186865
952.902261	0.186238
953.079049	0.184637
953.255819	0.185051
953.432570	0.183269
953.609303	0.182568
953.786018	0.181167
953.962715	0.180191
954.139394	0.182049
954.316054	0.182793
954.492696	0.180960
954.669320	0.179821
954.845926	0.176598
955.022513	0.174513
955.199083	0.173088
955.375634	0.170780
955.552166	0.170867
955.728681	0.168335
955.905177	0.165372
956.081655	0.164387
956.258115	0.164559
956.434557	0.164204
956.610980	0.162636
956.787385	0.161022
956.963772	0.162469
957.140141	0.160992
957.316492	0.160316
957.492824	0.161688
957.669138	0.162926
957.845434	0.161139
958.021712	0.160037
958.197971	0.161060
958.374212	0.160180
958.550435	0.157985
958.726640	0.158119
958.902826	0.155601
959.078995	0.154175
959.255145	0.152213
959.431277	0.150346
959.607390	0.151105
959.783486	0.148474
959.959563	0.149389
960.135622	0.150453
960.311662	0.150439
960.487685	0.150287
960.663689	0.149494
960.839675	0.148562
961.015643	0.149881
961.191593	0.147091
961.367524	0.147029
961.543437	0.146298
961.719332	0.144891
961.895209	0.144001
962.071067	0.143292
962.246907	0.141850
962.422730	0.141352
962.598533	0.141627
962.774319	0.141955
962.950086	0.141469
963.125835	0.140072
963.301566	0.138702
963.477279	0.136838
963.652973	0.137151
963.828650	0.139557
964.004308	0.137798
964.179947	0.133628
964.355569	0.132915
964.531172	0.131427
964.706757	0.132419
964.882324	0.132135
965.057873	0.132575
965.233403	0.131067
965.408916	0.128622
965.584410	0.129526
965.759885	0.130986
965.935343	0.131036
966.110782	0.131438
966.286203	0.127769
966.461606	0.126487
966.636991	0.123101
966.812357	0.123997
966.987705	0.123942
967.163035	0.122636
967.338347	0.122162
967.513641	0.122128
967.688916	0.120614
967.864173	0.122358
968.039412	0.123758
968.214632	0.126909
968.389835	0.125126
968.565019	0.126558
968.740185	0.126591
968.915333	0.124294
969.090462	0.126387
969.265573	0.127437
969.440667	0.125637
969.615741	0.125350
969.790798	0.123829
969.965836	0.126546
970.140856	0.125527
970.315858	0.124603
970.490842	0.127736
970.665808	0.123797
970.840755	0.125293
971.015684	0.126800
971.190595	0.127041
971.365487	0.127266
971.540362	0.126193
971.715218	0.126739
971.890056	0.128167
972.064875	0.127769
972.239677	0.132977
972.414460	0.130216
972.589225	0.130079
972.763972	0.130320
972.938700	0.130721
973.113411	0.130613
973.288103	0.129767
973.462777	0.128408
973.637432	0.127218
973.812070	0.122508
973.986689	0.124423
974.161290	0.124224
974.335873	0.120420
974.510437	0.121638
974.684984	0.122212
974.859512	0.122095
975.034022	0.122630
975.208513	0.123936
975.382987	0.124572
975.557442	0.126116
975.731879	0.125297
975.906298	0.127799
976.080698	0.126507
976.255080	0.127956
976.429445	0.127918
976.603790	0.127731
976.778118	0.124448
976.952427	0.125744
977.126719	0.123993
977.300992	0.124796
977.475246	0.124127
977.649483	0.125690
977.823701	0.123164
977.997901	0.123695
978.172083	0.123983
978.346247	0.126962
978.520392	0.124666
978.694519	0.123481
978.868628	0.123603
979.042719	0.123977
979.216791	0.123972
979.390845	0.123462
979.564882	0.123274
979.738899	0.125341
979.912899	0.125248
980.086880	0.125397
980.260843	0.124148
980.434788	0.125348
980.608715	0.127667
980.782623	0.125219
980.956514	0.126722
981.130386	0.125162
981.304240	0.123750
981.478075	0.123276
981.651892	0.124043
981.825692	0.126850
981.999472	0.126406
982.173235	0.124606
982.346980	0.126373
982.520706	0.126724
982.694414	0.127592
982.868104	0.126056
983.041775	0.126589
983.215428	0.126819
983.389064	0.125765
983.562680	0.123710
983.736279	0.123693
983.909860	0.123731
984.083422	0.123094
984.256966	0.123250
984.430491	0.125800
984.603999	0.124150
984.777488	0.124672
984.950959	0.125946
985.124412	0.128541
985.297847	0.127067
985.471263	0.126266
985.644661	0.125689
985.818041	0.126716
985.991403	0.124248
986.164747	0.125828
986.338072	0.125123
986.511379	0.124866
986.684668	0.124543
986.857938	0.128001
987.031191	0.129294
987.204425	0.129937
987.377641	0.129562
987.550839	0.127846
987.724018	0.128604
987.897179	0.128841
988.070322	0.129048
988.243447	0.130159
988.416554	0.128115
988.589642	0.128427
988.762712	0.127526
988.935764	0.126407
989.108798	0.130498
989.281813	0.128108
989.454811	0.129363
989.627790	0.129683
989.800751	0.127510
989.973693	0.128523
990.146617	0.126642
990.319524	0.127995
990.492412	0.129418
990.665281	0.130003
990.838133	0.131520
991.010966	0.129930
991.183781	0.129538
991.356578	0.129235
991.529356	0.127961
991.702117	0.128545
991.874859	0.127178
992.047583	0.126245
992.220288	0.125082
992.392976	0.124858
992.565645	0.126945
992.738296	0.125200
992.910929	0.125231
993.083543	0.123588
993.256139	0.122904
993.428718	0.122454
993.601277	0.122659
993.773819	0.122401
993.946342	0.122453
994.118848	0.119943
994.291335	0.119457
994.463803	0.119927
994.636254	0.123150
994.808686	0.122344
994.981100	0.124285
995.153496	0.124102
995.325874	0.123919
995.498233	0.123300
995.670574	0.123763
995.842897	0.126348
996.015202	0.126724
996.187488	0.126002
996.359757	0.127952
996.532007	0.126803
996.704239	0.127852
996.876452	0.126766
997.048648	0.127102
997.220825	0.128168
997.392984	0.127718
997.565124	0.127789
997.737247	0.128365
997.909351	0.127701
998.081437	0.127299
998.253505	0.125487
998.425554	0.125448
998.597586	0.125892
998.769599	0.125755
998.941594	0.126316
999.113571	0.126279
999.285529	0.123938
999.457469	0.124731
999.629391	0.125292
999.801295	0.126298
999.973181	0.127094
1000.145048	0.126611
1000.316897	0.125682
1000.488728	0.124060
1000.660541	0.125152
1000.832335	0.127596
1001.004111	0.127504
1001.175869	0.128185
1001.347609	0.126401
1001.519331	0.128219
1001.691034	0.129430
1001.862719	0.130251
1002.034386	0.131993
1002.206035	0.130405
1002.377665	0.128735
1002.549277	0.128197
1002.720871	0.128653
1002.892447	0.129655
1003.064004	0.126311
1003.235544	0.126100
1003.407065	0.126054
1003.578568	0.123995
1003.750052	0.123829
1003.921519	0.124067
1004.092967	0.123901
1004.264397	0.123071
1004.435809	0.122781
1004.607202	0.124087
1004.778577	0.121521
1004.949934	0.122327
1005.121273	0.124567
1005.292594	0.124242
1005.463896	0.123799
1005.635180	0.124135
1005.806446	0.122465
1005.977694	0.121204
1006.148923	0.121892
1006.320135	0.122940
1006.491328	0.122130
1006.662503	0.119969
1006.833659	0.121357
1007.004798	0.122420
1007.175918	0.121107
1007.347020	0.123700
1007.518103	0.127756
1007.689169	0.127344
1007.860216	0.128214
1008.031245	0.129001
1008.202256	0.129616
1008.373248	0.129008
1008.544223	0.128535
1008.715179	0.129953
1008.886117	0.129943
1009.057036	0.128737
1009.227938	0.130748
1009.398821	0.128515
1009.569686	0.127894
1009.740533	0.127637
1009.911361	0.128088
1010.082172	0.126507
1010.252964	0.127771
1010.423738	0.128237
1010.594493	0.126600
1010.765231	0.124572
1010.935950	0.125683
1011.106651	0.124775
1011.277334	0.124611
1011.447998	0.123971
1011.618645	0.124635
1011.789273	0.122790
1011.959882	0.122965
1012.130474	0.122320
1012.301048	0.122394
1012.471603	0.124436
1012.642140	0.124251
1012.812658	0.125644
1012.983159	0.127020
1013.153641	0.126833
1013.324105	0.127127
1013.494551	0.124879
1013.664979	0.126385
1013.835388	0.128136
1014.005779	0.128752
1014.176152	0.129759
1014.346507	0.129853
1014.516843	0.128098
1014.687162	0.128565
1014.857462	0.129085
1015.027744	0.129520
1015.198007	0.128989
1015.368252	0.125934
1015.538480	0.122508
1015.708689	0.121066
1015.878879	0.119824
1016.049052	0.120538
1016.219206	0.120234
1016.389342	0.119998
1016.559460	0.120752
1016.729559	0.121056
1016.899641	0.121455
1017.069704	0.123625
1017.239749	0.124016
1017.409775	0.123525
1017.579784	0.121456
1017.749774	0.123298
1017.919746	0.123963
1018.089700	0.125356
1018.259635	0.124208
1018.429553	0.125722
1018.599452	0.126333
1018.769333	0.125716
1018.939195	0.125687
1019.109040	0.126490
1019.278866	0.124066
1019.448674	0.121875
1019.618464	0.119893
1019.788235	0.120074
1019.957989	0.119690
1020.127724	0.119551
1020.297441	0.122350
1020.467139	0.123129
1020.636820	0.123306
1020.806482	0.126657
1020.976126	0.129369
1021.145752	0.129747
1021.315359	0.131453
1021.484948	0.132317
1021.654519	0.130652
1021.824072	0.129507
1021.993607	0.127809
1022.163123	0.128752
1022.332621	0.125540
1022.502101	0.124449
1022.671563	0.122420
1022.841007	0.119929
1023.010432	0.118836
1023.179839	0.119074
1023.349228	0.119602
1023.518598	0.122534
1023.687951	0.123188
1023.857285	0.123869
1024.026601	0.122671
1024.195899	0.123224
1024.365178	0.123100
1024.534439	0.122520
1024.703682	0.122412
1024.872907	0.123102
1025.042114	0.123700
1025.211302	0.122444
1025.380472	0.124140
1025.549624	0.123608
1025.718758	0.125774
1025.887873	0.126617
1026.056970	0.126479
1026.226049	0.128087
1026.395110	0.124916
1026.564153	0.123566
1026.733177	0.123758
1026.902183	0.121887
1027.071171	0.122233
1027.240141	0.120469
1027.409092	0.122832
1027.578026	0.123983
1027.746940	0.123171
1027.915837	0.123739
1028.084716	0.123360
1028.253576	0.123284
1028.422418	0.123738
1028.591242	0.125093
1028.760048	0.125250
1028.928835	0.123724
1029.097604	0.124689
1029.266355	0.122773
1029.435088	0.123332
1029.603803	0.121328
1029.772499	0.122083
1029.941177	0.123310
1030.109837	0.120094
1030.278478	0.120180
1030.447102	0.119471
1030.615707	0.118545
1030.784294	0.122234
1030.952863	0.122791
1031.121413	0.126118
1031.289945	0.126000
1031.458460	0.124946
1031.626955	0.129394
1031.795433	0.128265
1031.963892	0.129805
1032.132334	0.128320
1032.300756	0.126703
1032.469161	0.127513
1032.637548	0.127836
1032.805916	0.125005
1032.974266	0.125274
1033.142598	0.125303
1033.310911	0.126645
1033.479207	0.125847
1033.647484	0.125867
1033.815743	0.125002
1033.983983	0.125149
1034.152206	0.123450
1034.320410	0.125510
1034.488596	0.124051
1034.656764	0.122351
1034.824914	0.122807
1034.993045	0.122970
1035.161158	0.124804
1035.329253	0.124443
1035.497330	0.124653
1035.665388	0.124550
1035.833428	0.125042
1036.001450	0.126109
1036.169454	0.128463
1036.337440	0.128477
1036.505407	0.128862
1036.673356	0.129450
1036.841287	0.128992
1037.009200	0.129681
1037.177094	0.127746
1037.344970	0.127920
1037.512828	0.128707
1037.680668	0.126646
1037.848489	0.125889
1038.016293	0.126421
1038.184078	0.125441
1038.351845	0.126251
1038.519593	0.123469
1038.687324	0.123940
1038.855036	0.122833
1039.022730	0.121915
1039.190406	0.122765
1039.358063	0.124763
1039.525702	0.122366
1039.693323	0.121940
1039.860926	0.121382
1040.028511	0.120743
1040.196077	0.121882
1040.363625	0.122192
1040.531155	0.123126
1040.698667	0.121669
1040.866161	0.121598
1041.033636	0.122119
1041.201093	0.121191
1041.368532	0.122828
1041.535952	0.124767
1041.703355	0.124953
1041.870739	0.126048
1042.038105	0.126017
1042.205452	0.127938
1042.372782	0.127946
1042.540093	0.129478
1042.707386	0.129541
1042.874661	0.127901
1043.041918	0.126886
1043.209156	0.126367
1043.376376	0.126901
1043.543578	0.124124
1043.710762	0.122551
1043.877927	0.121504
1044.045074	0.120997
1044.212203	0.123047
1044.379314	0.123325
1044.546407	0.123640
1044.713481	0.124599
1044.880537	0.124460
1045.047575	0.128599
1045.214595	0.126048
1045.381596	0.125222
1045.548579	0.126202
1045.715544	0.123666
1045.882491	0.123426
1046.049420	0.122867
1046.216330	0.122513
1046.383222	0.120111
1046.550096	0.118393
1046.716951	0.119927
1046.883789	0.119565
1047.050608	0.118737
1047.217409	0.119615
1047.384192	0.121263
1047.550956	0.122701
1047.717703	0.122330
1047.884431	0.124051
1048.051140	0.124505
1048.217832	0.124186
1048.384505	0.123620
1048.551161	0.123271
1048.717798	0.123313
1048.884416	0.121830
1049.051017	0.121196
1049.217599	0.120161
1049.384163	0.120800
1049.550709	0.120043
1049.717237	0.122965
1049.883746	0.123177
1050.050237	0.122876
1050.216710	0.123522
1050.383165	0.123183
1050.549601	0.122153
1050.716019	0.123691
1050.882420	0.122975
1051.048801	0.124355
1051.215165	0.123292
1051.381510	0.124621
1051.547837	0.124442
1051.714146	0.124201
1051.880437	0.126474
1052.046709	0.125493
1052.212964	0.125340
1052.379200	0.124898
1052.545417	0.122168
1052.711617	0.122005
1052.877798	0.120809
1053.043961	0.122307
1053.210106	0.121449
1053.376233	0.121727
1053.542341	0.125133
1053.708432	0.124809
1053.874504	0.124795
1054.040557	0.126078
1054.206593	0.123970
1054.372610	0.125776
1054.538609	0.125312
1054.704590	0.125421
1054.870553	0.124959
1055.036497	0.122050
1055.202424	0.122029
1055.368331	0.122075
1055.534221	0.120632
1055.700093	0.123661
1055.865946	0.121775
1056.031781	0.120789
1056.197598	0.122845
1056.363397	0.121384
1056.529177	0.123053
1056.694939	0.123031
1056.860683	0.123328
1057.026409	0.124362
1057.192116	0.123334
1057.357806	0.125530
1057.523477	0.126252
1057.689130	0.125409
1057.854764	0.127085
1058.020381	0.126866
1058.185979	0.129097
1058.351559	0.129119
1058.517120	0.129796
1058.682664	0.129234
1058.848189	0.127477
1059.013696	0.127954
1059.179185	0.127755
1059.344656	0.126570
1059.510108	0.128193
1059.675542	0.127007
1059.840958	0.126859
1060.006356	0.127211
1060.171735	0.129837
1060.337096	0.132019
1060.502439	0.131274
1060.667764	0.132147
1060.833071	0.131324
1060.998359	0.127867
1061.163629	0.128219
1061.328881	0.129576
1061.494115	0.128655
1061.659330	0.127602
1061.824527	0.125474
1061.989706	0.127536
1062.154867	0.126243
1062.320010	0.127688
1062.485134	0.128696
1062.650240	0.127641
1062.815328	0.127925
1062.980398	0.128797
1063.145449	0.128067
1063.310482	0.129260
1063.475497	0.126890
1063.640494	0.126664
1063.805473	0.126353
1063.970433	0.126581
1064.135375	0.124979
1064.300299	0.123892
1064.465204	0.124519
1064.630092	0.125708
1064.794961	0.125233
1064.959812	0.124081
1065.124645	0.126100
1065.289459	0.126973
1065.454256	0.128328
1065.619034	0.130271
1065.783793	0.130520
1065.948535	0.128141
1066.113258	0.125118
1066.277964	0.126478
1066.442651	0.129161
1066.607319	0.127035
1066.771970	0.125207
1066.936602	0.125651
1067.101216	0.127381
1067.265812	0.127465
1067.430389	0.129917
1067.594949	0.129605
1067.759490	0.130175
1067.924013	0.129452
1068.088518	0.129586
1068.253004	0.128113
1068.417472	0.127415
1068.581922	0.126144
1068.746354	0.127252
1068.910768	0.126685
1069.075163	0.127094
1069.239540	0.124242
1069.403899	0.122910
1069.568240	0.124052
1069.732562	0.125165
1069.896866	0.124782
1070.061152	0.125070
1070.225420	0.125163
1070.389670	0.125523
1070.553901	0.129101
1070.718114	0.129585
1070.882309	0.131531
1071.046486	0.129981
1071.210644	0.131316
1071.374784	0.131022
1071.538906	0.129118
1071.703010	0.128287
1071.867096	0.127405
1072.031163	0.125087
1072.195212	0.125551
1072.359243	0.127132
1072.523256	0.131986
1072.687250	0.131924
1072.851226	0.133673
1073.015184	0.134583
1073.179124	0.134021
1073.343045	0.134419
1073.506949	0.135141
1073.670834	0.135570
1073.834701	0.133122
1073.998549	0.130092
1074.162380	0.130401
1074.326192	0.130466
1074.489986	0.131082
1074.653761	0.130739
1074.817519	0.129781
1074.981258	0.130525
1075.144979	0.130091
1075.308682	0.129947
1075.472367	0.129857
1075.636033	0.130753
1075.799681	0.130729
1075.963311	0.131778
1076.126923	0.133160
1076.290516	0.135946
1076.454092	0.131986
1076.617649	0.134456
1076.781187	0.134781
1076.944708	0.135834
1077.108210	0.133743
1077.271695	0.134067
1077.435160	0.132676
1077.598608	0.129614
1077.762038	0.128532
1077.925449	0.134080
1078.088842	0.131806
1078.252217	0.134118
1078.415573	0.134716
1078.578912	0.135214
1078.742232	0.135478
1078.905534	0.136195
1079.068817	0.138851
1079.232083	0.139810
1079.395330	0.139223
1079.558559	0.138880
1079.721770	0.138238
1079.884962	0.136983
1080.048136	0.137588
1080.211293	0.136697
1080.374430	0.137685
1080.537550	0.138593
1080.700651	0.138887
1080.863735	0.138097
1081.026800	0.139826
1081.189846	0.140224
1081.352875	0.142905
1081.515885	0.144197
1081.678877	0.145021
1081.841851	0.143980
1082.004807	0.144107
1082.167744	0.146293
1082.330663	0.145922
1082.493564	0.149051
1082.656447	0.147559
1082.819312	0.144636
1082.982158	0.144185
1083.144986	0.143530
1083.307796	0.142926
1083.470587	0.141355
1083.633361	0.139143
1083.796116	0.137843
1083.958853	0.135031
1084.121571	0.135568
1084.284272	0.136313
1084.446954	0.137027
1084.609618	0.139392
1084.772264	0.140566
1084.934892	0.142130
1085.097501	0.140993
1085.260092	0.141608
1085.422665	0.138739
1085.585220	0.140472
1085.747756	0.138627
1085.910274	0.137908
1086.072774	0.138302
1086.235256	0.138030
1086.397720	0.138601
1086.560165	0.136821
1086.722592	0.141066
1086.885001	0.145192
1087.047392	0.144718
1087.209764	0.145286
1087.372119	0.144527
1087.534455	0.143638
1087.696772	0.143178
1087.859072	0.142660
1088.021353	0.146638
1088.183616	0.142152
1088.345861	0.141060
1088.508088	0.140149
1088.670296	0.142674
1088.832486	0.142755
1088.994658	0.140928
1089.156812	0.140254
1089.318948	0.137804
1089.481065	0.135746
1089.643164	0.140040
1089.805245	0.142307
1089.967308	0.142339
1090.129352	0.140453
1090.291378	0.139434
1090.453386	0.142276
1090.615376	0.143821
1090.777347	0.143255
1090.939301	0.144386
1091.101236	0.143962
1091.263153	0.140523
1091.425051	0.141842
1091.586932	0.141813
1091.748794	0.143241
1091.910638	0.138998
1092.072463	0.140486
1092.234271	0.142948
1092.396060	0.139438
1092.557831	0.136380
1092.719584	0.135800
1092.881319	0.136039
1093.043035	0.137815
1093.204733	0.139769
1093.366413	0.139073
1093.528075	0.139351
1093.689718	0.139504
1093.851343	0.141962
1094.012950	0.144907
1094.174539	0.146618
1094.336110	0.145040
1094.497662	0.143275
1094.659196	0.142847
1094.820712	0.145039
1094.982210	0.144924
1095.143689	0.141086
1095.305151	0.145390
1095.466594	0.145107
1095.628018	0.147751
1095.789425	0.150932
1095.950813	0.152642
1096.112183	0.155550
1096.273535	0.160458
1096.434869	0.160876
1096.596184	0.164786
1096.757482	0.157840
1096.918761	0.158601
1097.080021	0.157833
1097.241264	0.155909
1097.402488	0.153442
1097.563694	0.152040
1097.724882	0.145872
1097.886052	0.145597
1098.047203	0.145791
1098.208336	0.148791
1098.369451	0.148308
1098.530548	0.149975
1098.691627	0.149447
1098.852687	0.150765
1099.013729	0.149936
1099.174753	0.154540
1099.335758	0.155415
1099.496746	0.155445
1099.657715	0.158170
1099.818666	0.156789
1099.979599	0.153912
1100.140513	0.157088
1100.301409	0.157654
1100.462287	0.157330
1100.623147	0.155019
1100.783989	0.156087
1100.944812	0.157038
1101.105617	0.152716
1101.266404	0.152716
1101.427173	0.154338
1101.587923	0.147693
1101.748656	0.149783
1101.909370	0.148887
1102.070066	0.151019
1102.230743	0.149261
1102.391403	0.149438
1102.552044	0.150098
1102.712667	0.151894
1102.873271	0.153969
1103.033858	0.155396
1103.194426	0.154407
1103.354976	0.158661
1103.515508	0.157252
1103.676021	0.159938
1103.836517	0.158182
1103.996994	0.162597
1104.157453	0.160239
1104.317893	0.155838
1104.478316	0.156772
1104.638720	0.157966
1104.799106	0.153772
1104.959474	0.154395
1105.119823	0.153608
1105.280155	0.155761
1105.440468	0.153079
1105.600763	0.152779
1105.761039	0.158621
1105.921298	0.161612
1106.081538	0.154966
1106.241760	0.155275
1106.401964	0.158163
1106.562149	0.154982
1106.722316	0.154474
1106.882465	0.155058
1107.042596	0.153426
1107.202709	0.144977
1107.362803	0.144279
1107.522879	0.150053
1107.682937	0.151636
1107.842977	0.151678
1108.002999	0.154137
1108.163002	0.154273
1108.322987	0.155202
1108.482954	0.158117
1108.642902	0.161061
1108.802833	0.158363
1108.962745	0.161184
1109.122639	0.164310
1109.282515	0.159207
1109.442372	0.157203
1109.602211	0.158381
1109.762032	0.154831
1109.921835	0.152102
1110.081620	0.155575
1110.241386	0.158459
1110.401134	0.153082
1110.560864	0.149238
1110.720576	0.154644
1110.880269	0.158662
1111.039945	0.161510
1111.199602	0.163519
1111.359240	0.164460
1111.518861	0.159296
1111.678463	0.160091
1111.838047	0.163620
1111.997613	0.168246
1112.157161	0.168620
1112.316690	0.167505
1112.476202	0.165139
1112.635695	0.163850
1112.795169	0.169834
1112.954626	0.171726
1113.114064	0.168304
1113.273484	0.168620
1113.432886	0.165016
1113.592270	0.159504
1113.751635	0.159631
1113.910983	0.161058
1114.070312	0.163442
1114.229622	0.158998
1114.388915	0.158014
1114.548189	0.160165
1114.707445	0.157273
1114.866683	0.156106
1115.025903	0.159393
1115.185104	0.158817
1115.344287	0.156865
1115.503452	0.153978
1115.662599	0.159087
1115.821727	0.161019
1115.980838	0.166401
1116.139930	0.168961
1116.299004	0.174566
1116.458059	0.171774
1116.617097	0.169956
1116.776116	0.168340
1116.935117	0.168537
1117.094099	0.165730
1117.253064	0.169971
1117.412010	0.168700
1117.570938	0.170935
1117.729848	0.169071
1117.888740	0.168241
1118.047613	0.167353
1118.206468	0.169844
1118.365305	0.168313
1118.524124	0.165993
1118.682924	0.162993
1118.841707	0.153210
1119.000471	0.149715
1119.159216	0.149935
1119.317944	0.154757
1119.476653	0.156886
1119.635344	0.157300
1119.794017	0.161266
1119.952672	0.160772
1120.111308	0.162578
1120.269927	0.169406
1120.428527	0.171124
1120.587108	0.166839
1120.745672	0.161716
1120.904217	0.163021
1121.062744	0.160355
1121.221253	0.158702
1121.379744	0.157692
1121.538216	0.153862
1121.696671	0.152301
1121.855107	0.152401
1122.013524	0.152308
1122.171924	0.152651
1122.330305	0.150976
1122.488668	0.149147
1122.647013	0.151134
1122.805340	0.158766
1122.963648	0.162351
1123.121938	0.164880
1123.280210	0.164847
1123.438464	0.164892
1123.596700	0.171529
1123.754917	0.170406
1123.913116	0.178435
1124.071297	0.177654
1124.229459	0.168288
1124.387604	0.167230
1124.545730	0.165618
1124.703838	0.165990
1124.861928	0.168108
1125.019999	0.163527
1125.178052	0.165848
1125.336088	0.163660
1125.494104	0.165316
1125.652103	0.168011
1125.810083	0.165621
1125.968045	0.166829
1126.125989	0.170335
1126.283915	0.169511
1126.441823	0.171530
1126.599712	0.168576
1126.757583	0.168127
1126.915436	0.171131
1127.073270	0.172233
1127.231087	0.173465
1127.388885	0.170538
1127.546665	0.164290
1127.704426	0.164432
1127.862170	0.167357
1128.019895	0.167428
1128.177602	0.165363
1128.335291	0.166756
1128.492961	0.173418
1128.650614	0.178389
1128.808248	0.178111
1128.965864	0.181458
1129.123461	0.182758
1129.281041	0.181062
1129.438602	0.188381
1129.596145	0.187476
1129.753670	0.187174
1129.911176	0.177190
1130.068665	0.172889
1130.226135	0.174756
1130.383587	0.179219
1130.541020	0.178692
1130.698436	0.175708
1130.855833	0.174860
1131.013212	0.176428
1131.170573	0.168612
1131.327915	0.177370
1131.485239	0.177713
1131.642545	0.177435
1131.799833	0.169269
1131.957103	0.171906
1132.114354	0.169048
1132.271588	0.160797
1132.428803	0.155228
1132.585999	0.157411
1132.743178	0.151430
1132.900338	0.151591
1133.057480	0.159957
1133.214604	0.165423
1133.371710	0.158016
1133.528797	0.163270
1133.685866	0.170039
1133.842917	0.177925
1133.999950	0.177207
1134.156964	0.176763
1134.313960	0.171404
1134.470938	0.157022
1134.627898	0.152329
1134.784840	0.155862
1134.941763	0.155850
1135.098668	0.150928
1135.255555	0.156281
1135.412424	0.163656
1135.569274	0.170543
1135.726107	0.177146
1135.882921	0.184464
1136.039716	0.185207
1136.196494	0.186860
1136.353253	0.182843
1136.509995	0.184001
1136.666717	0.182492
1136.823422	0.175372
1136.980109	0.172106
1137.136777	0.170331
1137.293427	0.169957
1137.450059	0.169171
1137.606672	0.163278
1137.763267	0.166726
1137.919844	0.172130
1138.076403	0.168256
1138.232944	0.172170
1138.389466	0.170793
1138.545971	0.174838
1138.702457	0.176372
1138.858924	0.174400
1139.015374	0.181132
1139.171805	0.188977
1139.328218	0.186083
1139.484613	0.192582
1139.640990	0.189356
1139.797348	0.188007
1139.953688	0.182413
1140.110010	0.188083
1140.266314	0.193696
1140.422600	0.196678
1140.578867	0.190271
1140.735116	0.185951
1140.891347	0.180002
1141.047559	0.178502
1141.203754	0.178743
1141.359930	0.177568
1141.516088	0.175239
1141.672228	0.168660
1141.828349	0.169381
1141.984452	0.170984
1142.140537	0.176497
1142.296604	0.176785
1142.452653	0.174917
1142.608683	0.178233
1142.764695	0.175122
1142.920689	0.171286
1143.076665	0.176489
1143.232622	0.174828
1143.388562	0.166110
1143.544483	0.162461
1143.700385	0.152644
1143.856270	0.153590
1144.012136	0.143392
1144.167985	0.147238
1144.323814	0.151287
1144.479626	0.153006
1144.635420	0.151181
1144.791195	0.159419
1144.946952	0.158612
1145.102691	0.151873
1145.258411	0.161701
1145.414113	0.167674
1145.569798	0.172081
1145.725463	0.163018
1145.881111	0.168395
1146.036741	0.168370
1146.192352	0.158529
1146.347945	0.161663
1146.503519	0.178105
1146.659076	0.180835
1146.814614	0.191054
1146.970134	0.188477
1147.125636	0.198707
1147.281120	0.188784
1147.436585	0.187991
1147.592032	0.189832
1147.747461	0.184706
1147.902872	0.188552
1148.058265	0.182094
1148.213639	0.173663
1148.368995	0.178093
1148.524333	0.170290
1148.679653	0.168858
1148.834954	0.168040
1148.990237	0.166455
1149.145502	0.165703
1149.300749	0.165600
1149.455977	0.164261
1149.611188	0.158755
1149.766380	0.159693
1149.921553	0.166727
1150.076709	0.177312
1150.231846	0.180743
1150.386966	0.179509
1150.542066	0.183978
1150.697149	0.179877
1150.852214	0.182916
1151.007260	0.183271
1151.162288	0.174771
1151.317298	0.176732
1151.472289	0.166564
1151.627263	0.164339
1151.782218	0.174298
1151.937155	0.177251
1152.092073	0.168401
1152.246974	0.163811
1152.401856	0.169436
1152.556720	0.166709
1152.711566	0.163595
1152.866393	0.169315
1153.021203	0.176105
1153.175994	0.163813
1153.330767	0.167557
1153.485521	0.173928
1153.640258	0.177596
1153.794976	0.177720
1153.949676	0.187551
1154.104358	0.180126
1154.259021	0.183000
1154.413667	0.166703
1154.568294	0.183555
1154.722903	0.174344
1154.877493	0.169313
1155.032066	0.164928
1155.186620	0.172930
1155.341156	0.171023
1155.495674	0.170786
1155.650173	0.174230
1155.804654	0.185599
1155.959118	0.179872
1156.113562	0.178801
1156.267989	0.187413
1156.422397	0.190448
1156.576788	0.177343
1156.731160	0.177356
1156.885513	0.189718
1157.039849	0.187899
1157.194166	0.183047
1157.348465	0.186347
1157.502746	0.197710
1157.657009	0.199916
1157.811253	0.193493
1157.965479	0.196030
1158.119687	0.188617
1158.273877	0.196702
1158.428048	0.195869
1158.582201	0.200310
1158.736337	0.202784
1158.890453	0.184625
1159.044552	0.177587
1159.198632	0.182878
1159.352694	0.180832
1159.506738	0.188672
1159.660764	0.170969
1159.814771	0.165377
1159.968761	0.168669
1160.122732	0.163253
1160.276685	0.178645
1160.430619	0.179913
1160.584535	0.173967
1160.738434	0.178159
1160.892313	0.181385
1161.046175	0.184214
1161.200019	0.190611
1161.353844	0.185196
1161.507651	0.179417
1161.661440	0.174113
1161.815210	0.169405
1161.968962	0.177445
1162.122697	0.172196
1162.276412	0.177524
1162.430110	0.183477
1162.583789	0.189007
1162.737451	0.184727
1162.891094	0.184510
1163.044718	0.184060
1163.198325	0.181388
1163.351913	0.181868
1163.505483	0.188372
1163.659035	0.185467
1163.812569	0.182729
1163.966084	0.169651
1164.119581	0.169786
1164.273060	0.177481
1164.426521	0.185813
1164.579964	0.197767
1164.733388	0.189535
1164.886794	0.186768
1165.040182	0.178564
1165.193551	0.172249
1165.346903	0.177433
1165.500236	0.179049
1165.653551	0.184707
1165.806848	0.178334
1165.960126	0.171808
1166.113386	0.167651
1166.266628	0.164875
1166.419852	0.156319
1166.573058	0.162414
1166.726245	0.166403
1166.879414	0.179111
1167.032565	0.161805
1167.185698	0.164449
1167.338812	0.179019
1167.491909	0.177714
1167.644987	0.185504
1167.798046	0.193295
1167.951088	0.190193
1168.104111	0.176873
1168.257117	0.158370
1168.410103	0.170888
1168.563072	0.162484
1168.716023	0.148315
1168.868955	0.161191
1169.021869	0.145838
1169.174765	0.155416
1169.327642	0.143935
1169.480501	0.160594
1169.633343	0.166112
1169.786165	0.149917
1169.938970	0.154601
1170.091757	0.166510
1170.244525	0.159707
1170.397275	0.183231
1170.550007	0.184587
1170.702720	0.204105
1170.855415	0.197098
1171.008092	0.185201
1171.160751	0.182837
1171.313392	0.167358
1171.466014	0.248773
1171.618619	0.051390
1171.771205	0.051390
1171.923772	0.051390
