sample name	sample
index	210
start time	 02-22-2021  09:50:37 AM


Wavelength (nm)	Absorbance
494.344910	0.006262
494.563924	0.006262
494.782919	0.006262
495.001897	-0.043727
495.220856	-0.006608
495.439797	-0.012113
495.658719	-0.008816
495.877624	-0.007304
496.096510	0.001638
496.315378	-0.020651
496.534227	-0.008138
496.753059	-0.005864
496.971872	0.013791
497.190667	0.049482
497.409444	0.052778
497.628203	0.052309
497.846943	0.053816
498.065665	0.055788
498.284369	0.056794
498.503055	0.058256
498.721723	0.058193
498.940372	0.057942
499.159003	0.056923
499.377616	0.058319
499.596210	0.059096
499.814787	0.059196
500.033345	0.059108
500.251885	0.059836
500.470406	0.059177
500.688910	0.059321
500.907395	0.058753
501.125862	0.059716
501.344311	0.058721
501.562742	0.058841
501.781154	0.059853
501.999548	0.059956
502.217924	0.059452
502.436282	0.059968
502.654621	0.060060
502.872942	0.060696
503.091245	0.060592
503.309530	0.061381
503.527797	0.061783
503.746045	0.060505
503.964275	0.060564
504.182487	0.060094
504.400681	0.059098
504.618856	0.059117
504.837013	0.059217
505.055152	0.059271
505.273273	0.059152
505.491376	0.059185
505.709460	0.059501
505.927526	0.058626
506.145574	0.058652
506.363604	0.059094
506.581615	0.058287
506.799608	0.058633
507.017583	0.058836
507.235540	0.058714
507.453478	0.057887
507.671399	0.057842
507.889301	0.058252
508.107185	0.059603
508.325050	0.060504
508.542898	0.061277
508.760727	0.061051
508.978538	0.060660
509.196330	0.060339
509.414105	0.060750
509.631861	0.061527
509.849599	0.061971
510.067319	0.061141
510.285021	0.060165
510.502704	0.060205
510.720369	0.060400
510.938016	0.060564
511.155645	0.061393
511.373255	0.061558
511.590848	0.061605
511.808422	0.061714
512.025977	0.061974
512.243515	0.062188
512.461034	0.062142
512.678536	0.062265
512.896018	0.062354
513.113483	0.062081
513.330930	0.062164
513.548358	0.061113
513.765768	0.060625
513.983160	0.060522
514.200533	0.060520
514.417889	0.061268
514.635226	0.061653
514.852545	0.061532
515.069845	0.061624
515.287128	0.062466
515.504392	0.063006
515.721638	0.063768
515.938866	0.063602
516.156075	0.063996
516.373267	0.063327
516.590440	0.063228
516.807594	0.063798
517.024731	0.063603
517.241850	0.063639
517.458950	0.064122
517.676032	0.063734
517.893095	0.064143
518.110141	0.064330
518.327168	0.064642
518.544177	0.064786
518.761168	0.064445
518.978141	0.064303
519.195095	0.063689
519.412031	0.063889
519.628949	0.064616
519.845849	0.064607
520.062731	0.064410
520.279594	0.064324
520.496439	0.064247
520.713266	0.064976
520.930074	0.065298
521.146865	0.064968
521.363637	0.064671
521.580391	0.064260
521.797127	0.064645
522.013844	0.065178
522.230543	0.065943
522.447224	0.065952
522.663887	0.064913
522.880532	0.065396
523.097158	0.065411
523.313766	0.065445
523.530356	0.065437
523.746928	0.065957
523.963481	0.065314
524.180017	0.065364
524.396534	0.065717
524.613032	0.066035
524.829513	0.065909
525.045975	0.066872
525.262420	0.067941
525.478845	0.068491
525.695253	0.068120
525.911643	0.068578
526.128014	0.069007
526.344367	0.069422
526.560702	0.070131
526.777018	0.070727
526.993316	0.070699
527.209597	0.070415
527.425858	0.070334
527.642102	0.070914
527.858328	0.071188
528.074535	0.070981
528.290724	0.070452
528.506894	0.070273
528.723047	0.069890
528.939181	0.069915
529.155297	0.069714
529.371395	0.070302
529.587475	0.070437
529.803536	0.070309
530.019579	0.070532
530.235604	0.070989
530.451611	0.071172
530.667600	0.071075
530.883570	0.071286
531.099522	0.071306
531.315456	0.070835
531.531372	0.070612
531.747269	0.070914
531.963148	0.070738
532.179009	0.071104
532.394852	0.071067
532.610676	0.071506
532.826482	0.071556
533.042271	0.071676
533.258040	0.072019
533.473792	0.071997
533.689525	0.072256
533.905240	0.072666
534.120937	0.072349
534.336616	0.073016
534.552277	0.073385
534.767919	0.073473
534.983543	0.073884
535.199149	0.074060
535.414736	0.074423
535.630306	0.074627
535.845857	0.074827
536.061390	0.074995
536.276904	0.075235
536.492401	0.075123
536.707879	0.075391
536.923339	0.075924
537.138781	0.076325
537.354204	0.076548
537.569610	0.076708
537.784997	0.076340
538.000366	0.076908
538.215716	0.076784
538.431049	0.076944
538.646363	0.077178
538.861659	0.076803
539.076937	0.076798
539.292196	0.076829
539.507438	0.077085
539.722661	0.077486
539.937866	0.077700
540.153052	0.077705
540.368221	0.077816
540.583371	0.077718
540.798503	0.078206
541.013617	0.078221
541.228712	0.078382
541.443789	0.078329
541.658848	0.078738
541.873889	0.078440
542.088912	0.079041
542.303916	0.079271
542.518902	0.079341
542.733870	0.078902
542.948820	0.079364
543.163752	0.079278
543.378665	0.079127
543.593560	0.078966
543.808437	0.078906
544.023295	0.078622
544.238136	0.078678
544.452958	0.079040
544.667762	0.079268
544.882548	0.079153
545.097315	0.079506
545.312064	0.079973
545.526795	0.080269
545.741508	0.080975
545.956203	0.080660
546.170879	0.080664
546.385537	0.080224
546.600177	0.080649
546.814799	0.080837
547.029402	0.080863
547.243988	0.081302
547.458555	0.081282
547.673103	0.080811
547.887634	0.081594
548.102146	0.081869
548.316640	0.082542
548.531116	0.082712
548.745574	0.082403
548.960013	0.082309
549.174435	0.082311
549.388838	0.082148
549.603222	0.082930
549.817589	0.082834
550.031937	0.083063
550.246267	0.083135
550.460579	0.082645
550.674873	0.083310
550.889148	0.083798
551.103405	0.083692
551.317644	0.084414
551.531865	0.084348
551.746068	0.084398
551.960252	0.084136
552.174418	0.084122
552.388566	0.084782
552.602696	0.084486
552.816807	0.084780
553.030900	0.084981
553.244975	0.084573
553.459032	0.084519
553.673070	0.084478
553.887091	0.084752
554.101093	0.085028
554.315077	0.085031
554.529042	0.085151
554.742990	0.084906
554.956919	0.085119
555.170830	0.085376
555.384722	0.085358
555.598597	0.085889
555.812453	0.086267
556.026291	0.086370
556.240111	0.086705
556.453913	0.086655
556.667696	0.086738
556.881461	0.086797
557.095208	0.086889
557.308937	0.087081
557.522647	0.086897
557.736339	0.086771
557.950013	0.086933
558.163669	0.086569
558.377307	0.087050
558.590926	0.087168
558.804527	0.087073
559.018110	0.087369
559.231675	0.087618
559.445221	0.087901
559.658749	0.088057
559.872259	0.087904
560.085751	0.088099
560.299225	0.088255
560.512680	0.088385
560.726117	0.088180
560.939536	0.088034
561.152937	0.088134
561.366319	0.088096
561.579683	0.088141
561.793029	0.088611
562.006357	0.088872
562.219667	0.088451
562.432958	0.088939
562.646231	0.089282
562.859486	0.089442
563.072723	0.088976
563.285941	0.088882
563.499141	0.089304
563.712323	0.089233
563.925487	0.089259
564.138632	0.089523
564.351760	0.089285
564.564869	0.089414
564.777960	0.089565
564.991032	0.090111
565.204087	0.090294
565.417123	0.089890
565.630141	0.089966
565.843140	0.090120
566.056122	0.090259
566.269085	0.090506
566.482030	0.090440
566.694957	0.090713
566.907866	0.090810
567.120756	0.090924
567.333628	0.091367
567.546482	0.091315
567.759318	0.091450
567.972135	0.091834
568.184935	0.091901
568.397716	0.091925
568.610478	0.092107
568.823223	0.092323
569.035949	0.092537
569.248657	0.092552
569.461347	0.093103
569.674019	0.092824
569.886672	0.092881
570.099308	0.093009
570.311925	0.093183
570.524523	0.093017
570.737104	0.092857
570.949666	0.092951
571.162210	0.093014
571.374736	0.092939
571.587244	0.093585
571.799733	0.093626
572.012205	0.093454
572.224658	0.093751
572.437092	0.093979
572.649509	0.094116
572.861907	0.094184
573.074287	0.094067
573.286649	0.093853
573.498993	0.093524
573.711318	0.093451
573.923625	0.093690
574.135914	0.093631
574.348185	0.093760
574.560438	0.093853
574.772672	0.093776
574.984888	0.093576
575.197086	0.093699
575.409266	0.094200
575.621427	0.094244
575.833570	0.093952
576.045695	0.094338
576.257802	0.094386
576.469890	0.094277
576.681961	0.094330
576.894013	0.094996
577.106046	0.094998
577.318062	0.094802
577.530059	0.095005
577.742039	0.095067
577.954000	0.094989
578.165942	0.095021
578.377867	0.095693
578.589773	0.095989
578.801661	0.096175
579.013531	0.096534
579.225382	0.097012
579.437216	0.097376
579.649031	0.097670
579.860828	0.097678
580.072606	0.097677
580.284367	0.097513
580.496109	0.097735
580.707833	0.097796
580.919539	0.098090
581.131227	0.097822
581.342896	0.097723
581.554547	0.098069
581.766180	0.098282
581.977795	0.098448
582.189391	0.098368
582.400969	0.098196
582.612529	0.098385
582.824071	0.097966
583.035595	0.098221
583.247100	0.098550
583.458587	0.098171
583.670056	0.098230
583.881506	0.098248
584.092939	0.098661
584.304353	0.098760
584.515749	0.098799
584.727127	0.099093
584.938486	0.099081
585.149828	0.098924
585.361151	0.099599
585.572456	0.099534
585.783742	0.099846
585.995011	0.099990
586.206261	0.100203
586.417493	0.100106
586.628706	0.100224
586.839902	0.100380
587.051079	0.100418
587.262238	0.100388
587.473379	0.100672
587.684502	0.100588
587.895606	0.100427
588.106692	0.100668
588.317760	0.100692
588.528810	0.100953
588.739841	0.100915
588.950855	0.100783
589.161850	0.100798
589.372827	0.100782
589.583785	0.100513
589.794726	0.100670
590.005648	0.100807
590.216552	0.101021
590.427437	0.100921
590.638305	0.101193
590.849154	0.101551
591.059985	0.101690
591.270798	0.101670
591.481592	0.102282
591.692369	0.102328
591.903127	0.102236
592.113867	0.102307
592.324588	0.102301
592.535292	0.102386
592.745977	0.102422
592.956644	0.102470
593.167293	0.102603
593.377923	0.102641
593.588536	0.102928
593.799130	0.103130
594.009706	0.103051
594.220263	0.103258
594.430803	0.103354
594.641324	0.103610
594.851827	0.103574
595.062312	0.103789
595.272778	0.103574
595.483227	0.103227
595.693657	0.103524
595.904069	0.103940
596.114462	0.103919
596.324838	0.103454
596.535195	0.103465
596.745534	0.103797
596.955855	0.103869
597.166157	0.104139
597.376441	0.104589
597.586707	0.104423
597.796955	0.104302
598.007185	0.104527
598.217396	0.104938
598.427589	0.104769
598.637764	0.104742
598.847921	0.104830
599.058060	0.104594
599.268180	0.104605
599.478282	0.104444
599.688366	0.104512
599.898431	0.104583
600.108479	0.104798
600.318508	0.105254
600.528519	0.105378
600.738511	0.105351
600.948486	0.105778
601.158442	0.105919
601.368380	0.106345
601.578300	0.106604
601.788202	0.106735
601.998085	0.106691
602.207950	0.106762
602.417797	0.106691
602.627626	0.106821
602.837436	0.106916
603.047228	0.106595
603.257002	0.106576
603.466758	0.106526
603.676496	0.106637
603.886215	0.106903
604.095916	0.106502
604.305599	0.106971
604.515264	0.106899
604.724910	0.106818
604.934538	0.107418
605.144148	0.107377
605.353740	0.107104
605.563314	0.107015
605.772869	0.107068
605.982406	0.107691
606.191925	0.107382
606.401425	0.107742
606.610908	0.107784
606.820372	0.107471
607.029818	0.107606
607.239246	0.107871
607.448655	0.107835
607.658047	0.107909
607.867420	0.107808
608.076775	0.108090
608.286111	0.108013
608.495430	0.108047
608.704730	0.108111
608.914012	0.108062
609.123275	0.108071
609.332521	0.108277
609.541748	0.108350
609.750957	0.108160
609.960148	0.108146
610.169321	0.108204
610.378475	0.108322
610.587611	0.108362
610.796729	0.108461
611.005829	0.108649
611.214910	0.108734
611.423974	0.108973
611.633019	0.109229
611.842045	0.109426
612.051054	0.109628
612.260044	0.110010
612.469017	0.110116
612.677970	0.110269
612.886906	0.110271
613.095824	0.110317
613.304723	0.109944
613.513604	0.110045
613.722467	0.110239
613.931311	0.110187
614.140138	0.110111
614.348946	0.110353
614.557736	0.110702
614.766507	0.110768
614.975261	0.110762
615.183996	0.110982
615.392713	0.110943
615.601412	0.110772
615.810092	0.111040
616.018754	0.111087
616.227399	0.110986
616.436024	0.110680
616.644632	0.110889
616.853222	0.111051
617.061793	0.111303
617.270346	0.111388
617.478880	0.111586
617.687397	0.111567
617.895895	0.111523
618.104375	0.111940
618.312837	0.112262
618.521281	0.112305
618.729706	0.112268
618.938113	0.111984
619.146502	0.112094
619.354873	0.112025
619.563226	0.112084
619.771560	0.112290
619.979876	0.111914
620.188174	0.111974
620.396453	0.112077
620.604715	0.112107
620.812958	0.112162
621.021183	0.111964
621.229390	0.112093
621.437578	0.112157
621.645748	0.112027
621.853900	0.112486
622.062034	0.112383
622.270150	0.112531
622.478247	0.112768
622.686326	0.113033
622.894387	0.113251
623.102430	0.113119
623.310454	0.113023
623.518461	0.112976
623.726449	0.112711
623.934418	0.112723
624.142370	0.112904
624.350303	0.112748
624.558218	0.112790
624.766115	0.113053
624.973994	0.113056
625.181855	0.113317
625.389697	0.113838
625.597521	0.114020
625.805327	0.114168
626.013114	0.113897
626.220883	0.114030
626.428634	0.114241
626.636367	0.114211
626.844082	0.114540
627.051778	0.114473
627.259457	0.114309
627.467117	0.114334
627.674758	0.114534
627.882382	0.114710
628.089987	0.114888
628.297574	0.114751
628.505143	0.114818
628.712694	0.114759
628.920226	0.114802
629.127740	0.115075
629.335236	0.115141
629.542714	0.115063
629.750174	0.115083
629.957615	0.114901
630.165038	0.114976
630.372443	0.114963
630.579829	0.115284
630.787198	0.115452
630.994548	0.115383
631.201880	0.115442
631.409194	0.115374
631.616489	0.115391
631.823766	0.115564
632.031025	0.115860
632.238266	0.115862
632.445489	0.115586
632.652693	0.115715
632.859879	0.115742
633.067047	0.115907
633.274197	0.115955
633.481329	0.116189
633.688442	0.116200
633.895537	0.115907
634.102614	0.115983
634.309672	0.116014
634.516713	0.115931
634.723735	0.115858
634.930739	0.115767
635.137724	0.116016
635.344692	0.115965
635.551641	0.116361
635.758572	0.116651
635.965485	0.116826
636.172379	0.116904
636.379256	0.116936
636.586114	0.117214
636.792954	0.117435
636.999775	0.117497
637.206579	0.117723
637.413364	0.117820
637.620131	0.117822
637.826880	0.117875
638.033610	0.117991
638.240323	0.118302
638.447017	0.118289
638.653692	0.118231
638.860350	0.118274
639.066990	0.118371
639.273611	0.118170
639.480214	0.118172
639.686798	0.118383
639.893365	0.118543
640.099913	0.118505
640.306443	0.118716
640.512955	0.118918
640.719449	0.119135
640.925924	0.119155
641.132381	0.119297
641.338820	0.119590
641.545241	0.119451
641.751644	0.119469
641.958028	0.119599
642.164394	0.119568
642.370742	0.119776
642.577071	0.119621
642.783383	0.119625
642.989676	0.119703
643.195951	0.119789
643.402207	0.119954
643.608446	0.119998
643.814666	0.120049
644.020868	0.120051
644.227052	0.119892
644.433218	0.120126
644.639365	0.120205
644.845494	0.120244
645.051605	0.120267
645.257698	0.120471
645.463772	0.120646
645.669828	0.120787
645.875866	0.120900
646.081886	0.121098
646.287888	0.121197
646.493871	0.121202
646.699836	0.121486
646.905783	0.121583
647.111712	0.121661
647.317622	0.121707
647.523514	0.121652
647.729388	0.121721
647.935244	0.121940
648.141082	0.122051
648.346901	0.122310
648.552702	0.122437
648.758485	0.122556
648.964250	0.122631
649.169996	0.122633
649.375724	0.122771
649.581434	0.122834
649.787126	0.122916
649.992800	0.123103
650.198455	0.123106
650.404092	0.122971
650.609711	0.123094
650.815311	0.123131
651.020894	0.123357
651.226458	0.123421
651.432004	0.123611
651.637532	0.123471
651.843041	0.123265
652.048532	0.123274
652.254006	0.123199
652.459460	0.122930
652.664897	0.123090
652.870315	0.123079
653.075716	0.123183
653.281097	0.123190
653.486461	0.123618
653.691807	0.123713
653.897134	0.123923
654.102443	0.124175
654.307734	0.124660
654.513006	0.124670
654.718261	0.124768
654.923497	0.124808
655.128715	0.125034
655.333915	0.124890
655.539096	0.125124
655.744259	0.125248
655.949404	0.125467
656.154531	0.125374
656.359640	0.125437
656.564730	0.125627
656.769802	0.125797
656.974856	0.125789
657.179892	0.125804
657.384909	0.125910
657.589908	0.126052
657.794889	0.125990
657.999852	0.126141
658.204797	0.126176
658.409723	0.125991
658.614631	0.126058
658.819521	0.126136
659.024393	0.126322
659.229246	0.126533
659.434081	0.126588
659.638898	0.126757
659.843697	0.126722
660.048478	0.126713
660.253240	0.127027
660.457984	0.127095
660.662710	0.127087
660.867417	0.127252
661.072107	0.127200
661.276778	0.127201
661.481431	0.127333
661.686066	0.127406
661.890682	0.127545
662.095281	0.127515
662.299861	0.127626
662.504422	0.128029
662.708966	0.127921
662.913491	0.127871
663.117999	0.127847
663.322488	0.127970
663.526958	0.128344
663.731411	0.128644
663.935845	0.128824
664.140261	0.128676
664.344659	0.128513
664.549038	0.128646
664.753400	0.128889
664.957743	0.129347
665.162068	0.129474
665.366375	0.129470
665.570663	0.129458
665.774933	0.129515
665.979185	0.129771
666.183419	0.129703
666.387635	0.129759
666.591832	0.129848
666.796011	0.129696
667.000172	0.129536
667.204315	0.129557
667.408439	0.129705
667.612545	0.129735
667.816634	0.129680
668.020703	0.129961
668.224755	0.130119
668.428788	0.130065
668.632803	0.130157
668.836800	0.130415
669.040779	0.130380
669.244739	0.130488
669.448681	0.130650
669.652605	0.130948
669.856511	0.130885
670.060399	0.131080
670.264268	0.131063
670.468119	0.131199
670.671952	0.131259
670.875767	0.131393
671.079563	0.131599
671.283341	0.131630
671.487101	0.131714
671.690843	0.132035
671.894567	0.131988
672.098272	0.132245
672.301959	0.132352
672.505628	0.132349
672.709278	0.132631
672.912911	0.132614
673.116525	0.132720
673.320121	0.132802
673.523699	0.132977
673.727258	0.133174
673.930799	0.133256
674.134322	0.133074
674.337827	0.133404
674.541314	0.133492
674.744782	0.133480
674.948232	0.133544
675.151664	0.133575
675.355078	0.133577
675.558474	0.133583
675.761851	0.133543
675.965210	0.133960
676.168551	0.133791
676.371873	0.133785
676.575178	0.133964
676.778464	0.134149
676.981732	0.134401
677.184981	0.134420
677.388213	0.134619
677.591426	0.135043
677.794621	0.135168
677.997798	0.135124
678.200956	0.135117
678.404097	0.135069
678.607219	0.135068
678.810323	0.135134
679.013408	0.135338
679.216476	0.135363
679.419525	0.135077
679.622556	0.135048
679.825569	0.135509
680.028563	0.135729
680.231540	0.135998
680.434498	0.136330
680.637438	0.136450
680.840359	0.136421
681.043263	0.136505
681.246148	0.136864
681.449015	0.137088
681.651864	0.136888
681.854694	0.137161
682.057506	0.137286
682.260301	0.137322
682.463076	0.137347
682.665834	0.137287
682.868573	0.137326
683.071295	0.137290
683.273998	0.137213
683.476682	0.137397
683.679349	0.137242
683.881997	0.137290
684.084627	0.137417
684.287239	0.137534
684.489833	0.137740
684.692408	0.137884
684.894965	0.137896
685.097504	0.138014
685.300025	0.138167
685.502527	0.138290
685.705012	0.138223
685.907478	0.138233
686.109925	0.138275
686.312355	0.138416
686.514766	0.138520
686.717159	0.138615
686.919534	0.138614
687.121891	0.138436
687.324230	0.138595
687.526550	0.138696
687.728852	0.138605
687.931136	0.138740
688.133401	0.138876
688.335649	0.138729
688.537878	0.138878
688.740089	0.139010
688.942281	0.139443
689.144456	0.139609
689.346612	0.139718
689.548750	0.139893
689.750870	0.140142
689.952971	0.140097
690.155055	0.140475
690.357120	0.140498
690.559167	0.140669
690.761195	0.140904
690.963206	0.140685
691.165198	0.140808
691.367172	0.140832
691.569128	0.140441
691.771065	0.140416
691.972984	0.140347
692.174885	0.140432
692.376768	0.140433
692.578633	0.140233
692.780479	0.140422
692.982308	0.140342
693.184118	0.140512
693.385909	0.140682
693.587683	0.140838
693.789438	0.140987
693.991175	0.141121
694.192894	0.141032
694.394595	0.141025
694.596277	0.141064
694.797941	0.141167
694.999587	0.141198
695.201215	0.141361
695.402824	0.141568
695.604416	0.141659
695.805989	0.141767
696.007543	0.141851
696.209080	0.142145
696.410598	0.142191
696.612099	0.142391
696.813580	0.142355
697.015044	0.142444
697.216490	0.142584
697.417917	0.142626
697.619326	0.142722
697.820717	0.142719
698.022089	0.142536
698.223444	0.142592
698.424780	0.142556
698.626098	0.142638
698.827397	0.142562
699.028679	0.142439
699.229942	0.142394
699.431187	0.142396
699.632414	0.142815
699.833622	0.142856
700.034813	0.142991
700.235985	0.143292
700.437139	0.143453
700.638274	0.143487
700.839392	0.143690
701.040491	0.143762
701.241572	0.143820
701.442635	0.143776
701.643679	0.143949
701.844706	0.144164
702.045714	0.144014
702.246704	0.144034
702.447675	0.144258
702.648629	0.144184
702.849564	0.144308
703.050481	0.144514
703.251380	0.144627
703.452260	0.144780
703.653122	0.144666
703.853966	0.144609
704.054792	0.144802
704.255600	0.144719
704.456389	0.144821
704.657160	0.144910
704.857913	0.144695
705.058648	0.144678
705.259365	0.144635
705.460063	0.144327
705.660743	0.144371
705.861405	0.144135
706.062048	0.144143
706.262674	0.144211
706.463281	0.144141
706.663870	0.144153
706.864441	0.144006
707.064993	0.144102
707.265527	0.144465
707.466043	0.144643
707.666541	0.144741
707.867021	0.145101
708.067482	0.144989
708.267925	0.145020
708.468350	0.145242
708.668757	0.145367
708.869145	0.145328
709.069516	0.145444
709.269868	0.145235
709.470201	0.145500
709.670517	0.145342
709.870814	0.145405
710.071093	0.145371
710.271354	0.145425
710.471597	0.145477
710.671821	0.145515
710.872028	0.145152
711.072216	0.145250
711.272385	0.145061
711.472537	0.144962
711.672670	0.144663
711.872785	0.144650
712.072882	0.144375
712.272961	0.144227
712.473021	0.144159
712.673063	0.144390
712.873087	0.144440
713.073093	0.144557
713.273081	0.144582
713.473050	0.144876
713.673001	0.144935
713.872934	0.145221
714.072849	0.145367
714.272745	0.145543
714.472623	0.145553
714.672483	0.145532
714.872325	0.145601
715.072148	0.145777
715.271954	0.145757
715.471741	0.145968
715.671509	0.145782
715.871260	0.145682
716.070992	0.145656
716.270707	0.145797
716.470403	0.145767
716.670080	0.145586
716.869740	0.145576
717.069381	0.145690
717.269004	0.145658
717.468609	0.145610
717.668195	0.145558
717.867764	0.145505
718.067314	0.145374
718.266846	0.145550
718.466360	0.145544
718.665855	0.145319
718.865332	0.145064
719.064791	0.144882
719.264232	0.145055
719.463655	0.145238
719.663059	0.145186
719.862445	0.145238
720.061813	0.145069
720.261163	0.145064
720.460494	0.145035
720.659807	0.145073
720.859102	0.145101
721.058379	0.144792
721.257638	0.144553
721.456878	0.144552
721.656100	0.144658
721.855304	0.144831
722.054490	0.144754
722.253657	0.144885
722.452806	0.144952
722.651937	0.144954
722.851050	0.145190
723.050145	0.145471
723.249221	0.145373
723.448279	0.145093
723.647319	0.145125
723.846340	0.145261
724.045344	0.145293
724.244329	0.145310
724.443296	0.145107
724.642245	0.145185
724.841175	0.144941
725.040088	0.144926
725.238982	0.144957
725.437857	0.144572
725.636715	0.144419
725.835554	0.144421
726.034376	0.144411
726.233179	0.144550
726.431963	0.144566
726.630730	0.144715
726.829478	0.144740
727.028208	0.144759
727.226920	0.144834
727.425614	0.144915
727.624289	0.144707
727.822946	0.144862
728.021585	0.144694
728.220206	0.144306
728.418808	0.144167
728.617392	0.144015
728.815958	0.143907
729.014506	0.144041
729.213036	0.143948
729.411547	0.143984
729.610040	0.143766
729.808515	0.143813
730.006972	0.144109
730.205410	0.143925
730.403831	0.143792
730.602233	0.143886
730.800616	0.143830
730.998982	0.143809
731.197329	0.143685
731.395658	0.143675
731.593969	0.143511
731.792262	0.143242
731.990536	0.143310
732.188793	0.143438
732.387031	0.143093
732.585250	0.143168
732.783452	0.143162
732.981635	0.143044
733.179800	0.143080
733.377947	0.143080
733.576076	0.143247
733.774186	0.143310
733.972278	0.143247
734.170352	0.143321
734.368408	0.143274
734.566446	0.143124
734.764465	0.143264
734.962466	0.142841
735.160449	0.142822
735.358413	0.142578
735.556360	0.142325
735.754288	0.142142
735.952198	0.142080
736.150090	0.141649
736.347963	0.141446
736.545818	0.141228
736.743655	0.141265
736.941474	0.141384
737.139275	0.141343
737.337057	0.141220
737.534821	0.141435
737.732567	0.141329
737.930295	0.141315
738.128005	0.141218
738.325696	0.141362
738.523369	0.141399
738.721024	0.141057
738.918660	0.140870
739.116279	0.140842
739.313879	0.140565
739.511461	0.140554
739.709024	0.140592
739.906570	0.140616
740.104097	0.140371
740.301606	0.140248
740.499097	0.140219
740.696569	0.140096
740.894024	0.140089
741.091460	0.139896
741.288878	0.139811
741.486277	0.139628
741.683659	0.139691
741.881022	0.139681
742.078367	0.139622
742.275694	0.139489
742.473002	0.139723
742.670293	0.139638
742.867565	0.139735
743.064819	0.139604
743.262054	0.139663
743.459272	0.139529
743.656471	0.139346
743.853652	0.139242
744.050815	0.139064
744.247959	0.138642
744.445085	0.138559
744.642194	0.138390
744.839283	0.138511
745.036355	0.138327
745.233408	0.138440
745.430444	0.138286
745.627461	0.138210
745.824459	0.138219
746.021440	0.138134
746.218402	0.138007
746.415346	0.137958
746.612272	0.137745
746.809180	0.137562
747.006069	0.137210
747.202940	0.137276
747.399793	0.137339
747.596628	0.137215
747.793444	0.137237
747.990243	0.137276
748.187023	0.137152
748.383784	0.136730
748.580528	0.136755
748.777253	0.136745
748.973960	0.136505
749.170649	0.136293
749.367320	0.136421
749.563973	0.136498
749.760607	0.136235
749.957223	0.136301
750.153821	0.136512
750.350400	0.136366
750.546962	0.136264
750.743505	0.136223
750.940030	0.136068
751.136536	0.135895
751.333025	0.135483
751.529495	0.135452
751.725947	0.135338
751.922381	0.135340
752.118796	0.135150
752.315194	0.134897
752.511573	0.134818
752.707934	0.134758
752.904276	0.134548
753.100601	0.134800
753.296907	0.134627
753.493195	0.134333
753.689465	0.134176
753.885716	0.134190
754.081949	0.134260
754.278164	0.134308
754.474361	0.134232
754.670540	0.134141
754.866700	0.134079
755.062843	0.134331
755.258967	0.134476
755.455072	0.134473
755.651160	0.134447
755.847229	0.134433
756.043280	0.134517
756.239313	0.134606
756.435328	0.134790
756.631324	0.134542
756.827302	0.134235
757.023262	0.133873
757.219204	0.133744
757.415127	0.133682
757.611033	0.133638
757.806920	0.133359
758.002788	0.133133
758.198639	0.133085
758.394471	0.133062
758.590286	0.133005
758.786081	0.133140
758.981859	0.133001
759.177619	0.132920
759.373360	0.132711
759.569083	0.132611
759.764788	0.132605
759.960474	0.132412
760.156143	0.132350
760.351793	0.132239
760.547425	0.132179
760.743038	0.132172
760.938634	0.132062
761.134211	0.132021
761.329770	0.131854
761.525311	0.131803
761.720833	0.131817
761.916338	0.131722
762.111824	0.131849
762.307292	0.131828
762.502741	0.131706
762.698173	0.131660
762.893586	0.131718
763.088981	0.131931
763.284358	0.132001
763.479716	0.131722
763.675057	0.131849
763.870379	0.131719
764.065683	0.131736
764.260968	0.131574
764.456236	0.131652
764.651485	0.131553
764.846716	0.131388
765.041929	0.131158
765.237123	0.131509
765.432299	0.131131
765.627457	0.131079
765.822597	0.130951
766.017719	0.130959
766.212822	0.130802
766.407907	0.130555
766.602974	0.130383
766.798023	0.130236
766.993054	0.129816
767.188066	0.129999
767.383060	0.129939
767.578036	0.129968
767.772993	0.130138
767.967933	0.130105
768.162854	0.130060
768.357757	0.130077
768.552642	0.130133
768.747508	0.130258
768.942356	0.130027
769.137186	0.129903
769.331998	0.129763
769.526792	0.129593
769.721567	0.129539
769.916324	0.129656
770.111063	0.129706
770.305784	0.129728
770.500486	0.129570
770.695171	0.129644
770.889837	0.129750
771.084484	0.129952
771.279114	0.130061
771.473725	0.130088
771.668318	0.130110
771.862893	0.130049
772.057450	0.129921
772.251988	0.129997
772.446509	0.129965
772.641011	0.129733
772.835494	0.129489
773.029960	0.129249
773.224407	0.129363
773.418836	0.129383
773.613247	0.129275
773.807640	0.129310
774.002014	0.129239
774.196370	0.129323
774.390708	0.129370
774.585028	0.129383
774.779330	0.129609
774.973613	0.129425
775.167878	0.129537
775.362125	0.129694
775.556354	0.129591
775.750564	0.129568
775.944756	0.129397
776.138930	0.129584
776.333086	0.129349
776.527223	0.129098
776.721343	0.129177
776.915444	0.129033
777.109526	0.128957
777.303591	0.129278
777.497637	0.129323
777.691666	0.129272
777.885676	0.128940
778.079667	0.129154
778.273641	0.129440
778.467596	0.129406
778.661533	0.129435
778.855452	0.129250
779.049352	0.129099
779.243235	0.128956
779.437099	0.129167
779.630945	0.129363
779.824773	0.129305
780.018582	0.129292
780.212373	0.129329
780.406146	0.129164
780.599901	0.129332
780.793638	0.129155
780.987356	0.129268
781.181056	0.129136
781.374738	0.129112
781.568402	0.129217
781.762047	0.129273
781.955674	0.129410
782.149283	0.129480
782.342874	0.129455
782.536447	0.129558
782.730001	0.129779
782.923537	0.129959
783.117055	0.130044
783.310555	0.130138
783.504036	0.129899
783.697499	0.129789
783.890944	0.129766
784.084371	0.129861
784.277780	0.129663
784.471170	0.129325
784.664542	0.129237
784.857896	0.129066
785.051231	0.128889
785.244549	0.129079
785.437848	0.129038
785.631129	0.129074
785.824392	0.129140
786.017636	0.129226
786.210863	0.129427
786.404071	0.129369
786.597260	0.129570
786.790432	0.129765
786.983585	0.129720
787.176721	0.129706
787.369838	0.129778
787.562936	0.129660
787.756017	0.129876
787.949079	0.129836
788.142123	0.129859
788.335149	0.129642
788.528156	0.129518
788.721146	0.129403
788.914117	0.129386
789.107070	0.129331
789.300005	0.129482
789.492921	0.129530
789.685819	0.129620
789.878699	0.129694
790.071561	0.129990
790.264405	0.130047
790.457230	0.130102
790.650037	0.130064
790.842826	0.130192
791.035597	0.130083
791.228349	0.130081
791.421084	0.130018
791.613800	0.129970
791.806497	0.129999
791.999177	0.130022
792.191838	0.129993
792.384481	0.130127
792.577106	0.130265
792.769713	0.130276
792.962301	0.130357
793.154871	0.130496
793.347423	0.130571
793.539957	0.130392
793.732473	0.130356
793.924970	0.130210
794.117449	0.130383
794.309910	0.130316
794.502353	0.130509
794.694777	0.130400
794.887183	0.130394
795.079571	0.130447
795.271941	0.130712
795.464293	0.131038
795.656626	0.131386
795.848941	0.131530
796.041238	0.131598
796.233516	0.131461
796.425777	0.131679
796.618019	0.131899
796.810243	0.132073
797.002449	0.132147
797.194636	0.131971
797.386805	0.131996
797.578956	0.131844
797.771089	0.131935
797.963204	0.132127
798.155300	0.132394
798.347378	0.132482
798.539438	0.132604
798.731480	0.132663
798.923503	0.132763
799.115509	0.132614
799.307496	0.132874
799.499465	0.133009
799.691415	0.133252
799.883348	0.133134
800.075262	0.133110
800.267158	0.133196
800.459035	0.133210
800.650895	0.133316
800.842736	0.133922
801.034559	0.133947
801.226364	0.133907
801.418150	0.133883
801.609919	0.133917
801.801669	0.134014
801.993401	0.134068
802.185114	0.134264
802.376810	0.134335
802.568487	0.134341
802.760146	0.134471
802.951787	0.134732
803.143409	0.134959
803.335014	0.135077
803.526600	0.135115
803.718168	0.135193
803.909717	0.135314
804.101249	0.135383
804.292762	0.135287
804.484257	0.135186
804.675734	0.135285
804.867192	0.135386
805.058632	0.135256
805.250054	0.135428
805.441458	0.135373
805.632844	0.135451
805.824211	0.135581
806.015561	0.135776
806.206891	0.135991
806.398204	0.135863
806.589499	0.135882
806.780775	0.136080
806.972033	0.136274
807.163273	0.136579
807.354495	0.136353
807.545698	0.136784
807.736883	0.137146
807.928050	0.137440
808.119199	0.137778
808.310329	0.138071
808.501441	0.138350
808.692535	0.138408
808.883611	0.138429
809.074669	0.138912
809.265708	0.138812
809.456729	0.138646
809.647732	0.138602
809.838717	0.138672
810.029683	0.138574
810.220632	0.138654
810.411562	0.138741
810.602474	0.139097
810.793367	0.139092
810.984242	0.139180
811.175100	0.139271
811.365938	0.139339
811.556759	0.139429
811.747562	0.139604
811.938346	0.139720
812.129112	0.139829
812.319860	0.139545
812.510589	0.139629
812.701300	0.139659
812.891994	0.139849
813.082668	0.139959
813.273325	0.140183
813.463964	0.140251
813.654584	0.140300
813.845186	0.140534
814.035769	0.140876
814.226335	0.141057
814.416882	0.141328
814.607411	0.141599
814.797922	0.142216
814.988415	0.142327
815.178889	0.142395
815.369345	0.142642
815.559783	0.142750
815.750203	0.142948
815.940605	0.143164
816.130988	0.143401
816.321353	0.143353
816.511700	0.143189
816.702028	0.143305
816.892339	0.143640
817.082631	0.143831
817.272905	0.144002
817.463161	0.144341
817.653398	0.144332
817.843617	0.144543
818.033819	0.144824
818.224001	0.144973
818.414166	0.145343
818.604312	0.145333
818.794440	0.145680
818.984550	0.145967
819.174642	0.145960
819.364716	0.146313
819.554771	0.146455
819.744808	0.146681
819.934827	0.146828
820.124827	0.146883
820.314810	0.147251
820.504774	0.147331
820.694720	0.147592
820.884647	0.147753
821.074557	0.147894
821.264448	0.147910
821.454321	0.147934
821.644176	0.148050
821.834012	0.148137
822.023831	0.148108
822.213631	0.148289
822.403413	0.148172
822.593176	0.148353
822.782922	0.148540
822.972649	0.148841
823.162358	0.149176
823.352049	0.149520
823.541721	0.149841
823.731376	0.150078
823.921012	0.150226
824.110629	0.150435
824.300229	0.150628
824.489811	0.150667
824.679374	0.150805
824.868919	0.150741
825.058445	0.150658
825.247954	0.150739
825.437444	0.150847
825.626916	0.150969
825.816370	0.151206
826.005806	0.151325
826.195223	0.151592
826.384622	0.151431
826.574003	0.151618
826.763366	0.151834
826.952711	0.151867
827.142037	0.152132
827.331345	0.152386
827.520635	0.152452
827.709906	0.153051
827.899160	0.153444
828.088395	0.153761
828.277612	0.153888
828.466810	0.153973
828.655991	0.154041
828.845153	0.154153
829.034297	0.154015
829.223423	0.154178
829.412531	0.154035
829.601620	0.153886
829.790691	0.154433
829.979744	0.154564
830.168779	0.154940
830.357795	0.155009
830.546793	0.155173
830.735773	0.155706
830.924735	0.155926
831.113679	0.156088
831.302604	0.156511
831.491511	0.156640
831.680400	0.157204
831.869271	0.157190
832.058123	0.157758
832.246957	0.157877
832.435773	0.158037
832.624571	0.158357
832.813351	0.158460
833.002112	0.158454
833.190855	0.158290
833.379580	0.158222
833.568287	0.158518
833.756975	0.158765
833.945645	0.158986
834.134297	0.158940
834.322931	0.159141
834.511547	0.159399
834.700144	0.159753
834.888723	0.160169
835.077284	0.160469
835.265826	0.160599
835.454351	0.160707
835.642857	0.161124
835.831345	0.161609
836.019815	0.161656
836.208266	0.161854
836.396699	0.161830
836.585114	0.161871
836.773511	0.162049
836.961890	0.162204
837.150250	0.162455
837.338592	0.162595
837.526916	0.162388
837.715222	0.162553
837.903510	0.162752
838.091779	0.163026
838.280030	0.163357
838.468263	0.163623
838.656477	0.163816
838.844674	0.163764
839.032852	0.163932
839.221012	0.164327
839.409153	0.164542
839.597277	0.164566
839.785382	0.164730
839.973469	0.164954
840.161538	0.165024
840.349589	0.165483
840.537621	0.165920
840.725635	0.166303
840.913631	0.166501
841.101609	0.166739
841.289568	0.167077
841.477509	0.167426
841.665432	0.167575
841.853337	0.167713
842.041224	0.167752
842.229092	0.167827
842.416942	0.167949
842.604774	0.168282
842.792588	0.168563
842.980383	0.168806
843.168160	0.169178
843.355919	0.169679
843.543660	0.170223
843.731382	0.170685
843.919087	0.171001
844.106773	0.171167
844.294441	0.171401
844.482090	0.171674
844.669722	0.172060
844.857335	0.172127
845.044930	0.172148
845.232507	0.172296
845.420065	0.172439
845.607605	0.172850
845.795127	0.173042
845.982631	0.173578
846.170117	0.174108
846.357584	0.174413
846.545033	0.174963
846.732464	0.175135
846.919877	0.175305
847.107272	0.175862
847.294648	0.175841
847.482006	0.176225
847.669346	0.176096
847.856667	0.176122
848.043971	0.176089
848.231256	0.176166
848.418523	0.176506
848.605771	0.176856
848.793002	0.176664
848.980214	0.176725
849.167408	0.176957
849.354584	0.177326
849.541742	0.177318
849.728881	0.177821
849.916002	0.178002
850.103105	0.178510
850.290190	0.178692
850.477256	0.179079
850.664304	0.179415
850.851334	0.179635
851.038346	0.179889
851.225340	0.180191
851.412315	0.180154
851.599272	0.180378
851.786211	0.180259
851.973132	0.180590
852.160034	0.180697
852.346918	0.181061
852.533784	0.181308
852.720632	0.181585
852.907462	0.181654
853.094273	0.182058
853.281066	0.182163
853.467841	0.182502
853.654598	0.182875
853.841336	0.183113
854.028056	0.183346
854.214758	0.183610
854.401442	0.183803
854.588107	0.184197
854.774755	0.184315
854.961384	0.184817
855.147995	0.184841
855.334587	0.184896
855.521162	0.185363
855.707718	0.185744
855.894256	0.186017
856.080775	0.186258
856.267277	0.186525
856.453760	0.186607
856.640225	0.187059
856.826672	0.187453
857.013101	0.187452
857.199511	0.187355
857.385903	0.187535
857.572277	0.187638
857.758633	0.187683
857.944970	0.187901
858.131290	0.188446
858.317591	0.188281
858.503873	0.188776
858.690138	0.189250
858.876384	0.189644
859.062612	0.189757
859.248822	0.189809
859.435014	0.190091
859.621188	0.190039
859.807343	0.190210
859.993480	0.190447
860.179599	0.190409
860.365699	0.190429
860.551781	0.190804
860.737846	0.191093
860.923891	0.191103
861.109919	0.191280
861.295929	0.191807
861.481920	0.191909
861.667893	0.192187
861.853848	0.192281
862.039784	0.192630
862.225702	0.192412
862.411603	0.192577
862.597484	0.193215
862.783348	0.193426
862.969193	0.193485
863.155021	0.193602
863.340830	0.193486
863.526620	0.193697
863.712393	0.193844
863.898147	0.194304
864.083883	0.194639
864.269601	0.194620
864.455301	0.194800
864.640982	0.195108
864.826645	0.195375
865.012290	0.195648
865.197917	0.195774
865.383526	0.195839
865.569116	0.196147
865.754688	0.196066
865.940242	0.196317
866.125777	0.196497
866.311295	0.196606
866.496794	0.196913
866.682275	0.197061
866.867737	0.197366
867.053182	0.197336
867.238608	0.197410
867.424016	0.197717
867.609406	0.197911
867.794778	0.198355
867.980131	0.198364
868.165466	0.198499
868.350783	0.198757
868.536082	0.198977
868.721362	0.199463
868.906625	0.199560
869.091869	0.199697
869.277094	0.200077
869.462302	0.200256
869.647491	0.200601
869.832662	0.200852
870.017815	0.201190
870.202950	0.201399
870.388066	0.201378
870.573165	0.201669
870.758245	0.201898
870.943306	0.201784
871.128350	0.201976
871.313375	0.202337
871.498382	0.202354
871.683371	0.202659
871.868342	0.202849
872.053294	0.202963
872.238229	0.202981
872.423144	0.202891
872.608042	0.203034
872.792922	0.202992
872.977783	0.202842
873.162626	0.203013
873.347451	0.202707
873.532258	0.202843
873.717046	0.203357
873.901816	0.203416
874.086568	0.203626
874.271302	0.203630
874.456017	0.203508
874.640715	0.203773
874.825394	0.203879
875.010055	0.204263
875.194697	0.204482
875.379322	0.204144
875.563928	0.204170
875.748516	0.204405
875.933085	0.204438
876.117637	0.204723
876.302170	0.204801
876.486685	0.205073
876.671182	0.204905
876.855661	0.204981
877.040121	0.205254
877.224563	0.205378
877.408987	0.205331
877.593393	0.205826
877.777780	0.205829
877.962150	0.206372
878.146501	0.206355
878.330833	0.206647
878.515148	0.206380
878.699444	0.206468
878.883722	0.206843
879.067982	0.206983
879.252224	0.207046
879.436447	0.207214
879.620653	0.206529
879.804840	0.206826
879.989008	0.206768
880.173159	0.206877
880.357291	0.207163
880.541405	0.206891
880.725501	0.207363
880.909579	0.207057
881.093638	0.207126
881.277680	0.207273
881.461703	0.207184
881.645707	0.207583
881.829694	0.207760
882.013662	0.207738
882.197612	0.207751
882.381544	0.207267
882.565458	0.207892
882.749353	0.207758
882.933230	0.208186
883.117089	0.208018
883.300930	0.207653
883.484753	0.207757
883.668557	0.207817
883.852343	0.208213
884.036111	0.208254
884.219861	0.208029
884.403592	0.208253
884.587305	0.208207
884.771000	0.208379
884.954677	0.208281
885.138335	0.207924
885.321976	0.208240
885.505598	0.208111
885.689201	0.208452
885.872787	0.208580
886.056354	0.208751
886.239904	0.208804
886.423434	0.208503
886.606947	0.208767
886.790442	0.208959
886.973918	0.209048
887.157376	0.209509
887.340816	0.209734
887.524237	0.209818
887.707641	0.209569
887.891026	0.209211
888.074393	0.209566
888.257741	0.209848
888.441072	0.209952
888.624384	0.209698
888.807678	0.209845
888.990954	0.209627
889.174211	0.209457
889.357451	0.209709
889.540672	0.210028
889.723875	0.209845
889.907059	0.209544
890.090226	0.209722
890.273374	0.209577
890.456504	0.209185
890.639616	0.209161
890.822709	0.209691
891.005785	0.209590
891.188842	0.209457
891.371881	0.209508
891.554901	0.209607
891.737904	0.209645
891.920888	0.210038
892.103854	0.210146
892.286802	0.210066
892.469731	0.209614
892.652643	0.209398
892.835536	0.209450
893.018410	0.209671
893.201267	0.209854
893.384106	0.209661
893.566926	0.209432
893.749728	0.209081
893.932511	0.208676
894.115277	0.208730
894.298024	0.208734
894.480753	0.208897
894.663464	0.208744
894.846157	0.208159
895.028831	0.208517
895.211487	0.208364
895.394125	0.208825
895.576745	0.209054
895.759346	0.208572
895.941930	0.208454
896.124495	0.208367
896.307041	0.208163
896.489570	0.208596
896.672080	0.207849
896.854573	0.207740
897.037046	0.207321
897.219502	0.207255
897.401940	0.207237
897.584359	0.207300
897.766760	0.206978
897.949143	0.206863
898.131507	0.206189
898.313854	0.206333
898.496182	0.206373
898.678492	0.206445
898.860783	0.206479
899.043057	0.206380
899.225312	0.206399
899.407549	0.206467
899.589768	0.206891
899.771968	0.206874
899.954151	0.206824
900.136315	0.206330
900.318461	0.206063
900.500588	0.205705
900.682698	0.205784
900.864789	0.205587
901.046862	0.205162
901.228917	0.204564
901.410953	0.204510
901.592971	0.204243
901.774972	0.204121
901.956953	0.203468
902.138917	0.203214
902.320862	0.203118
902.502790	0.203057
902.684699	0.203181
902.866589	0.203033
903.048462	0.203146
903.230316	0.202954
903.412152	0.203306
903.593970	0.203684
903.775770	0.203753
903.957551	0.203525
904.139314	0.203143
904.321059	0.202975
904.502786	0.202967
904.684494	0.202889
904.866185	0.202786
905.047857	0.201905
905.229510	0.201105
905.411146	0.200972
905.592763	0.200779
905.774363	0.200566
905.955943	0.200287
906.137506	0.199835
906.319051	0.199405
906.500577	0.199259
906.682085	0.199308
906.863575	0.199820
907.045046	0.199446
907.226500	0.198927
907.407935	0.199013
907.589352	0.198881
907.770750	0.198652
907.952131	0.198980
908.133493	0.198470
908.314837	0.198245
908.496163	0.197853
908.677470	0.197879
908.858760	0.197356
909.040031	0.196774
909.221284	0.196546
909.402518	0.196319
909.583735	0.195364
909.764933	0.195199
909.946113	0.194967
910.127275	0.194821
910.308418	0.194484
910.489544	0.194579
910.670651	0.194345
910.851740	0.194133
911.032810	0.193996
911.213863	0.194047
911.394897	0.193895
911.575913	0.193702
911.756911	0.193028
911.937890	0.193172
912.118851	0.193325
912.299794	0.193029
912.480719	0.192732
912.661626	0.192257
912.842514	0.192073
913.023384	0.191609
913.204236	0.191121
913.385070	0.191056
913.565886	0.190184
913.746683	0.189583
913.927462	0.189137
914.108223	0.188764
914.288965	0.188782
914.469690	0.188358
914.650396	0.187858
914.831084	0.187426
915.011754	0.187045
915.192405	0.186526
915.373038	0.186551
915.553653	0.186578
915.734250	0.186195
915.914829	0.185431
916.095389	0.184689
916.275931	0.184752
916.456455	0.184656
916.636961	0.184192
916.817448	0.184361
916.997917	0.183736
917.178368	0.183292
917.358801	0.182836
917.539216	0.182637
917.719612	0.182581
917.899990	0.181999
918.080350	0.181863
918.260692	0.181644
918.441015	0.180967
918.621320	0.180226
918.801607	0.179709
918.981876	0.179634
919.162127	0.179330
919.342359	0.178808
919.522573	0.178487
919.702769	0.178056
919.882947	0.177601
920.063106	0.177668
920.243247	0.177601
920.423370	0.177776
920.603475	0.177035
920.783562	0.176364
920.963630	0.176142
921.143680	0.175998
921.323712	0.176162
921.503725	0.176023
921.683721	0.175137
921.863698	0.174697
922.043657	0.173930
922.223598	0.173658
922.403520	0.173486
922.583424	0.173062
922.763311	0.172779
922.943178	0.171491
923.123028	0.170661
923.302859	0.170817
923.482673	0.171068
923.662467	0.171294
923.842244	0.171118
924.022003	0.170689
924.201743	0.170442
924.381465	0.169787
924.561169	0.169825
924.740854	0.169707
924.920522	0.169027
925.100171	0.168264
925.279802	0.166543
925.459414	0.165742
925.639009	0.165100
925.818585	0.164438
925.998143	0.164193
926.177683	0.163537
926.357205	0.162890
926.536708	0.162482
926.716193	0.161424
926.895660	0.161491
927.075109	0.161143
927.254539	0.161430
927.433951	0.161215
927.613345	0.160563
927.792721	0.160055
927.972079	0.159824
928.151418	0.159123
928.330739	0.159473
928.510042	0.158719
928.689327	0.158237
928.868593	0.157226
929.047841	0.156490
929.227071	0.156010
929.406283	0.155550
929.585476	0.154608
929.764652	0.154093
929.943809	0.153206
930.122948	0.153075
930.302068	0.152612
930.481171	0.151731
930.660255	0.151297
930.839321	0.150806
931.018369	0.150168
931.197398	0.149492
931.376409	0.149400
931.555402	0.148644
931.734377	0.147752
931.913334	0.146988
932.092272	0.146974
932.271192	0.146477
932.450094	0.146243
932.628978	0.146055
932.807844	0.146043
932.986691	0.144851
933.165520	0.144774
933.344331	0.144423
933.523123	0.143963
933.701898	0.143384
933.880654	0.142508
934.059392	0.142275
934.238111	0.141385
934.416813	0.140498
934.595496	0.140199
934.774161	0.139579
934.952808	0.138897
935.131437	0.138234
935.310047	0.137542
935.488639	0.137442
935.667213	0.136527
935.845769	0.135446
936.024306	0.135248
936.202825	0.134603
936.381326	0.133171
936.559809	0.132209
936.738274	0.131660
936.916720	0.130745
937.095148	0.130408
937.273558	0.129780
937.451950	0.129969
937.630323	0.129327
937.808678	0.128517
937.987015	0.129163
938.165334	0.129947
938.343635	0.129496
938.521917	0.128755
938.700181	0.127677
938.878427	0.125949
939.056655	0.125323
939.234864	0.124729
939.413055	0.125275
939.591228	0.123789
939.769383	0.122708
939.947519	0.121339
940.125638	0.121167
940.303738	0.120278
940.481820	0.120363
940.659883	0.119512
940.837929	0.119010
941.015956	0.117546
941.193965	0.117638
941.371955	0.116688
941.549928	0.117234
941.727882	0.116414
941.905818	0.115500
942.083736	0.114305
942.261636	0.114505
942.439517	0.114272
942.617380	0.113276
942.795225	0.112000
942.973052	0.111636
943.150860	0.110651
943.328651	0.110497
943.506423	0.110554
943.684176	0.111007
943.861912	0.109001
944.039629	0.107648
944.217328	0.107912
944.395009	0.107757
944.572672	0.106929
944.750317	0.105892
944.927943	0.105377
945.105551	0.105043
945.283141	0.104538
945.460712	0.104630
945.638265	0.103985
945.815801	0.103360
945.993317	0.102485
946.170816	0.101914
946.348297	0.101456
946.525759	0.101166
946.703203	0.100257
946.880629	0.099349
947.058036	0.098947
947.235425	0.098221
947.412797	0.097722
947.590149	0.096441
947.767484	0.096840
947.944800	0.097078
948.122099	0.096488
948.299379	0.095676
948.476640	0.094821
948.653884	0.094198
948.831109	0.093872
949.008316	0.092084
949.185505	0.091982
949.362676	0.090883
949.539828	0.090068
949.716962	0.088403
949.894078	0.088730
950.071176	0.088626
950.248256	0.086457
950.425317	0.086723
950.602360	0.085985
950.779385	0.085753
950.956391	0.082997
951.133380	0.082498
951.310350	0.083376
951.487302	0.082933
951.664235	0.080932
951.841151	0.081420
952.018048	0.080459
952.194927	0.079736
952.371788	0.078457
952.548631	0.079661
952.725455	0.077986
952.902261	0.077264
953.079049	0.076592
953.255819	0.076241
953.432570	0.076970
953.609303	0.076076
953.786018	0.075853
953.962715	0.075933
954.139394	0.075086
954.316054	0.076032
954.492696	0.074567
954.669320	0.073780
954.845926	0.075496
955.022513	0.073607
955.199083	0.073643
955.375634	0.074095
955.552166	0.073141
955.728681	0.072119
955.905177	0.071015
956.081655	0.070768
956.258115	0.071145
956.434557	0.068427
956.610980	0.068286
956.787385	0.065793
956.963772	0.063553
957.140141	0.064710
957.316492	0.064243
957.492824	0.063503
957.669138	0.062939
957.845434	0.060485
958.021712	0.060486
958.197971	0.060168
958.374212	0.062388
958.550435	0.063521
958.726640	0.061198
958.902826	0.060802
959.078995	0.059588
959.255145	0.060116
959.431277	0.061095
959.607390	0.062541
959.783486	0.060874
959.959563	0.059354
960.135622	0.057941
960.311662	0.056753
960.487685	0.056197
960.663689	0.056585
960.839675	0.056287
961.015643	0.055301
961.191593	0.054194
961.367524	0.055781
961.543437	0.055452
961.719332	0.057368
961.895209	0.059061
962.071067	0.059313
962.246907	0.060303
962.422730	0.059801
962.598533	0.059197
962.774319	0.057465
962.950086	0.055497
963.125835	0.055332
963.301566	0.054177
963.477279	0.054708
963.652973	0.055810
963.828650	0.055308
964.004308	0.054980
964.179947	0.055127
964.355569	0.056798
964.531172	0.055793
964.706757	0.055238
964.882324	0.054650
965.057873	0.051861
965.233403	0.050359
965.408916	0.049867
965.584410	0.047915
965.759885	0.047032
965.935343	0.045778
966.110782	0.046098
966.286203	0.046375
966.461606	0.047503
966.636991	0.049021
966.812357	0.049625
966.987705	0.049669
967.163035	0.051669
967.338347	0.051832
967.513641	0.051885
967.688916	0.053353
967.864173	0.053885
968.039412	0.053112
968.214632	0.053023
968.389835	0.053101
968.565019	0.055053
968.740185	0.054605
968.915333	0.055416
969.090462	0.054383
969.265573	0.054493
969.440667	0.053450
969.615741	0.053428
969.790798	0.055134
969.965836	0.054213
970.140856	0.053186
970.315858	0.051696
970.490842	0.051741
970.665808	0.052621
970.840755	0.053025
971.015684	0.052949
971.190595	0.052673
971.365487	0.050738
971.540362	0.050563
971.715218	0.047677
971.890056	0.048297
972.064875	0.046508
972.239677	0.047511
972.414460	0.045817
972.589225	0.043774
972.763972	0.043197
972.938700	0.045536
973.113411	0.047444
973.288103	0.048628
973.462777	0.049186
973.637432	0.052640
973.812070	0.051055
973.986689	0.051984
974.161290	0.055548
974.335873	0.057374
974.510437	0.055102
974.684984	0.053639
974.859512	0.052740
975.034022	0.053607
975.208513	0.050590
975.382987	0.050338
975.557442	0.050693
975.731879	0.050552
975.906298	0.047612
976.080698	0.050148
976.255080	0.048422
976.429445	0.050316
976.603790	0.051770
976.778118	0.054269
976.952427	0.056064
977.126719	0.057005
977.300992	0.056104
977.475246	0.058680
977.649483	0.056191
977.823701	0.058652
977.997901	0.058215
978.172083	0.055494
978.346247	0.055699
978.520392	0.053756
978.694519	0.050925
978.868628	0.050613
979.042719	0.049071
979.216791	0.048421
979.390845	0.048586
979.564882	0.047284
979.738899	0.048535
979.912899	0.046615
980.086880	0.049604
980.260843	0.050085
980.434788	0.051543
980.608715	0.052893
980.782623	0.052228
980.956514	0.052010
981.130386	0.054825
981.304240	0.053625
981.478075	0.053019
981.651892	0.050467
981.825692	0.052561
981.999472	0.051843
982.173235	0.050515
982.346980	0.052381
982.520706	0.052780
982.694414	0.050785
982.868104	0.051849
983.041775	0.054340
983.215428	0.055203
983.389064	0.054812
983.562680	0.054548
983.736279	0.055061
983.909860	0.054476
984.083422	0.053877
984.256966	0.055477
984.430491	0.053899
984.603999	0.053643
984.777488	0.053683
984.950959	0.053551
985.124412	0.052876
985.297847	0.053353
985.471263	0.054401
985.644661	0.055042
985.818041	0.053583
985.991403	0.054597
986.164747	0.054072
986.338072	0.053743
986.511379	0.051551
986.684668	0.051830
986.857938	0.051577
987.031191	0.051522
987.204425	0.050831
987.377641	0.052427
987.550839	0.053462
987.724018	0.052493
987.897179	0.052782
988.070322	0.054982
988.243447	0.055086
988.416554	0.053755
988.589642	0.051954
988.762712	0.051883
988.935764	0.050684
989.108798	0.049358
989.281813	0.049457
989.454811	0.048533
989.627790	0.049160
989.800751	0.049033
989.973693	0.050311
990.146617	0.052392
990.319524	0.051958
990.492412	0.051913
990.665281	0.052549
990.838133	0.052722
991.010966	0.054927
991.183781	0.053850
991.356578	0.054313
991.529356	0.054871
991.702117	0.055666
991.874859	0.057285
992.047583	0.057954
992.220288	0.057915
992.392976	0.058516
992.565645	0.057389
992.738296	0.057219
992.910929	0.057308
993.083543	0.055348
993.256139	0.053604
993.428718	0.053014
993.601277	0.053798
993.773819	0.053776
993.946342	0.053394
994.118848	0.052348
994.291335	0.053729
994.463803	0.053962
994.636254	0.056549
994.808686	0.057551
994.981100	0.058237
995.153496	0.055984
995.325874	0.055869
995.498233	0.055399
995.670574	0.056651
995.842897	0.056625
996.015202	0.056629
996.187488	0.057067
996.359757	0.057077
996.532007	0.055006
996.704239	0.056395
996.876452	0.055878
997.048648	0.055729
997.220825	0.056048
997.392984	0.054721
997.565124	0.054890
997.737247	0.054030
997.909351	0.054374
998.081437	0.055981
998.253505	0.055433
998.425554	0.055553
998.597586	0.056309
998.769599	0.057475
998.941594	0.057097
999.113571	0.056583
999.285529	0.056169
999.457469	0.054907
999.629391	0.054811
999.801295	0.054954
999.973181	0.054072
1000.145048	0.053165
1000.316897	0.051610
1000.488728	0.052520
1000.660541	0.052786
1000.832335	0.052909
1001.004111	0.054597
1001.175869	0.054975
1001.347609	0.055111
1001.519331	0.055771
1001.691034	0.057219
1001.862719	0.057539
1002.034386	0.058554
1002.206035	0.058369
1002.377665	0.059308
1002.549277	0.057754
1002.720871	0.057767
1002.892447	0.057157
1003.064004	0.057846
1003.235544	0.056680
1003.407065	0.056132
1003.578568	0.054756
1003.750052	0.053698
1003.921519	0.051775
1004.092967	0.052263
1004.264397	0.051034
1004.435809	0.050977
1004.607202	0.050665
1004.778577	0.051902
1004.949934	0.052382
1005.121273	0.052696
1005.292594	0.053692
1005.463896	0.054935
1005.635180	0.055070
1005.806446	0.055123
1005.977694	0.056609
1006.148923	0.057011
1006.320135	0.055590
1006.491328	0.056529
1006.662503	0.056248
1006.833659	0.055352
1007.004798	0.055199
1007.175918	0.055062
1007.347020	0.053976
1007.518103	0.053168
1007.689169	0.052795
1007.860216	0.054131
1008.031245	0.053843
1008.202256	0.054353
1008.373248	0.055706
1008.544223	0.055386
1008.715179	0.056283
1008.886117	0.058575
1009.057036	0.058174
1009.227938	0.057775
1009.398821	0.056230
1009.569686	0.056635
1009.740533	0.057343
1009.911361	0.057738
1010.082172	0.058476
1010.252964	0.056315
1010.423738	0.053934
1010.594493	0.053354
1010.765231	0.055098
1010.935950	0.057486
1011.106651	0.056652
1011.277334	0.055508
1011.447998	0.055732
1011.618645	0.055814
1011.789273	0.056673
1011.959882	0.059524
1012.130474	0.061501
1012.301048	0.061402
1012.471603	0.059949
1012.642140	0.059453
1012.812658	0.059414
1012.983159	0.058793
1013.153641	0.058436
1013.324105	0.059143
1013.494551	0.058291
1013.664979	0.056589
1013.835388	0.056173
1014.005779	0.057531
1014.176152	0.058026
1014.346507	0.058530
1014.516843	0.058058
1014.687162	0.057736
1014.857462	0.057074
1015.027744	0.057542
1015.198007	0.057355
1015.368252	0.056260
1015.538480	0.054033
1015.708689	0.053411
1015.878879	0.053453
1016.049052	0.052870
1016.219206	0.052301
1016.389342	0.052332
1016.559460	0.052076
1016.729559	0.053000
1016.899641	0.053036
1017.069704	0.054860
1017.239749	0.055051
1017.409775	0.056460
1017.579784	0.057077
1017.749774	0.056667
1017.919746	0.055220
1018.089700	0.055383
1018.259635	0.055619
1018.429553	0.056875
1018.599452	0.056121
1018.769333	0.056062
1018.939195	0.053636
1019.109040	0.053827
1019.278866	0.055361
1019.448674	0.056197
1019.618464	0.055069
1019.788235	0.054213
1019.957989	0.053682
1020.127724	0.053567
1020.297441	0.053062
1020.467139	0.054193
1020.636820	0.054470
1020.806482	0.052753
1020.976126	0.052530
1021.145752	0.052439
1021.315359	0.053072
1021.484948	0.054027
1021.654519	0.054792
1021.824072	0.056393
1021.993607	0.056019
1022.163123	0.054931
1022.332621	0.055452
1022.502101	0.056667
1022.671563	0.055950
1022.841007	0.056606
1023.010432	0.055398
1023.179839	0.054580
1023.349228	0.054223
1023.518598	0.054737
1023.687951	0.054606
1023.857285	0.054799
1024.026601	0.054817
1024.195899	0.057218
1024.365178	0.056472
1024.534439	0.056438
1024.703682	0.055663
1024.872907	0.054533
1025.042114	0.054744
1025.211302	0.054805
1025.380472	0.057189
1025.549624	0.056034
1025.718758	0.056647
1025.887873	0.057170
1026.056970	0.057084
1026.226049	0.058375
1026.395110	0.058748
1026.564153	0.057644
1026.733177	0.057800
1026.902183	0.055438
1027.071171	0.055201
1027.240141	0.054982
1027.409092	0.055501
1027.578026	0.054349
1027.746940	0.053299
1027.915837	0.052942
1028.084716	0.053778
1028.253576	0.054843
1028.422418	0.054853
1028.591242	0.054503
1028.760048	0.052525
1028.928835	0.050638
1029.097604	0.051666
1029.266355	0.052455
1029.435088	0.053110
1029.603803	0.051995
1029.772499	0.049986
1029.941177	0.049793
1030.109837	0.052248
1030.278478	0.053603
1030.447102	0.054913
1030.615707	0.055963
1030.784294	0.056700
1030.952863	0.056901
1031.121413	0.056732
1031.289945	0.057999
1031.458460	0.059382
1031.626955	0.058174
1031.795433	0.056223
1031.963892	0.055773
1032.132334	0.056309
1032.300756	0.053870
1032.469161	0.052897
1032.637548	0.053210
1032.805916	0.054507
1032.974266	0.053224
1033.142598	0.053134
1033.310911	0.054015
1033.479207	0.054465
1033.647484	0.052055
1033.815743	0.052808
1033.983983	0.053841
1034.152206	0.055549
1034.320410	0.053809
1034.488596	0.054908
1034.656764	0.054417
1034.824914	0.054787
1034.993045	0.055041
1035.161158	0.056453
1035.329253	0.057661
1035.497330	0.057600
1035.665388	0.057100
1035.833428	0.057260
1036.001450	0.056852
1036.169454	0.056742
1036.337440	0.055786
1036.505407	0.054400
1036.673356	0.054624
1036.841287	0.054281
1037.009200	0.053038
1037.177094	0.052033
1037.344970	0.052543
1037.512828	0.052038
1037.680668	0.053571
1037.848489	0.055019
1038.016293	0.053677
1038.184078	0.053231
1038.351845	0.053799
1038.519593	0.053657
1038.687324	0.053857
1038.855036	0.053670
1039.022730	0.054563
1039.190406	0.053525
1039.358063	0.052049
1039.525702	0.052568
1039.693323	0.051930
1039.860926	0.051158
1040.028511	0.052319
1040.196077	0.052579
1040.363625	0.053636
1040.531155	0.054524
1040.698667	0.054167
1040.866161	0.055195
1041.033636	0.056150
1041.201093	0.056295
1041.368532	0.056558
1041.535952	0.057445
1041.703355	0.057370
1041.870739	0.058161
1042.038105	0.056652
1042.205452	0.057494
1042.372782	0.057932
1042.540093	0.058304
1042.707386	0.059622
1042.874661	0.059546
1043.041918	0.057422
1043.209156	0.058551
1043.376376	0.056653
1043.543578	0.055756
1043.710762	0.054901
1043.877927	0.053890
1044.045074	0.055447
1044.212203	0.052703
1044.379314	0.053197
1044.546407	0.055692
1044.713481	0.054338
1044.880537	0.055486
1045.047575	0.056571
1045.214595	0.055557
1045.381596	0.055513
1045.548579	0.053878
1045.715544	0.056046
1045.882491	0.055272
1046.049420	0.054560
1046.216330	0.055679
1046.383222	0.054692
1046.550096	0.054950
1046.716951	0.057165
1046.883789	0.058060
1047.050608	0.058583
1047.217409	0.058899
1047.384192	0.059138
1047.550956	0.059257
1047.717703	0.056556
1047.884431	0.055547
1048.051140	0.054598
1048.217832	0.053153
1048.384505	0.052949
1048.551161	0.052913
1048.717798	0.051241
1048.884416	0.051555
1049.051017	0.050611
1049.217599	0.052484
1049.384163	0.055028
1049.550709	0.057938
1049.717237	0.058768
1049.883746	0.060093
1050.050237	0.059715
1050.216710	0.060843
1050.383165	0.060005
1050.549601	0.059905
1050.716019	0.060322
1050.882420	0.058798
1051.048801	0.055799
1051.215165	0.056164
1051.381510	0.053882
1051.547837	0.054616
1051.714146	0.054598
1051.880437	0.056621
1052.046709	0.056923
1052.212964	0.057173
1052.379200	0.058186
1052.545417	0.060780
1052.711617	0.061681
1052.877798	0.062822
1053.043961	0.062697
1053.210106	0.063114
1053.376233	0.061333
1053.542341	0.061054
1053.708432	0.060171
1053.874504	0.059103
1054.040557	0.056667
1054.206593	0.056008
1054.372610	0.056743
1054.538609	0.054996
1054.704590	0.054419
1054.870553	0.054309
1055.036497	0.055542
1055.202424	0.056830
1055.368331	0.057156
1055.534221	0.057758
1055.700093	0.056459
1055.865946	0.055676
1056.031781	0.057590
1056.197598	0.057493
1056.363397	0.058898
1056.529177	0.059250
1056.694939	0.058704
1056.860683	0.059881
1057.026409	0.060037
1057.192116	0.059556
1057.357806	0.059929
1057.523477	0.060935
1057.689130	0.061251
1057.854764	0.060998
1058.020381	0.059747
1058.185979	0.058045
1058.351559	0.057455
1058.517120	0.056894
1058.682664	0.057975
1058.848189	0.057472
1059.013696	0.056237
1059.179185	0.055594
1059.344656	0.054831
1059.510108	0.054712
1059.675542	0.055788
1059.840958	0.053703
1060.006356	0.054131
1060.171735	0.054140
1060.337096	0.053217
1060.502439	0.052764
1060.667764	0.052784
1060.833071	0.054473
1060.998359	0.052806
1061.163629	0.053056
1061.328881	0.054919
1061.494115	0.055384
1061.659330	0.054176
1061.824527	0.054158
1061.989706	0.054022
1062.154867	0.054007
1062.320010	0.051249
1062.485134	0.051133
1062.650240	0.052768
1062.815328	0.051954
1062.980398	0.052469
1063.145449	0.052647
1063.310482	0.052268
1063.475497	0.052544
1063.640494	0.052632
1063.805473	0.053834
1063.970433	0.055394
1064.135375	0.054096
1064.300299	0.053959
1064.465204	0.051960
1064.630092	0.052969
1064.794961	0.055217
1064.959812	0.055646
1065.124645	0.054140
1065.289459	0.055812
1065.454256	0.056169
1065.619034	0.055753
1065.783793	0.057603
1065.948535	0.058922
1066.113258	0.058883
1066.277964	0.058022
1066.442651	0.057851
1066.607319	0.060565
1066.771970	0.058903
1066.936602	0.058214
1067.101216	0.056398
1067.265812	0.054572
1067.430389	0.054605
1067.594949	0.055965
1067.759490	0.057020
1067.924013	0.055913
1068.088518	0.056538
1068.253004	0.056017
1068.417472	0.057096
1068.581922	0.057776
1068.746354	0.056640
1068.910768	0.055608
1069.075163	0.054434
1069.239540	0.055030
1069.403899	0.057031
1069.568240	0.057332
1069.732562	0.057786
1069.896866	0.057411
1070.061152	0.057192
1070.225420	0.058504
1070.389670	0.059557
1070.553901	0.059126
1070.718114	0.056807
1070.882309	0.055501
1071.046486	0.053538
1071.210644	0.052344
1071.374784	0.051334
1071.538906	0.053106
1071.703010	0.051566
1071.867096	0.050545
1072.031163	0.051656
1072.195212	0.052018
1072.359243	0.051454
1072.523256	0.051073
1072.687250	0.052394
1072.851226	0.052667
1073.015184	0.050333
1073.179124	0.051686
1073.343045	0.051416
1073.506949	0.050234
1073.670834	0.051040
1073.834701	0.053916
1073.998549	0.054819
1074.162380	0.054871
1074.326192	0.056085
1074.489986	0.057429
1074.653761	0.058570
1074.817519	0.058576
1074.981258	0.058771
1075.144979	0.060033
1075.308682	0.058275
1075.472367	0.057827
1075.636033	0.058671
1075.799681	0.057028
1075.963311	0.056074
1076.126923	0.055707
1076.290516	0.057108
1076.454092	0.055919
1076.617649	0.054869
1076.781187	0.054510
1076.944708	0.055370
1077.108210	0.053966
1077.271695	0.054612
1077.435160	0.056754
1077.598608	0.057842
1077.762038	0.058559
1077.925449	0.061946
1078.088842	0.061097
1078.252217	0.062412
1078.415573	0.061867
1078.578912	0.062900
1078.742232	0.065043
1078.905534	0.064032
1079.068817	0.063209
1079.232083	0.062491
1079.395330	0.061227
1079.558559	0.063614
1079.721770	0.062143
1079.884962	0.062490
1080.048136	0.062478
1080.211293	0.060879
1080.374430	0.060649
1080.537550	0.061378
1080.700651	0.061661
1080.863735	0.061352
1081.026800	0.057477
1081.189846	0.057752
1081.352875	0.059201
1081.515885	0.059603
1081.678877	0.058279
1081.841851	0.059149
1082.004807	0.058056
1082.167744	0.057505
1082.330663	0.055920
1082.493564	0.059376
1082.656447	0.058782
1082.819312	0.056064
1082.982158	0.053927
1083.144986	0.055542
1083.307796	0.055476
1083.470587	0.055509
1083.633361	0.055908
1083.796116	0.057148
1083.958853	0.055482
1084.121571	0.057495
1084.284272	0.057410
1084.446954	0.060459
1084.609618	0.060814
1084.772264	0.061960
1084.934892	0.059687
1085.097501	0.058899
1085.260092	0.059842
1085.422665	0.059584
1085.585220	0.057480
1085.747756	0.059536
1085.910274	0.058380
1086.072774	0.057605
1086.235256	0.056688
1086.397720	0.062402
1086.560165	0.063168
1086.722592	0.061347
1086.885001	0.063878
1087.047392	0.062800
1087.209764	0.063597
1087.372119	0.063052
1087.534455	0.064368
1087.696772	0.063972
1087.859072	0.061791
1088.021353	0.061520
1088.183616	0.059311
1088.345861	0.056152
1088.508088	0.059861
1088.670296	0.058211
1088.832486	0.059514
1088.994658	0.058029
1089.156812	0.058235
1089.318948	0.056651
1089.481065	0.057641
1089.643164	0.060797
1089.805245	0.062587
1089.967308	0.062217
1090.129352	0.061227
1090.291378	0.059536
1090.453386	0.059135
1090.615376	0.059706
1090.777347	0.059691
1090.939301	0.057149
1091.101236	0.058636
1091.263153	0.058548
1091.425051	0.056707
1091.586932	0.058987
1091.748794	0.060576
1091.910638	0.062836
1092.072463	0.061192
1092.234271	0.061418
1092.396060	0.063159
1092.557831	0.062511
1092.719584	0.060696
1092.881319	0.059954
1093.043035	0.057382
1093.204733	0.055654
1093.366413	0.053434
1093.528075	0.054165
1093.689718	0.054354
1093.851343	0.055161
1094.012950	0.055183
1094.174539	0.055773
1094.336110	0.058718
1094.497662	0.057833
1094.659196	0.056092
1094.820712	0.057167
1094.982210	0.056675
1095.143689	0.058873
1095.305151	0.057344
1095.466594	0.056843
1095.628018	0.055610
1095.789425	0.053124
1095.950813	0.056410
1096.112183	0.058830
1096.273535	0.059993
1096.434869	0.059277
1096.596184	0.057728
1096.757482	0.058433
1096.918761	0.056649
1097.080021	0.058951
1097.241264	0.059997
1097.402488	0.059240
1097.563694	0.057336
1097.724882	0.055851
1097.886052	0.055009
1098.047203	0.053447
1098.208336	0.053180
1098.369451	0.053614
1098.530548	0.053221
1098.691627	0.051193
1098.852687	0.052491
1099.013729	0.054104
1099.174753	0.054033
1099.335758	0.056300
1099.496746	0.057969
1099.657715	0.058547
1099.818666	0.058618
1099.979599	0.059101
1100.140513	0.059121
1100.301409	0.058263
1100.462287	0.058317
1100.623147	0.058939
1100.783989	0.057540
1100.944812	0.057154
1101.105617	0.056368
1101.266404	0.058146
1101.427173	0.057642
1101.587923	0.056915
1101.748656	0.052602
1101.909370	0.050758
1102.070066	0.047400
1102.230743	0.050902
1102.391403	0.050187
1102.552044	0.052176
1102.712667	0.052441
1102.873271	0.052563
1103.033858	0.056954
1103.194426	0.060409
1103.354976	0.061719
1103.515508	0.065761
1103.676021	0.060275
1103.836517	0.058751
1103.996994	0.057656
1104.157453	0.057477
1104.317893	0.057236
1104.478316	0.055557
1104.638720	0.054985
1104.799106	0.057087
1104.959474	0.055547
1105.119823	0.061854
1105.280155	0.065254
1105.440468	0.066055
1105.600763	0.064274
1105.761039	0.066393
1105.921298	0.066838
1106.081538	0.067332
1106.241760	0.065677
1106.401964	0.066745
1106.562149	0.066122
1106.722316	0.064721
1106.882465	0.063875
1107.042596	0.065636
1107.202709	0.063088
1107.362803	0.065333
1107.522879	0.065787
1107.682937	0.066010
1107.842977	0.064796
1108.002999	0.063542
1108.163002	0.063536
1108.322987	0.063008
1108.482954	0.061412
1108.642902	0.063265
1108.802833	0.059439
1108.962745	0.057340
1109.122639	0.058094
1109.282515	0.058952
1109.442372	0.060731
1109.602211	0.062161
1109.762032	0.058360
1109.921835	0.056677
1110.081620	0.054380
1110.241386	0.054332
1110.401134	0.054465
1110.560864	0.053884
1110.720576	0.056157
1110.880269	0.054357
1111.039945	0.051525
1111.199602	0.056054
1111.359240	0.062003
1111.518861	0.062664
1111.678463	0.063191
1111.838047	0.065732
1111.997613	0.065010
1112.157161	0.060703
1112.316690	0.059313
1112.476202	0.062093
1112.635695	0.059595
1112.795169	0.054502
1112.954626	0.053204
1113.114064	0.052538
1113.273484	0.052441
1113.432886	0.053089
1113.592270	0.053921
1113.751635	0.055617
1113.910983	0.055481
1114.070312	0.056809
1114.229622	0.056770
1114.388915	0.057932
1114.548189	0.059855
1114.707445	0.059408
1114.866683	0.060759
1115.025903	0.060871
1115.185104	0.059893
1115.344287	0.059479
1115.503452	0.062914
1115.662599	0.065365
1115.821727	0.064242
1115.980838	0.062063
1116.139930	0.062543
1116.299004	0.063060
1116.458059	0.063639
1116.617097	0.064250
1116.776116	0.064233
1116.935117	0.058374
1117.094099	0.058988
1117.253064	0.061121
1117.412010	0.060578
1117.570938	0.061488
1117.729848	0.060234
1117.888740	0.059611
1118.047613	0.062597
1118.206468	0.062432
1118.365305	0.065933
1118.524124	0.064014
1118.682924	0.063464
1118.841707	0.066485
1119.000471	0.065340
1119.159216	0.065826
1119.317944	0.064346
1119.476653	0.059257
1119.635344	0.057063
1119.794017	0.054284
1119.952672	0.053347
1120.111308	0.053350
1120.269927	0.052819
1120.428527	0.053952
1120.587108	0.054359
1120.745672	0.057485
1120.904217	0.060582
1121.062744	0.063263
1121.221253	0.064252
1121.379744	0.068967
1121.538216	0.069403
1121.696671	0.068130
1121.855107	0.062785
1122.013524	0.063090
1122.171924	0.066412
1122.330305	0.065332
1122.488668	0.066695
1122.647013	0.066527
1122.805340	0.065381
1122.963648	0.065419
1123.121938	0.068778
1123.280210	0.076258
1123.438464	0.077900
1123.596700	0.074994
1123.754917	0.077713
1123.913116	0.075476
1124.071297	0.079879
1124.229459	0.077798
1124.387604	0.075880
1124.545730	0.073710
1124.703838	0.069613
1124.861928	0.066714
1125.019999	0.067765
1125.178052	0.062504
1125.336088	0.061004
1125.494104	0.059426
1125.652103	0.059440
1125.810083	0.062951
1125.968045	0.063275
1126.125989	0.067163
1126.283915	0.069071
1126.441823	0.067694
1126.599712	0.070764
1126.757583	0.072692
1126.915436	0.072200
1127.073270	0.070754
1127.231087	0.066349
1127.388885	0.060748
1127.546665	0.059352
1127.704426	0.058052
1127.862170	0.056381
1128.019895	0.054232
1128.177602	0.055047
1128.335291	0.058315
1128.492961	0.060698
1128.650614	0.061856
1128.808248	0.068647
1128.965864	0.065241
1129.123461	0.066056
1129.281041	0.069997
1129.438602	0.068611
1129.596145	0.066421
1129.753670	0.062406
1129.911176	0.059406
1130.068665	0.057561
1130.226135	0.058724
1130.383587	0.063876
1130.541020	0.062889
1130.698436	0.062072
1130.855833	0.063387
1131.013212	0.062984
1131.170573	0.062718
1131.327915	0.061900
1131.485239	0.062701
1131.642545	0.062053
1131.799833	0.057296
1131.957103	0.056203
1132.114354	0.051940
1132.271588	0.055182
1132.428803	0.054015
1132.585999	0.057276
1132.743178	0.059303
1132.900338	0.061085
1133.057480	0.058234
1133.214604	0.060800
1133.371710	0.060859
1133.528797	0.062404
1133.685866	0.058415
1133.842917	0.058497
1133.999950	0.056001
1134.156964	0.055735
1134.313960	0.059868
1134.470938	0.061791
1134.627898	0.057681
1134.784840	0.059079
1134.941763	0.059454
1135.098668	0.061391
1135.255555	0.064300
1135.412424	0.060810
1135.569274	0.062989
1135.726107	0.055810
1135.882921	0.056720
1136.039716	0.058500
1136.196494	0.058922
1136.353253	0.059437
1136.509995	0.061977
1136.666717	0.060993
1136.823422	0.062200
1136.980109	0.060505
1137.136777	0.065754
1137.293427	0.065659
1137.450059	0.062903
1137.606672	0.062790
1137.763267	0.062875
1137.919844	0.060500
1138.076403	0.061604
1138.232944	0.062723
1138.389466	0.059356
1138.545971	0.057635
1138.702457	0.052593
1138.858924	0.059287
1139.015374	0.062101
1139.171805	0.061972
1139.328218	0.060619
1139.484613	0.065216
1139.640990	0.064289
1139.797348	0.069628
1139.953688	0.069822
1140.110010	0.072158
1140.266314	0.073388
1140.422600	0.067083
1140.578867	0.065400
1140.735116	0.067644
1140.891347	0.060163
1141.047559	0.062980
1141.203754	0.057637
1141.359930	0.056904
1141.516088	0.053129
1141.672228	0.047080
1141.828349	0.049252
1141.984452	0.046960
1142.140537	0.048494
1142.296604	0.047434
1142.452653	0.045778
1142.608683	0.054455
1142.764695	0.054767
1142.920689	0.059004
1143.076665	0.059321
1143.232622	0.059239
1143.388562	0.061122
1143.544483	0.054859
1143.700385	0.058356
1143.856270	0.059182
1144.012136	0.057634
1144.167985	0.052866
1144.323814	0.049996
1144.479626	0.052175
1144.635420	0.050853
1144.791195	0.051476
1144.946952	0.056167
1145.102691	0.053225
1145.258411	0.050656
1145.414113	0.051915
1145.569798	0.049496
1145.725463	0.051098
1145.881111	0.051675
1146.036741	0.050781
1146.192352	0.055555
1146.347945	0.055745
1146.503519	0.054483
1146.659076	0.058496
1146.814614	0.058816
1146.970134	0.064064
1147.125636	0.064787
1147.281120	0.060910
1147.436585	0.063215
1147.592032	0.057939
1147.747461	0.056724
1147.902872	0.058474
1148.058265	0.056500
1148.213639	0.052517
1148.368995	0.055235
1148.524333	0.055793
1148.679653	0.058667
1148.834954	0.055676
1148.990237	0.059380
1149.145502	0.055524
1149.300749	0.053957
1149.455977	0.052169
1149.611188	0.052250
1149.766380	0.048931
1149.921553	0.046587
1150.076709	0.045397
1150.231846	0.047824
1150.386966	0.038717
1150.542066	0.040247
1150.697149	0.046910
1150.852214	0.048291
1151.007260	0.048587
1151.162288	0.053698
1151.317298	0.054014
1151.472289	0.051919
1151.627263	0.053211
1151.782218	0.064259
1151.937155	0.065038
1152.092073	0.063202
1152.246974	0.057826
1152.401856	0.059171
1152.556720	0.052475
1152.711566	0.056800
1152.866393	0.063128
1153.021203	0.061524
1153.175994	0.052093
1153.330767	0.049758
1153.485521	0.051752
1153.640258	0.061233
1153.794976	0.053082
1153.949676	0.057464
1154.104358	0.052658
1154.259021	0.046652
1154.413667	0.041386
1154.568294	0.044523
1154.722903	0.047086
1154.877493	0.048403
1155.032066	0.046086
1155.186620	0.051703
1155.341156	0.056451
1155.495674	0.057601
1155.650173	0.058929
1155.804654	0.067646
1155.959118	0.067555
1156.113562	0.067942
1156.267989	0.060944
1156.422397	0.056535
1156.576788	0.059722
1156.731160	0.050139
1156.885513	0.055425
1157.039849	0.061664
1157.194166	0.060791
1157.348465	0.064177
1157.502746	0.059590
1157.657009	0.059401
1157.811253	0.066513
1157.965479	0.064944
1158.119687	0.069427
1158.273877	0.064886
1158.428048	0.057118
1158.582201	0.053693
1158.736337	0.049179
1158.890453	0.051528
1159.044552	0.053489
1159.198632	0.048501
1159.352694	0.041557
1159.506738	0.040356
1159.660764	0.038457
1159.814771	0.041227
1159.968761	0.039606
1160.122732	0.041237
1160.276685	0.044654
1160.430619	0.047893
1160.584535	0.050943
1160.738434	0.053475
1160.892313	0.056523
1161.046175	0.058507
1161.200019	0.054914
1161.353844	0.053277
1161.507651	0.054079
1161.661440	0.051698
1161.815210	0.049354
1161.968962	0.045048
1162.122697	0.048017
1162.276412	0.041563
1162.430110	0.042259
1162.583789	0.042568
1162.737451	0.043645
1162.891094	0.043304
1163.044718	0.041597
1163.198325	0.039879
1163.351913	0.041739
1163.505483	0.041328
1163.659035	0.047528
1163.812569	0.049737
1163.966084	0.051967
1164.119581	0.053894
1164.273060	0.057342
1164.426521	0.058815
1164.579964	0.057156
1164.733388	0.054251
1164.886794	0.047256
1165.040182	0.046002
1165.193551	0.042775
1165.346903	0.038429
1165.500236	0.037988
1165.653551	0.033371
1165.806848	0.037950
1165.960126	0.044330
1166.113386	0.048288
1166.266628	0.049131
1166.419852	0.051727
1166.573058	0.044968
1166.726245	0.049710
1166.879414	0.044895
1167.032565	0.040419
1167.185698	0.038140
1167.338812	0.033475
1167.491909	0.025719
1167.644987	0.031100
1167.798046	0.023421
1167.951088	0.031365
1168.104111	0.030909
1168.257117	0.037658
1168.410103	0.039049
1168.563072	0.031953
1168.716023	0.037823
1168.868955	0.047551
1169.021869	0.041397
1169.174765	0.047252
1169.327642	0.043231
1169.480501	0.041706
1169.633343	0.040867
1169.786165	0.049308
1169.938970	0.055100
1170.091757	0.046036
1170.244525	0.035497
1170.397275	0.049411
1170.550007	0.049411
1170.702720	0.053905
1170.855415	0.056564
1171.008092	0.058971
1171.160751	0.057713
1171.313392	0.059623
1171.466014	0.056430
1171.618619	0.067449
1171.771205	0.067449
1171.923772	0.067449
