sample name	sample
index	1400
start time	 05-10-2021  11:05:46 AM
880	0.528680
Peak Time (s)	92.537
Peak Height 	0.5287
calc peak height	90,93
Baseline Time (s)	9.035
Baseline Value 	-0.002937
subtract baseline	10,4
Abs	0.383183
Peak Time (s)	90.535
Peak Height 	0.3832
calc peak height	90,93
Baseline Time (s)	10.536
Baseline Value 	1.3287E-4
subtract baseline	10,3
PK_550	0.199612
Peak Time (s)	90.035
Peak Height 	0.1996
calc peak height	90,93
Baseline Time (s)	8.536
Baseline Value 	5.3125E-4
subtract baseline	10,2
PK_880	0.360063
Peak Time (s)	90.535
Peak Height 	0.3601
calc peak height	90,93
Baseline Time (s)	10.036
Baseline Value 	0.001202
subtract baseline	10,1


Time (s)	A880-A510	A880-A775	A880-A975	A880	I510	I775	I975	I880	
0.035000	-0.003066	-0.000877	-0.003263	0.007306	6343.082368	44421.551886	3891.936995	22996.985448
0.535500	-0.002367	-0.000315	0.000689	0.004457	6371.730130	44748.614203	3908.929120	23129.513922
1.036000	-0.002935	-0.000429	-0.001067	0.003742	6372.917365	44806.440314	3906.311284	23162.923665
1.536500	-0.001284	-0.001203	-0.000929	0.000070	6416.359055	45086.808845	3915.926001	23335.338274
2.037000	-0.000208	-0.000538	-0.000410	0.002246	6407.347299	44940.404625	3911.732934	23233.009303
2.537000	0.000892	0.000197	-0.001297	0.001039	6426.283829	45128.666799	3912.542703	23289.699673
3.034500	0.000858	0.000415	0.001474	-0.001239	6444.810171	45371.788004	3925.371145	23397.145001
3.535000	-0.000591	-0.000834	-0.001594	0.000323	6419.979756	45098.133303	3913.600489	23323.430496
4.038000	-0.002281	-0.000218	-0.003231	0.000949	6400.989518	45097.080311	3907.892455	23293.934518
4.535500	-0.000070	0.000186	0.001359	0.000519	6422.649937	45178.102756	3920.594444	23314.183019
5.036000	0.000747	-0.000277	0.000002	0.000398	6430.376777	45144.945945	3917.454274	23319.888474
5.536000	-0.002984	0.000175	0.001608	0.001147	6393.632056	45116.052829	3919.631919	23284.625765
6.036500	-0.001361	0.000052	0.001336	-0.000009	6416.374866	45216.397581	3921.879056	23339.039516
6.537000	0.000855	0.000523	0.002457	0.000680	6428.939682	45195.250541	3922.982820	23306.585706
7.037000	0.001045	-0.000273	-0.000483	0.000279	6433.814172	45156.897196	3916.525780	23325.506243
7.537000	0.001513	-0.000302	0.000578	0.000220	6438.163993	45159.755346	3919.370149	23328.265537
8.034500	-0.000194	0.000290	0.000997	0.000495	6421.822148	45190.514759	3919.734169	23315.293178
8.535500	0.000242	0.000000	0.003902	-0.000075	6430.112540	45217.854268	3928.608315	23342.188565
9.035000	0.001715	0.000077	-0.001839	0.000000	6441.648376	45218.043985	3913.797949	23338.635653
9.535500	0.001778	0.000067	0.005129	0.000372	6439.102358	45180.861040	3930.609604	23321.116003
10.035500	0.000000	-0.000258	0.004843	0.000361	6424.527458	45150.326501	3929.903823	23321.633689
10.536000	-0.000289	-0.000571	0.000000	-0.000422	6428.593675	45196.024497	3919.531838	23358.545058
11.036500	-0.001425	-0.001284	-0.004092	-0.001113	6424.922726	45193.890827	3910.917741	23391.177276
11.537000	-0.000439	0.000507	-0.001397	0.000488	6419.873676	45212.409002	3913.681411	23315.647825
12.037500	0.000636	0.000464	0.004255	0.000547	6428.232400	45202.439662	3927.919333	23312.859654
12.535000	0.001748	0.000358	0.002229	0.000068	6441.356125	45238.764697	3923.962404	23335.420516
13.035000	0.000825	-0.000494	-0.000057	-0.001520	6446.864130	45310.456606	3922.180263	23410.421596
13.538000	-0.000015	0.000051	0.006423	-0.000868	6434.530693	45300.146834	3937.137204	23379.632690
14.035500	-0.001973	0.000172	-0.001108	0.002041	6394.586282	45028.964624	3910.489256	23242.609715
14.535500	-0.000811	0.000201	-0.001729	0.001527	6408.292582	45081.632654	3910.217881	23266.740248
15.041000	0.001183	0.000675	0.004339	-0.000447	6440.945887	45319.828066	3930.683090	23359.707284
15.536000	-0.001031	-0.000030	0.001654	0.000534	6414.625955	45155.614277	3921.307370	23313.459101
16.037000	0.000611	-0.000256	0.004994	-0.000565	6437.193315	45240.516827	3932.670575	23365.276623
16.537000	0.000892	-0.000657	-0.000354	-0.001099	6443.935246	45253.558810	3920.354691	23390.542032
17.037500	-0.000078	0.000368	0.001982	-0.003067	6452.198958	45546.165080	3931.359282	23483.790202
17.535000	-0.001406	-0.000463	-0.001910	0.000439	6412.337948	45122.893936	3912.509119	23317.964608
18.035000	0.000153	-0.000322	-0.001374	0.000296	6426.318465	45150.458924	3914.226055	23324.680707
18.535500	-0.001043	0.000108	0.002155	0.001226	6408.856135	45101.811699	3920.820513	23280.901212
19.035500	-0.001376	0.000070	0.002730	0.000962	6408.290655	45123.836277	3922.961114	23293.331550
19.536000	-0.002901	0.000118	0.004406	0.000760	6397.468870	45148.061982	3927.760881	23302.839676
20.036000	-0.002267	-0.000576	0.002975	0.000266	6406.693428	45128.619539	3925.361832	23326.098679
20.536500	-0.000939	0.000433	0.000179	0.001238	6409.617124	45132.271073	3915.772730	23280.355519
21.036500	0.000421	0.000573	0.002239	0.001666	6417.254237	45104.300578	3919.917272	23260.225050
21.537000	0.000052	0.000251	-0.002590	0.001187	6418.165379	45119.568406	3908.907190	23282.741271
22.034500	-0.000403	0.000294	0.000894	0.001316	6413.367719	45111.151903	3917.387777	23276.667092
22.534500	-0.001828	-0.000082	0.001867	0.001289	6401.913802	45077.281158	3919.928616	23277.943837
23.038000	-0.001621	0.000220	0.005233	0.001433	6402.428293	45092.595477	3928.155403	23271.171633
23.535500	0.000417	0.000251	0.000116	0.001716	6416.812575	45068.113971	3914.400517	23257.851748
24.035500	-0.000113	0.000933	0.005014	0.002216	6408.366200	45085.794524	3925.589106	23234.385222
24.536000	-0.000385	0.001087	0.003019	0.002134	6406.812947	45108.753515	3920.711119	23238.270043
25.036000	-0.001971	-0.000061	0.002388	0.001917	6395.616744	45018.487419	3919.656104	23248.443796
25.536500	-0.000288	0.000253	0.004686	0.001515	6412.678175	45087.889156	3926.544934	23267.328712
26.037000	0.000529	-0.000040	0.003464	0.001531	6419.258442	45057.961030	3923.381181	23266.581691
26.537500	0.000331	-0.000039	0.004202	0.001429	6418.464250	45067.892119	3925.525690	23271.347634
27.034500	0.002627	0.000121	0.003552	-0.000936	6456.969097	45313.547778	3929.919075	23382.841542
27.535000	0.001334	0.000007	0.002209	-0.001401	6450.101174	45347.815261	3927.669304	23404.833431
28.035500	0.000909	0.001265	0.005795	0.000452	6431.265931	45289.741131	3932.117221	23317.344372
28.535500	0.000751	-0.000332	0.000592	-0.000640	6438.976960	45240.579743	3921.594530	23368.854173
29.036000	0.000142	0.000515	0.003352	-0.000529	6433.027243	45312.276962	3928.362399	23363.593342
29.536500	-0.002340	-0.000450	-0.003171	0.003400	6380.523648	44837.371042	3901.891391	23178.905655
30.036500	-0.001003	0.000138	0.007114	0.000243	6417.247963	45200.299162	3936.051015	23327.160134
30.536500	0.001224	-0.001021	0.002629	0.001752	6423.151729	44941.455291	3920.688655	23256.185285
31.037000	-0.001024	0.000090	0.003662	0.002067	6402.127840	45018.499302	3922.516327	23241.373343
31.537500	-0.000872	0.001201	0.002489	0.004808	6381.016942	44860.920479	3912.584929	23113.148591
32.035000	0.002712	0.000610	0.006047	-0.000094	6450.679203	45279.113504	3934.168035	23343.056544
32.537500	0.001364	0.000429	0.003268	-0.000539	6443.203754	45304.820250	3928.171412	23364.061033
33.035500	0.002707	0.000545	0.003587	-0.000255	6451.970592	45288.453067	3928.260665	23350.649014
33.535500	-0.003527	-0.000166	0.003306	0.003553	6369.654530	44850.154038	3917.831514	23171.779285
34.035500	0.001839	0.000189	0.006319	0.000621	6437.545696	45168.501515	3933.028656	23309.390817
34.536500	-0.001822	-0.000299	0.002217	0.001057	6403.864399	45078.796458	3921.409929	23288.864818
35.036500	-0.000167	-0.000544	0.000770	0.000909	6418.639749	45069.307608	3918.105144	23295.802285
35.537000	-0.000168	-0.000345	-0.002353	0.002546	6405.213743	44930.125596	3906.085285	23218.931506
36.037000	-0.001529	-0.000444	0.004438	0.001119	6405.748837	45058.649255	3926.922932	23285.917517
36.537500	-0.000338	0.000212	0.000775	0.001905	6409.070765	45046.011115	3915.592639	23248.988978
37.038000	-0.003400	-0.000088	0.003241	0.001637	6386.251076	45042.971835	3922.541201	23261.576216
37.535000	-0.003300	-0.000583	-0.000209	0.002855	6377.159377	44877.208157	3910.705116	23204.452922
38.036000	0.000539	-0.000119	0.000592	0.001755	6417.502366	45028.590940	3915.511270	23256.063725
38.536000	0.001160	-0.000211	0.001066	0.001401	6425.508512	45053.871010	3917.607098	23272.652203
39.036000	-0.001037	0.000252	-0.001606	0.001871	6403.628918	45053.262089	3909.662874	23250.599732
39.536500	-0.002445	0.000267	-0.001297	0.001697	6393.544208	45071.551472	3910.880473	23258.772518
40.037000	-0.000429	0.000839	0.002701	0.002006	6407.497748	45097.165071	3920.228462	23244.278347
40.537000	-0.000309	0.000210	0.002487	0.001579	6411.984282	45077.496198	3920.770472	23264.328230
41.037000	-0.001167	-0.000368	0.003632	0.001127	6408.653066	45065.255528	3924.840479	23285.552248
41.535000	-0.001408	0.000401	0.006881	0.001839	6400.859920	45070.851638	3931.343428	23252.115825
42.035500	0.002141	0.000253	0.004933	0.001984	6428.790716	45042.344768	3925.974608	23245.270467
42.535000	0.000155	0.000534	0.006102	0.002626	6407.204410	45007.375455	3927.325940	23215.175578
43.035500	-0.000385	0.000493	0.002211	0.002364	6404.923864	45028.813708	3918.071491	23227.452445
43.538500	0.002066	0.000789	0.002217	0.002594	6423.151482	45035.274594	3917.503867	23216.692908
44.036000	0.002638	0.000971	0.007314	-0.001297	6460.053765	45431.827382	3940.549576	23399.870514
44.536500	0.000314	-0.000067	0.006363	0.000142	6428.917448	45190.245409	3934.376460	23331.949541
45.036500	0.002017	0.000352	0.001602	0.000242	6442.152638	45221.277120	3921.920077	23327.245080
45.536500	-0.000960	0.000592	0.003434	0.005977	6370.814838	44689.613572	3912.017907	23058.706595
46.037500	0.001062	0.000104	-0.000099	0.001191	6426.437786	45104.834993	3915.187152	23282.543403
46.537500	0.000069	0.000459	0.002171	0.000133	6426.970113	45242.233435	3923.647978	23332.344681
47.035500	0.000354	0.000451	0.004666	0.000499	6426.296626	45205.806373	3929.094191	23315.102101
47.535500	-0.002191	-0.000464	0.003013	0.003907	6377.624558	44787.242960	3916.192574	23155.233975
48.035000	0.000276	-0.000039	-0.000992	0.002314	6410.754407	44982.090441	3910.092633	23229.807340
48.536000	0.000696	0.000896	0.003588	0.000847	6426.248947	45215.294857	3925.442892	23298.725276
49.036000	0.000967	-0.000003	0.001337	0.000020	6435.305862	45208.219171	3921.809633	23337.681553
49.536500	-0.001305	0.000145	0.000179	0.005459	6372.215419	44696.492417	3905.128854	23082.831408
50.034000	0.000215	-0.000326	0.000194	-0.002047	6446.179724	45378.381148	3924.167971	23435.395859
50.537500	0.001703	0.001192	0.007450	0.000549	6437.012924	45273.136477	3936.130285	23312.763847
51.034500	0.001868	0.000085	0.007706	0.006003	6393.601522	44638.421254	3922.795070	23057.511611
51.537500	0.045462	-0.024736	0.102540	0.639121	3762.134690	12106.066053	3135.945344	7559.613835
52.035000	0.003512	-0.023855	-0.004703	0.017489	6314.211478	41372.108037	3863.504874	22530.294222
52.535000	0.010199	-0.083573	-0.020116	-0.248927	9346.574784	64797.320189	4683.635410	39188.168053
53.035500	0.010030	-0.091740	-0.009766	-0.260647	9521.652596	65305.448729	4781.031417	40181.872453
53.536000	0.018785	-0.074420	0.001531	-0.239006	9326.639314	64688.061012	4734.768310	38367.680219
54.036000	0.012565	-0.044599	0.007306	-0.185247	8491.225841	61376.615964	4533.983785	34233.295583
54.536500	0.020152	-0.031069	0.011935	-0.168038	8367.631981	60883.656520	4484.910856	33014.360500
55.037000	0.024803	-0.021399	0.019234	-0.140882	8089.004182	58597.017443	4410.291970	31186.470968
55.537500	0.029116	-0.010082	0.023091	-0.117394	7862.744303	57058.973282	4339.798829	29695.116781
56.037500	0.050017	-0.003843	0.049122	-0.091716	7807.913768	54689.960634	4341.037240	28154.338446
56.535000	0.068015	0.010507	0.071686	-0.023183	7263.343246	48620.122918	4187.792258	24461.585346
57.035000	0.087603	0.023706	0.091787	0.044363	6801.980560	43247.021934	4045.748103	21349.882469
57.535000	0.106757	0.036529	0.112704	0.114326	6365.692516	38277.875005	3914.346414	18598.542592
58.036000	0.136136	0.051957	0.144840	0.172498	6140.190463	34965.548225	3850.391992	16625.297627
58.536500	0.158372	0.066417	0.178518	0.227933	5898.080599	32082.150112	3799.813565	14975.558772
59.036500	0.184033	0.081410	0.196833	0.284686	5687.523270	29410.521916	3716.420235	13491.215602
59.537000	0.205648	0.099022	0.218482	0.327307	5553.555809	27929.264260	3673.936445	12497.285151
60.037000	0.228019	0.113284	0.245045	0.357705	5504.052987	27017.806021	3666.388173	11845.687977
60.534500	0.251273	0.128549	0.264573	0.379936	5510.310567	26634.676426	3661.106954	11397.202781
61.035000	0.261283	0.130417	0.284332	0.451817	5157.126205	23106.874690	3565.449209	10094.691053
61.535000	0.271728	0.136093	0.304535	0.453359	5204.898545	23299.707704	3598.385004	10069.032306
62.035500	0.281281	0.146907	0.300949	0.430414	5387.849842	24945.511215	3634.081766	10460.243144
62.536000	0.288116	0.157096	0.308827	0.435913	5395.663245	25184.401517	3638.579879	10364.591229
63.036000	0.295369	0.162338	0.316282	0.448328	5365.590296	24820.031175	3629.230529	10153.048221
63.536500	0.302266	0.165227	0.320074	0.449376	5399.691318	24912.997218	3634.389961	10135.469073
64.037000	0.302688	0.168479	0.326279	0.452839	5381.909414	24902.292777	3639.577262	10077.676395
64.537000	0.307821	0.170758	0.330966	0.457298	5385.836299	24792.349842	3640.010102	10003.932293
65.037000	0.310682	0.174585	0.326113	0.464134	5362.742887	24641.476224	3618.110383	9892.343962
65.540500	0.310668	0.175496	0.328628	0.472680	5313.702528	24263.291610	3607.035766	9755.272197
66.034500	0.314411	0.178671	0.333604	0.473691	5329.249787	24369.774706	3614.298910	9739.239043
66.535000	0.319208	0.179671	0.341834	0.475583	5345.889516	24325.837537	3626.046189	9709.335980
67.035500	0.321036	0.182292	0.339695	0.478678	5338.618074	24302.522861	3616.333577	9660.684715
67.536500	0.320458	0.184849	0.335504	0.487473	5285.492921	23997.870288	3592.734584	9524.315933
68.036000	0.324662	0.185698	0.348419	0.483350	5332.629177	24240.342489	3623.841948	9587.898380
68.536500	0.327428	0.188468	0.346334	0.486908	5328.107513	24201.739935	3613.403398	9532.989533
69.036000	0.328711	0.189522	0.353506	0.489048	5323.226452	24148.647958	3622.705943	9500.184262
69.537500	0.330383	0.191839	0.353088	0.497409	5285.430814	23855.497238	3606.546430	9373.533207
70.040000	0.332448	0.191239	0.353158	0.493210	5320.805339	24029.538826	3614.363220	9436.834160
70.534500	0.333223	0.192182	0.351596	0.495139	5314.249924	23981.767584	3607.966136	9407.684527
71.035000	0.335043	0.192875	0.356455	0.496925	5314.446422	23928.857158	3613.595142	9380.804629
71.535500	0.335744	0.194258	0.349789	0.503971	5278.702964	23656.931535	3588.782233	9275.829402
72.035500	0.338135	0.196739	0.361511	0.501908	5303.731408	23874.815022	3613.728497	9306.383230
72.536000	0.337850	0.198036	0.355939	0.503487	5293.229049	23861.259846	3600.689772	9282.995120
73.036000	0.341628	0.197684	0.361429	0.504523	5308.701800	23794.480472	3608.786286	9267.687480
73.537000	0.344464	0.198982	0.359503	0.505246	5320.686660	23822.070362	3603.958943	9257.015203
74.037000	0.343189	0.200635	0.363628	0.507194	5302.427174	23807.955594	3607.924203	9228.385364
74.537500	0.343547	0.202329	0.365678	0.507808	5300.983211	23859.902036	3610.549871	9219.389723
75.037500	0.342380	0.201150	0.359319	0.507216	5297.738707	23831.639559	3600.058354	9228.060253
75.535000	0.343522	0.202981	0.366266	0.510669	5284.752634	23753.772740	3606.397893	9177.617657
76.035000	0.346080	0.204514	0.360858	0.508612	5310.753436	23926.506396	3600.316440	9207.612586
76.536000	0.345883	0.202924	0.365321	0.507256	5317.326342	23915.178733	3610.905318	9227.467214
77.036000	0.344237	0.203052	0.367595	0.507694	5305.523651	23900.254963	3614.276291	9221.056040
77.536000	0.344998	0.204345	0.375115	0.508798	5303.579725	23909.355278	3626.167373	9204.894230
78.036500	0.349975	0.207946	0.370212	0.512340	5311.702919	23912.230439	3610.553847	9153.352457
78.536500	0.351452	0.206318	0.367560	0.511412	5325.369544	23878.463900	3607.402712	9166.817779
79.039500	0.352454	0.205792	0.377691	0.511668	5329.628206	23840.800556	3625.621232	9163.103453
79.540500	0.350424	0.206771	0.366503	0.513780	5306.093034	23786.312445	3601.178506	9132.506611
80.035000	0.350414	0.205867	0.372070	0.512305	5314.388268	23813.707326	3614.026175	9153.852035
80.538000	0.352837	0.207906	0.374750	0.514336	5316.618813	23814.114720	3615.220862	9124.487058
81.035500	0.355983	0.207630	0.373117	0.515120	5330.065174	23763.233373	3610.781276	9113.184050
81.536000	0.355558	0.208353	0.370096	0.516483	5319.875620	23732.555168	3602.791453	9093.582190
82.036000	0.354496	0.206180	0.372590	0.515962	5316.799598	23653.623143	3608.276879	9101.062731
82.536500	0.352151	0.205397	0.369299	0.515556	5305.816989	23635.651469	3603.027970	9106.908269
83.037000	0.352643	0.204938	0.377437	0.516537	5303.054117	23567.169934	3616.117114	9092.806412
83.536500	0.354213	0.204209	0.372574	0.516764	5310.652149	23521.809055	3606.786029	9089.552919
84.037000	0.354272	0.204383	0.372070	0.518220	5302.747390	23461.140303	3603.222262	9068.697479
84.534000	0.358333	0.205448	0.375293	0.519243	5319.964012	23463.099930	3607.223000	9054.081182
85.035000	0.355936	0.205901	0.379877	0.520064	5301.735603	23445.724103	3614.114980	9042.385020
85.535500	0.353481	0.202475	0.370219	0.519594	5290.555854	23306.650711	3597.392870	9049.082322
86.036000	0.352596	0.202090	0.373252	0.518829	5289.875302	23324.459090	3604.261199	9059.987393
86.536000	0.353964	0.201698	0.369216	0.518728	5298.143856	23310.811886	3597.145388	9061.435084
87.036500	0.358674	0.202410	0.375237	0.520676	5313.762065	23252.904145	3604.511160	9033.669489
87.536500	0.355016	0.202249	0.374128	0.522843	5280.942353	23144.323946	3598.580793	9002.932083
88.036500	0.355542	0.201452	0.374423	0.521400	5291.990379	23174.412291	3601.723666	9023.393979
88.537000	0.351738	0.200908	0.368660	0.521518	5270.035437	23143.580002	3591.143498	9021.706665
89.037500	0.355034	0.200596	0.378395	0.522223	5284.517894	23096.323437	3607.445093	9011.717460
89.534500	0.354788	0.201304	0.376582	0.525287	5266.032562	22987.284152	3598.599504	8968.453666
90.035500	0.352349	0.199612	0.382264	0.523560	5262.080479	22988.918362	3612.077989	8992.803246
90.535500	0.360063	0.199413	0.383183	0.525004	5297.147139	22913.149342	3611.114190	8972.432131
91.035500	0.357070	0.199029	0.376690	0.525676	5276.582946	22864.658821	3598.092886	8962.980676
91.535500	0.356395	0.199493	0.374731	0.527806	5260.967158	22788.376260	3590.756567	8933.115427
92.036500	0.355339	0.198644	0.380597	0.527867	5254.772277	22746.851413	3601.190831	8932.262250
92.537000	0.359008	0.198718	0.376499	0.528680	5270.634613	22713.141161	3592.354039	8920.901005
93.037000	0.358077	0.199014	0.373033	0.529493	5260.936377	22689.640943	3584.735585	8909.563559
93.537500	0.354926	0.197648	0.371273	0.530778	5236.441741	22569.474480	3579.359485	8891.691935
94.037500	0.357420	0.199477	0.386543	0.533145	5237.138647	22545.161835	3602.401888	8858.895386
94.538000	0.356871	0.197987	0.376700	0.531728	5241.910170	22541.848921	3587.276579	8878.499232
95.035500	0.358796	0.198805	0.380234	0.533149	5244.692557	22514.661793	3591.042590	8858.842083
95.536000	0.356617	0.199077	0.380663	0.536161	5216.244604	22391.591329	3586.443433	8817.372781
96.036000	0.357714	0.198193	0.377228	0.534991	5228.627053	22404.393332	3582.431506	8833.444589
96.536000	0.360587	0.198680	0.381263	0.536426	5236.510221	22361.919424	3587.037428	8813.729355
