sample name	sample
index	931
start time	 04-12-2021  12:22:34 PM
880	0.376951
Peak Time (s)	102.536
Peak Height 	0.377
calc peak height	100,103
Baseline Time (s)	9.537
Baseline Value 	-0.007343
subtract baseline	10,4
Abs	0.339850
Peak Time (s)	101.535
Peak Height 	0.3398
calc peak height	100,103
Baseline Time (s)	11.536
Baseline Value 	0.004142
subtract baseline	10,3
PK_550	0.195067
Peak Time (s)	101.535
Peak Height 	0.1951
calc peak height	100,103
Baseline Time (s)	11.536
Baseline Value 	4.5415E-4
subtract baseline	10,2
PK_880	0.335877
Peak Time (s)	102.035
Peak Height 	0.3359
calc peak height	100,103
Baseline Time (s)	10.034
Baseline Value 	0.003853
subtract baseline	10,1


Time (s)	A880-A510	A880-A775	A880-A975	A880	I510	I775	I975	I880	
0.034000	-0.000080	0.000321	-0.000004	0.002997	7171.661021	43485.805943	3937.227594	23313.534630
0.534500	-0.001967	-0.000305	-0.002426	0.005079	7132.663474	43233.800086	3926.063190	23215.849416
1.035000	-0.003875	0.000510	-0.005039	0.007690	7088.688519	43067.470754	3913.259846	23093.985696
1.534500	-0.003188	-0.000742	-0.000811	0.003107	7140.017280	43376.466308	3934.946115	23308.384705
2.035500	-0.000156	-0.000237	-0.003994	0.001366	7187.049482	43586.185448	3931.367320	23390.436815
2.538500	-0.000572	0.000107	0.000283	0.001151	7185.056394	43638.472708	3942.555909	23400.582134
3.036000	-0.002995	-0.000625	-0.005140	0.006262	7111.094362	43094.611647	3916.498738	23160.552440
3.536500	0.000510	-0.000161	-0.002225	0.001127	7196.029566	43615.627188	3936.355458	23401.720836
4.036500	0.001358	-0.000329	0.000615	0.001023	7205.484170	43609.586550	3943.707097	23406.614955
4.540000	0.001002	-0.000245	0.001817	0.001070	7201.475860	43613.075284	3946.606688	23404.383873
5.036500	-0.003176	0.000052	-0.002671	0.004870	7122.887863	43286.264959	3925.974161	23225.620055
5.537000	-0.000189	-0.000735	0.002630	-0.000131	7201.573639	43679.750030	3951.680842	23461.224321
6.035000	-0.000413	-0.000584	-0.001736	0.000081	7197.250647	43674.002674	3940.183387	23451.189993
6.538000	0.000253	-0.000238	-0.001089	0.000635	7198.355173	43654.522694	3940.415618	23424.974065
7.038500	0.001314	-0.000294	-0.003122	0.000466	7210.598439	43665.116649	3935.765886	23432.964259
7.538500	-0.000709	0.000040	0.001923	0.000537	7189.776284	43689.735301	3948.213628	23429.588792
8.036500	0.002044	-0.000342	0.001940	0.000551	7217.020896	43652.580353	3948.220685	23428.929786
8.536500	0.001784	0.000912	-0.000603	0.001453	7205.444001	43685.667693	3939.585777	23386.300091
9.037000	-0.000951	-0.000556	-0.000562	-0.000601	7198.668571	43740.617765	3944.828901	23483.496795
9.537000	-0.001402	-0.000140	-0.002308	0.000000	7188.235877	43723.288722	3938.955787	23455.028101
10.034500	0.000000	0.000256	0.002395	0.000363	7198.546779	43726.351256	3949.840174	23437.834311
10.535000	-0.001020	-0.000216	0.001061	-0.000075	7192.766484	43723.193360	3947.585067	23458.562241
11.035000	0.001431	0.000178	0.004710	0.000230	7214.112566	43731.508404	3956.027715	23444.119600
11.535500	0.000335	0.000000	0.000000	-0.000188	7207.359517	43754.105630	3945.203060	23463.927424
12.036000	0.000203	0.000127	-0.000414	0.000604	7198.175079	43691.715821	3942.182284	23426.448885
12.536500	-0.000498	-0.000181	0.000014	0.000122	7195.997105	43708.000514	3944.461129	23449.261613
13.039500	0.001155	0.000282	0.005024	-0.000078	7214.428681	43770.308530	3957.607147	23458.719415
13.536500	-0.002482	0.000021	-0.001541	0.000037	7177.185875	43734.932189	3940.779035	23453.272538
14.037000	-0.000704	0.001005	-0.000536	0.003579	7159.784069	43495.358789	3934.457674	23286.211887
14.540000	-0.004053	-0.000273	0.002698	0.002040	7141.996681	43519.779374	3946.382720	23358.625284
15.034500	0.000535	-0.000270	-0.000111	0.000276	7204.737361	43685.210970	3943.761269	23441.981170
15.535500	-0.004429	-0.000808	-0.004313	0.005548	7104.085576	43143.669635	3920.270687	23193.898051
16.038000	0.000507	0.001023	0.003209	0.001183	7195.437357	43721.415631	3949.826420	23399.056143
16.536000	0.000977	-0.000321	0.001742	0.000019	7211.686117	43704.530878	3949.063455	23454.119422
17.036000	0.001927	-0.000106	0.000694	-0.003035	7251.778605	44012.575981	3954.129260	23599.315610
17.537500	0.000699	0.000678	-0.001444	0.003546	7173.939196	43467.847745	3932.283713	23287.731257
18.036000	0.000332	0.000361	-0.002385	0.001845	7187.140245	43597.295782	3934.171495	23367.817289
18.537000	0.000428	-0.000188	-0.002021	0.001740	7189.125032	43555.720435	3935.335525	23372.762847
19.037500	0.000464	-0.000096	0.003859	0.001625	7190.629914	43575.081542	3950.352198	23378.210418
19.534500	-0.002001	0.000206	-0.000299	0.004386	7139.111722	43345.601261	3933.041205	23248.310657
20.037500	0.000648	0.000777	-0.001580	0.002676	7182.040551	43558.463539	3934.107787	23328.672828
20.535000	-0.000626	0.000081	0.000125	0.002118	7174.963532	43545.530249	3939.742353	23354.955356
21.038500	-0.000296	-0.000601	0.001593	0.001898	7180.394459	43502.349769	3943.967128	23365.306493
21.536000	-0.002625	-0.000362	-0.003398	0.003840	7138.349794	43343.629091	3926.722633	23273.943261
22.036000	0.000391	0.000057	0.000669	0.001901	7187.162825	43563.576796	3941.645387	23365.163731
22.536500	0.000349	0.000553	-0.004065	0.002320	7182.601041	43570.761521	3928.828668	23345.423919
23.036500	-0.000895	0.001048	0.006189	0.003100	7162.613840	43544.133199	3952.509031	23308.713848
23.537000	-0.001300	0.000311	0.000611	0.003668	7153.034331	43422.277429	3937.089350	23282.003788
24.037000	0.001407	0.000864	0.000104	0.002874	7187.597471	43548.055255	3937.805201	23319.359355
24.537500	-0.001029	0.000110	-0.002367	0.001643	7175.669579	43592.695956	3934.717034	23377.350444
25.035000	0.000110	-0.000111	-0.000945	0.002292	7180.520105	43511.335075	3936.641482	23346.763950
25.538000	-0.001379	0.000800	0.006388	0.004110	7147.920013	43426.728883	3950.462039	23261.274263
26.035500	0.000463	0.000285	0.000968	0.002454	7182.404692	43533.173031	3941.009390	23339.091345
26.536000	-0.000774	-0.000049	0.000579	0.002485	7169.868582	43499.018635	3939.959711	23337.636674
27.036000	0.000201	-0.000778	0.001359	0.000663	7197.567256	43601.370182	3946.479719	23423.660293
27.536500	-0.001261	0.000967	0.001268	0.006911	7121.653887	43181.773461	3930.665584	23130.239832
28.037000	-0.000009	0.000308	0.004226	0.000761	7194.498991	43693.855277	3953.459679	23418.992982
28.536500	0.002383	0.000207	0.004954	0.000831	7217.616712	43677.952087	3955.125525	23415.723068
29.037000	-0.002292	0.000081	0.001691	0.003857	7141.443504	43383.250745	3939.311544	23273.132289
29.535000	0.001263	-0.000012	0.001904	0.001150	7203.279812	43627.448745	3946.624126	23400.612005
30.035500	0.001016	0.000206	0.002062	0.000945	7202.863249	43667.052875	3947.536008	23410.300853
30.535500	0.000292	-0.000469	0.002938	0.003731	7168.098623	43343.730514	3942.744796	23279.054502
31.036000	0.001705	0.000872	0.004361	0.003924	7180.149196	43450.712685	3945.828918	23269.995269
31.536500	0.000777	0.000078	0.000574	0.001104	7198.907460	43640.140700	3943.402207	23402.789723
32.036500	0.002515	0.000719	0.001685	0.001649	7210.781399	43649.234241	3944.822068	23377.087358
32.536500	0.000973	0.001255	0.001393	0.001952	7192.434212	43671.003697	3943.329634	23362.780347
33.037000	0.001437	-0.000840	0.000591	0.001843	7198.127153	43485.162139	3941.595794	23367.926453
33.536500	0.002403	0.000186	0.005638	-0.000924	7235.362005	43840.858567	3961.321104	23498.836864
34.037500	-0.000080	-0.000093	0.001883	0.002705	7174.550823	43474.446712	3942.671775	23327.283704
34.535000	-0.000560	-0.000214	-0.001334	0.002727	7169.598169	43461.079148	3934.589910	23326.247904
35.035000	0.000010	-0.000316	-0.002006	0.002959	7172.935117	43429.947662	3932.346457	23315.337637
35.535500	-0.000599	-0.000497	-0.001710	0.002798	7168.514543	43428.116668	3933.479450	23322.924090
36.071500	0.001523	0.000931	0.004768	0.003639	7181.159302	43482.759797	3947.566132	23283.358407
36.536000	0.001504	0.000600	-0.001417	0.003560	7181.760554	43459.325974	3932.315644	23287.072403
37.036000	0.001395	0.000952	0.003887	0.003912	7177.201142	43459.281387	3944.668417	23270.550136
37.536500	-0.000569	-0.000132	0.000293	0.002785	7168.930513	43463.305965	3938.497109	23323.523269
38.037000	0.000677	0.000807	-0.001237	0.003222	7176.932261	43510.277707	3933.602219	23302.993689
38.537500	-0.000981	0.000198	0.002650	0.002810	7164.620465	43491.775535	3944.330701	23322.348105
39.034500	-0.000326	0.000831	-0.000814	0.003406	7165.216628	43495.302172	3934.196661	23294.344697
39.538000	0.000672	0.000516	0.001861	0.003880	7170.374672	43421.622273	3939.675632	23272.037503
40.035500	-0.000827	0.000965	0.002642	0.003742	7156.969764	43476.351975	3941.976717	23278.539550
40.535500	-0.000433	0.000491	-0.002728	0.003154	7166.640678	43487.038307	3930.075496	23306.193154
41.036000	0.000196	0.000868	0.003951	0.003988	7164.611819	43444.399090	3944.638741	23266.978603
41.536500	-0.000300	0.000238	0.000102	0.005399	7145.859483	43254.428365	3931.523673	23200.870438
42.037000	-0.000201	0.000185	-0.000722	0.003311	7167.372615	43443.856783	3934.659333	23298.785919
42.537000	0.000723	0.000110	-0.001036	0.003384	7175.779166	43429.958630	3933.697790	23295.341026
43.037000	0.001985	0.000255	0.002276	0.003063	7191.451033	43473.567397	3942.759221	23310.470137
43.537500	-0.000240	0.000498	0.000656	0.005783	7142.685484	43242.980529	3931.943964	23182.910287
44.040000	0.002478	0.000227	0.004266	-0.001983	7246.748034	43944.697051	3960.523350	23549.194964
44.535500	-0.000150	0.000457	0.003400	0.001453	7186.252721	43642.966752	3949.627705	23386.322561
45.036000	0.000414	0.000168	0.001687	0.002013	7186.283255	43563.496650	3943.915143	23359.904221
45.536000	-0.002930	-0.000077	-0.000328	0.006963	7104.899827	43080.360391	3926.592496	23127.838736
46.036500	0.001342	-0.000456	-0.000740	0.000951	7206.045944	43604.478567	3940.496988	23410.033315
46.536500	0.003874	0.000865	0.004354	0.001634	7224.485524	43664.288915	3951.578059	23377.795397
47.036500	0.002596	0.000093	0.000259	0.001461	7213.455088	43608.104612	3941.720215	23385.924808
47.537000	-0.003107	0.000905	0.005365	0.006680	7105.937503	43197.532198	3941.437273	23141.040399
48.041000	0.002961	0.000971	0.003153	0.002670	7205.058319	43577.184651	3945.944698	23328.961753
48.537500	0.001646	0.001256	0.002044	0.001933	7199.303617	43672.860949	3945.010576	23363.666855
49.038000	0.002826	0.001167	0.003874	0.002760	7202.817398	43587.076245	3947.530069	23324.727602
49.534500	-0.000660	0.000602	-0.000126	0.005379	7142.531774	43290.116280	3931.007140	23201.812502
50.036000	0.001415	0.000896	-0.005422	-0.000401	7220.248404	43858.550290	3932.206251	23474.039298
50.536000	-0.012776	-0.002791	0.007995	0.007296	7007.124404	42799.776234	3946.486777	23112.335298
51.036000	-0.076098	-0.013281	-0.006923	0.355491	4482.477311	20389.457787	3328.119524	11956.911337
51.536500	-0.103861	-0.022450	-0.026715	0.052392	5897.314324	37277.633744	3763.286961	21117.166365
52.039500	-0.099382	-0.038108	-0.015887	-0.166884	7928.298498	57819.634130	4397.773153	33093.579127
52.537000	-0.066998	-0.151489	0.002299	-0.337389	10932.041465	65535.000000	5237.211703	47619.538517
53.037000	-0.042477	-0.152000	0.013483	-0.337899	11409.532897	65535.000000	5302.222207	47672.140149
53.534500	-0.040959	-0.078574	0.017967	-0.262373	10073.731028	65232.968674	4932.953091	40522.792357
54.035000	-0.016115	-0.052691	0.020559	-0.228782	9930.379569	64137.020371	4789.811559	37721.244902
54.536000	-0.000626	-0.018771	0.021661	-0.166965	9217.416347	60329.412371	4537.397138	33099.235007
55.035500	0.017466	-0.011059	0.024706	-0.156928	9335.975238	60022.763715	4510.526340	32408.862400
55.536500	0.033514	-0.001308	0.035809	-0.136247	9267.511478	58604.155367	4474.420027	31035.862226
56.035500	0.051664	0.010841	0.050477	-0.104616	9072.414349	56162.026641	4412.391104	29058.310584
56.536500	0.060195	0.019996	0.061448	-0.073398	8757.432947	53525.588750	4341.456928	27242.846242
57.037000	0.076482	0.030419	0.071190	-0.042317	8560.715172	51175.388217	4270.188875	25560.389254
57.537500	0.091162	0.039650	0.090110	-0.012864	8370.866901	48980.751143	4236.283791	24073.493114
58.037500	0.106527	0.049685	0.106841	0.017741	8181.674477	46850.733809	4192.858150	22631.617715
58.535500	0.127321	0.060691	0.119554	0.050684	8035.523832	44687.447217	4131.974165	21189.008292
59.035500	0.133502	0.069707	0.137483	0.118533	7353.592330	39397.835510	3993.328112	18541.370089
59.535500	0.137857	0.075995	0.149478	0.112769	7458.945280	40423.755906	4040.835483	18750.543766
60.035500	0.148618	0.082875	0.164069	0.133482	7355.313127	39248.634317	4024.240204	18011.570218
60.536000	0.154160	0.087770	0.176796	0.150913	7234.559463	38215.355684	4011.643030	17416.395278
61.036500	0.163438	0.097499	0.195982	0.185950	6984.018294	36218.215702	3970.194630	16289.967600
61.536500	0.169250	0.102969	0.200269	0.199532	6911.319636	35602.296555	3946.583777	15877.189165
62.036500	0.166108	0.103209	0.204028	0.215688	6736.280264	34426.762134	3915.867698	15402.683443
62.537000	0.175256	0.107149	0.206619	0.222514	6756.937098	34218.219822	3905.573709	15207.451386
63.040500	0.183779	0.111194	0.211808	0.224699	6813.866010	34352.497025	3912.864050	15145.603117
63.537000	0.190614	0.115371	0.214073	0.229845	6829.185348	34282.526704	3905.870939	15001.176397
64.040500	0.198339	0.117718	0.218505	0.225666	6938.820085	34757.056450	3926.913172	15118.330607
64.536000	0.201454	0.119972	0.220800	0.226135	6963.601091	34888.158875	3931.428705	15105.127921
65.036000	0.210645	0.123888	0.224308	0.227669	7036.163727	35063.898340	3936.332752	15062.036937
65.536500	0.211948	0.125971	0.224161	0.230248	7023.981678	35027.182701	3929.566623	14989.920468
66.036500	0.218111	0.127557	0.230223	0.225966	7124.756195	35463.801249	3955.466770	15109.896783
66.536500	0.225981	0.132107	0.234475	0.226980	7192.227734	35729.675321	3963.697104	15081.360161
67.039500	0.232707	0.134858	0.238464	0.227662	7252.609853	35886.210418	3972.172200	15062.216971
67.537500	0.235031	0.137241	0.237438	0.234450	7207.933841	35553.706369	3952.252821	14873.341822
68.035000	0.241905	0.139740	0.246159	0.229879	7323.398627	36089.068619	3986.351371	15000.214751
68.535000	0.248509	0.143422	0.247913	0.232769	7361.523918	36149.618847	3983.397006	14919.852908
69.035500	0.248597	0.143888	0.246143	0.232958	7360.486291	36170.765044	3978.318497	14914.603930
69.536000	0.250485	0.145011	0.251235	0.239487	7312.907483	35759.664220	3974.607931	14735.091678
70.036000	0.257613	0.147694	0.254927	0.237467	7407.187258	36117.040103	3989.428350	14790.343835
70.536500	0.261775	0.150139	0.255335	0.239689	7427.437164	36134.102726	3984.703342	14729.594774
71.037000	0.265363	0.150733	0.259958	0.239841	7463.525542	36167.883419	3996.390890	14725.441392
71.537000	0.264370	0.153463	0.255613	0.247036	7377.987357	35827.961714	3966.464011	14530.855135
72.034500	0.269930	0.154212	0.266178	0.241935	7489.676991	36273.997554	4007.284210	14668.473433
72.535000	0.271099	0.154876	0.265511	0.243811	7482.183705	36181.130792	4000.558791	14617.678323
73.035000	0.274120	0.157260	0.272040	0.244833	7503.395643	36285.562981	4015.174555	14590.096825
73.535500	0.274457	0.157648	0.270007	0.249957	7452.766704	35923.863508	3996.214775	14452.801018
74.036000	0.279683	0.159895	0.274729	0.245471	7556.078591	36439.278636	4020.665851	14572.904484
74.535500	0.280817	0.160041	0.277076	0.247366	7547.903123	36304.598030	4021.878784	14522.014048
75.036500	0.283589	0.162295	0.280954	0.247807	7573.002765	36444.201352	4031.148572	14510.198617
75.536000	0.283114	0.163756	0.285356	0.247719	7568.831357	36563.976389	4043.373619	14512.565809
76.036500	0.286705	0.163779	0.285626	0.248066	7603.953504	36538.829437	4043.160392	14503.275409
76.537000	0.287917	0.164443	0.283991	0.251092	7584.283653	36356.651078	4030.480867	14422.600431
77.037500	0.289264	0.165741	0.291257	0.250084	7609.832170	36534.492058	4053.086988	14449.402210
77.534500	0.294365	0.168127	0.290137	0.251937	7645.311046	36575.800418	4044.914062	14400.173815
78.035500	0.292540	0.167780	0.287597	0.251691	7628.026339	36567.910328	4038.643946	14406.679986
78.535500	0.296858	0.169556	0.289352	0.253743	7652.851171	36546.579615	4037.835295	14352.369533
79.036000	0.300473	0.171203	0.297982	0.255629	7671.867545	36528.090554	4056.343454	14302.662891
79.536000	0.301465	0.171824	0.297466	0.257959	7657.136218	36396.127692	4048.498330	14241.565013
80.036500	0.303552	0.173062	0.293912	0.260234	7655.081913	36316.375148	4032.589089	14182.234314
80.536500	0.303801	0.173305	0.297051	0.262107	7637.271846	36191.328430	4036.027006	14133.601609
81.040000	0.304674	0.173983	0.300061	0.263658	7629.859047	36124.558505	4040.000839	14093.505667
81.537500	0.305203	0.174497	0.297151	0.268547	7582.455688	35791.876018	4018.914436	13968.012354
82.034500	0.308487	0.176382	0.305927	0.268482	7618.817147	35939.736394	4042.846636	13969.656561
82.535000	0.309168	0.177396	0.304594	0.271672	7591.541458	35774.738322	4030.541270	13888.528297
83.035500	0.311557	0.178235	0.306585	0.273820	7594.159266	35675.961239	4030.118500	13834.245607
83.535500	0.314246	0.178886	0.304312	0.276838	7590.595682	35497.997649	4015.889288	13758.404975
84.036500	0.313761	0.179402	0.304833	0.278586	7566.454613	35405.764858	4012.614196	13714.723723
84.536500	0.314058	0.179458	0.303687	0.280868	7545.100724	35239.783758	4003.513982	13657.956191
85.036500	0.316982	0.180503	0.313113	0.284474	7537.785507	35049.766304	4019.003844	13568.847388
85.540000	0.314165	0.180856	0.307686	0.291509	7433.408620	34559.502046	3986.085780	13397.172522
86.037500	0.318335	0.181055	0.315232	0.289002	7503.884441	34757.114147	4012.568287	13458.030985
86.534500	0.317216	0.183133	0.311059	0.296081	7417.497765	34392.785315	3982.964924	13287.062233
87.035000	0.320421	0.183397	0.314213	0.295183	7460.537171	34477.131368	3993.539308	13308.598790
87.535500	0.320537	0.184225	0.315900	0.302854	7381.607564	33984.020403	3977.958540	13126.068366
88.035000	0.320103	0.183510	0.312136	0.298986	7417.310606	34210.237721	3978.228194	13217.696487
88.536000	0.318817	0.184360	0.314190	0.305899	7332.535238	33776.665117	3965.733940	13054.508719
89.036000	0.322692	0.184482	0.326571	0.304614	7385.696410	33876.692655	4001.237616	13084.644394
89.536500	0.321369	0.186094	0.318105	0.312776	7288.443234	33413.561654	3958.182518	12894.706827
90.039500	0.325481	0.186862	0.321234	0.310860	7350.015405	33602.550854	3971.074133	12938.986625
90.537000	0.321633	0.186117	0.317446	0.316356	7254.941042	33164.975957	3947.469219	12812.524929
91.037000	0.325348	0.187247	0.322652	0.314850	7307.805418	33348.968484	3964.484031	12847.016819
91.534500	0.323483	0.186961	0.321281	0.322070	7216.228631	32827.862360	3942.754419	12682.743383
92.034500	0.326177	0.187833	0.328331	0.319068	7273.422966	33095.766024	3968.221881	12750.722142
92.535000	0.325540	0.188846	0.323553	0.326835	7189.304533	32630.302939	3936.529833	12575.817460
93.036000	0.329147	0.189030	0.325506	0.324095	7252.680556	32830.925700	3948.277336	12637.160254
93.536000	0.325599	0.189350	0.328960	0.332368	7135.380889	32288.449843	3936.216680	12453.120085
94.036000	0.328274	0.189499	0.328473	0.329376	7191.213379	32501.461828	3942.469066	12519.273580
94.536500	0.326538	0.189811	0.321875	0.336871	7100.631085	32016.474323	3907.749546	12354.395252
95.037000	0.329720	0.190231	0.328232	0.334182	7158.010998	32225.378307	3929.905389	12413.216926
95.539500	0.330210	0.190126	0.329163	0.338723	7118.330576	31913.716846	3921.006697	12314.089497
96.037500	0.330981	0.190959	0.330470	0.338880	7124.332023	31958.869460	3923.834833	12310.689995
96.534000	0.327116	0.190338	0.327070	0.346067	7017.782103	31441.726993	3898.096598	12155.962493
97.117500	0.333216	0.192755	0.331369	0.344791	7088.578585	31685.137031	3911.572071	12183.235697
97.536000	0.332308	0.191906	0.333497	0.346136	7066.823747	31540.258786	3913.476602	12154.477592
98.035500	0.332617	0.192951	0.330956	0.348466	7047.417836	31455.798182	3901.675530	12104.888868
98.606000	0.329602	0.191121	0.332668	0.355543	6951.777896	30876.839543	3888.826209	11955.830695
99.036000	0.333696	0.194009	0.337299	0.354016	7004.768708	31162.338835	3903.588255	11987.791268
99.536500	0.332069	0.193017	0.330360	0.355381	6976.473129	31009.558288	3883.730416	11959.210523
100.037000	0.332990	0.193412	0.333265	0.358654	6954.367146	30824.135221	3882.859555	11891.067853
100.537000	0.332473	0.194065	0.335981	0.367338	6869.045073	30313.162428	3868.832002	11712.747636
101.034500	0.333216	0.192847	0.337082	0.362529	6920.316817	30540.468517	3882.722137	11811.065384
101.535000	0.334031	0.195067	0.339850	0.366526	6890.852630	30427.714014	3879.816986	11729.268247
102.035500	0.335877	0.194014	0.335148	0.368171	6892.706781	30257.487584	3864.952914	11695.830350
102.536000	0.329944	0.194776	0.335930	0.376951	6759.171546	29757.690896	3846.526193	11519.459418
103.035500	0.335563	0.195143	0.339558	0.373392	6841.942759	30001.231562	3863.066629	11590.518525
103.536000	0.333538	0.194123	0.337099	0.375335	6805.942031	29817.165628	3852.903068	11551.644995
104.038500	0.335309	0.195756	0.339125	0.378476	6793.584681	29724.022850	3850.343002	11489.178872
104.535500	0.333211	0.195198	0.345651	0.379728	6763.542959	29612.602976	3862.502688	11464.405342
105.037000	0.336243	0.195712	0.340345	0.382819	6763.017944	29454.777471	3843.212921	11403.545795
105.537500	0.330045	0.195230	0.334736	0.389749	6647.521241	29006.041283	3815.093729	11268.682338
106.035000	0.334324	0.196406	0.343591	0.387370	6705.653447	29220.271660	3840.248262	11314.725940
