sample name	sample
index	1426
start time	 05-10-2021  12:20:29 PM
880	0.260820
Peak Time (s)	92.535
Peak Height 	0.2608
calc peak height	90,93
Baseline Time (s)	11.036
Baseline Value 	-0.004345
subtract baseline	10,4
Abs	0.161467
Peak Time (s)	90.04
Peak Height 	0.1615
calc peak height	90,93
Baseline Time (s)	8.537
Baseline Value 	0.002931
subtract baseline	10,3
PK_550	0.094841
Peak Time (s)	90.04
Peak Height 	0.09484
calc peak height	90,93
Baseline Time (s)	8.537
Baseline Value 	4.6975E-4
subtract baseline	10,2
PK_880	0.153026
Peak Time (s)	90.04
Peak Height 	0.153
calc peak height	90,93
Baseline Time (s)	9.037
Baseline Value 	8.5086E-4
subtract baseline	10,1


Time (s)	A880-A510	A880-A775	A880-A975	A880	I510	I775	I975	I880	
0.034500	-0.000259	-0.000795	-0.001811	0.000995	6476.205537	44024.789350	3936.597001	22655.190914
0.537500	0.001862	0.000046	-0.004118	0.003916	6469.527886	43828.394671	3923.180124	22522.468207
1.035000	-0.002166	0.000268	-0.000293	0.004706	6429.607240	43775.026350	3930.948165	22486.735004
1.535500	0.000916	-0.000040	-0.005123	0.002250	6475.536546	43977.489297	3924.868279	22598.060762
2.038500	0.001171	-0.000005	-0.000800	0.000489	6492.400392	44147.498251	3940.521707	22678.245671
2.536000	-0.000981	-0.000179	0.000616	0.000389	6475.235945	44140.579653	3944.456843	22682.832275
3.036000	0.000998	-0.000395	-0.001294	0.001673	6481.039215	43998.434333	3936.181289	22624.282318
3.536500	0.002617	0.000088	0.001142	-0.000505	6512.923181	44250.836817	3948.153517	22723.672381
4.036500	0.002738	0.000258	0.002586	-0.000128	6510.774457	44231.171625	3950.942062	22706.463162
4.536500	-0.000348	-0.000429	-0.005027	0.004536	6446.024828	43725.508361	3919.285630	22494.409930
5.037500	-0.003437	-0.000823	-0.000403	0.002731	6435.413177	43858.246644	3935.749809	22576.203248
5.535000	0.003238	-0.000258	-0.000173	-0.000695	6519.769957	44236.026463	3945.223492	22732.374944
6.036000	0.001558	0.000041	-0.000465	-0.000614	6504.918814	44256.738605	3944.252791	22728.664200
6.535500	0.001558	0.000337	-0.002780	-0.000808	6506.556704	44303.342120	3938.754661	22737.546950
7.036000	-0.000334	0.000224	-0.001559	-0.000536	6488.387388	44266.710180	3941.211273	22725.104491
7.536000	0.001474	0.000258	-0.001286	-0.000908	6506.695838	44305.425930	3942.885673	22742.133645
8.036500	0.001945	0.000421	0.000430	-0.000577	6507.866324	44289.291512	3946.485951	22726.954539
8.536500	-0.000871	0.000000	0.000000	0.004289	6443.744283	43789.076847	3932.776508	22505.619866
9.037000	0.000000	-0.000502	0.001113	-0.000769	6493.139394	44219.880290	3948.769616	22735.778540
9.537000	-0.001232	-0.000085	-0.002597	-0.000776	6482.873405	44260.184949	3939.144295	22736.083197
10.035000	0.001882	0.001052	0.000015	0.000214	6500.690834	44274.161087	3943.349843	22690.833962
10.538000	-0.001229	-0.000499	-0.001749	0.002523	6455.410359	43908.357697	3932.819405	22585.648113
11.035500	0.000452	0.000566	-0.003131	0.000000	6490.479490	44248.280353	3935.760326	22700.593680
11.535500	0.001403	0.000360	0.003513	-0.000577	6503.307851	44283.591197	3954.546246	22726.972075
12.036000	-0.000952	-0.001013	-0.002904	-0.001619	6492.277464	44252.095200	3940.532001	22774.702906
12.536000	-0.000614	0.000281	-0.002631	0.004267	6446.050719	43817.482001	3926.081075	22506.582354
13.036500	0.002245	0.000675	-0.000651	-0.000029	6505.775655	44261.316806	3942.250881	22701.903182
13.536500	0.000724	-0.000034	0.000622	0.000335	6489.949782	44159.399588	3944.611543	22685.292929
14.037000	-0.000600	0.000431	-0.002780	0.002176	6463.525203	44029.064618	3931.060709	22601.446157
14.537500	-0.001529	-0.001171	-0.001174	0.002998	6448.990422	43800.379736	3933.078989	22564.112671
15.041000	0.002911	0.000175	0.005956	-0.000132	6512.258538	44223.607264	3959.799149	22706.624064
15.535500	0.003401	0.000967	-0.002865	0.000466	6511.346310	44242.011235	3935.241917	22679.294670
16.035500	0.002858	0.000282	-0.001916	-0.000147	6511.938668	44235.214751	3939.280215	22707.320402
16.536000	-0.001303	-0.000540	-0.002890	0.004624	6437.404289	43706.834966	3924.508546	22490.444731
17.036000	0.002904	0.000907	0.003320	-0.002476	6532.020931	44517.103452	3959.029040	22814.044273
17.537500	0.000896	0.000708	-0.000741	0.001015	6485.694924	44165.310422	3939.310942	22654.270838
18.036500	0.000539	-0.000177	-0.005051	0.000579	6486.358282	44122.738479	3929.328745	22674.154734
18.537000	0.000551	0.000334	0.000695	0.002180	6473.072003	44019.411632	3940.013281	22601.222390
19.037000	0.001254	0.000056	-0.003683	0.000394	6493.902162	44162.328546	3933.321376	22682.600832
19.537500	0.003609	0.000682	0.000547	0.000909	6509.368885	44172.930484	3942.927073	22659.125791
20.035000	0.000464	-0.000440	-0.003013	-0.000081	6491.264788	44160.433354	3936.273710	22704.314986
20.535000	-0.002890	0.000765	0.001634	0.001810	6447.550710	44095.278467	3943.407698	22618.059901
21.035500	0.000793	-0.000035	-0.002906	0.000437	6489.674182	44149.669458	3935.212687	22680.649806
21.535500	0.001069	0.000356	-0.001245	0.000297	6493.159158	44200.061562	3939.866172	22687.021784
22.036000	0.000303	0.000038	-0.000866	0.000437	6485.564337	44156.510841	3940.485265	22680.630010
22.536500	0.000496	-0.000667	0.001243	0.001700	6476.619530	43970.202489	3942.679280	22623.052950
23.037000	0.001750	-0.000263	-0.002810	0.000226	6499.475583	44148.054200	3936.005106	22690.281861
23.537000	0.001070	0.000546	0.001159	0.001079	6486.619405	44143.898775	3944.075403	22651.361649
24.037500	0.001083	0.000034	0.000995	0.000839	6488.727615	44118.011156	3944.272019	22662.279110
24.535000	0.000725	-0.000022	0.002124	0.000581	6487.894390	44137.152077	3947.882969	22674.053665
25.035500	0.001184	0.000603	-0.000695	0.001461	6484.370185	44113.067236	3938.276291	22633.953874
25.535000	-0.000910	-0.000817	0.002755	0.000197	6477.437141	44098.216214	3950.533940	22691.602705
26.036000	0.001232	-0.000312	-0.000225	0.000671	6491.395671	44101.216272	3941.540951	22669.979454
26.536000	-0.000138	0.000022	0.001953	0.000403	6482.157476	44158.260389	3947.900251	22682.169779
27.036000	-0.001294	-0.000541	-0.003988	0.004167	6441.250539	43749.598988	3922.870879	22511.118725
27.536500	0.001881	-0.000712	-0.002425	-0.001692	6516.729410	44287.620718	3941.963945	22778.049495
28.037500	0.002111	0.001318	-0.002049	0.000357	6501.406416	44285.842220	3937.632100	22684.303276
28.537000	0.002262	0.000644	0.003559	0.000205	6503.961723	44236.191662	3952.616549	22691.244501
29.034500	-0.001950	-0.000577	-0.003540	0.005020	6428.793730	43666.200018	3921.839912	22472.551631
29.534500	0.002430	-0.000032	-0.000120	-0.000458	6510.949659	44234.914291	3944.744829	22721.510427
30.035000	0.000407	-0.001254	-0.005226	-0.000784	6496.680498	44149.830739	3932.381539	22736.446000
30.535500	0.001082	0.000353	-0.001212	0.002255	6476.882235	44014.144510	3934.891496	22597.823728
31.036000	-0.000736	-0.000053	0.000602	0.004948	6439.407011	43722.150494	3932.629400	22475.810539
31.536000	0.003908	0.000441	0.001499	0.000049	6519.149436	44231.675974	3947.641786	22698.357847
32.036500	0.004480	0.000528	-0.001177	0.000071	6523.799414	44237.950769	3940.630274	22697.370362
32.536500	-0.001369	-0.000393	-0.001150	0.004649	6436.649871	43718.236622	3928.896439	22489.312857
33.037000	-0.000433	-0.000142	-0.000240	0.005315	6438.876512	43679.311197	3929.521695	22459.226514
33.537500	0.000117	-0.000247	0.001758	0.000426	6484.106640	44130.596158	3947.333454	22681.147672
34.035000	-0.002174	0.000065	0.000137	0.001348	6457.322812	44072.799326	3940.723882	22639.101119
34.535000	-0.000793	0.000223	-0.002405	0.002676	6457.765660	43962.102889	3930.740946	22578.726020
35.035500	0.000413	0.000305	0.002227	0.003460	6461.276279	43895.905501	3940.668213	22543.162173
35.535500	0.001769	0.000737	-0.000182	0.002170	6483.330977	44058.513481	3937.770499	22601.684123
36.036000	0.003203	0.001131	0.000294	0.002604	6491.715690	44054.795388	3937.880495	22581.993193
36.536500	0.001737	0.000450	-0.001020	0.002516	6480.177186	43998.691506	3934.715313	22585.969764
37.039000	-0.000009	0.000292	0.003436	0.001598	6473.260941	44070.591956	3948.653457	22627.725134
37.537000	-0.000663	-0.000280	0.000595	0.000936	6473.329718	44079.070880	3942.981244	22657.866437
38.037000	-0.000115	0.000018	-0.004330	0.001461	6473.515049	44057.553288	3928.916871	22633.948727
38.534500	0.002104	-0.000118	0.000469	0.001453	6492.146729	44045.504458	3941.310218	22634.305603
39.034500	0.002435	0.000992	0.000423	0.002387	6487.088885	44062.142054	3938.773218	22591.814401
39.535500	0.002755	-0.000086	0.002405	0.001566	6496.659252	44037.776180	3946.049358	22629.166422
40.035500	0.000662	0.000066	0.000434	0.001234	6481.912707	44083.675137	3941.789862	22644.312978
40.536000	0.000753	0.000233	-0.004211	0.002347	6473.376063	43994.149506	3926.952832	22593.665381
41.036000	0.002188	0.000421	0.003516	0.001880	6489.273035	44056.062542	3948.126475	22614.879324
41.539000	0.001767	-0.000340	0.003424	0.000961	6493.445381	44071.088688	3950.285030	22656.737962
42.036500	0.000214	-0.000357	0.003171	0.001059	6479.623959	44060.146922	3949.368190	22652.280677
42.540000	0.002758	0.000638	0.003166	0.002274	6490.753658	44039.389040	3946.188720	22596.990103
43.034500	0.001994	0.000630	0.002674	0.001463	6491.144973	44115.429808	3947.017891	22633.880232
43.535000	0.003798	0.000618	0.001355	-0.002878	6543.018758	44527.830671	3954.919579	22832.511043
44.035000	0.001019	0.000708	-0.002955	-0.000556	6499.902769	44314.636238	3937.649761	22726.004021
44.535000	-0.001508	-0.001025	-0.000150	0.004302	6438.371113	43691.536816	3932.355993	22505.033143
45.036000	0.001718	-0.000142	-0.001542	-0.000690	6506.905824	44246.469080	3941.652600	22732.131174
45.536000	0.001509	0.000727	-0.001074	-0.000334	6502.152435	44295.348007	3941.944562	22715.840410
46.039000	0.001223	-0.000143	0.002288	-0.000411	6500.394877	44219.837754	3950.899836	22719.358670
46.536500	0.000062	0.000107	-0.000169	0.003779	6455.702561	43847.116772	3933.654359	22528.699980
47.036500	-0.000811	-0.000032	-0.000880	0.002243	6461.208342	43978.875122	3935.779485	22598.381305
47.537500	0.001292	0.000477	0.000006	0.001814	6482.323192	44067.684110	3939.178413	22617.908805
48.035000	0.000534	0.000187	0.001044	-0.000281	6493.526015	44238.931984	3947.315792	22713.458775
48.535000	0.000260	-0.000390	-0.000897	0.005119	6446.233480	43674.392307	3928.338506	22468.069708
49.035500	-0.000029	0.000736	-0.002540	0.004650	6447.727987	43824.369819	3925.336958	22489.284881
49.535500	0.004869	0.001683	0.003217	-0.002112	6545.613295	44556.491625	3957.801439	22797.329101
50.036000	0.000212	0.000050	-0.001119	-0.000698	6494.319812	44265.509255	3942.773199	22732.494159
50.536000	-0.003560	-0.005883	-0.000071	0.010705	6369.193944	42648.445051	3916.207670	22217.481080
51.036500	0.006341	-0.024160	0.036107	0.251339	4918.918868	24816.225831	3502.822520	13982.111897
51.536500	-0.016327	-0.034377	-0.021549	-0.123401	7503.399003	53580.110479	4242.163602	29221.190893
52.037000	-0.015950	-0.122855	-0.026748	-0.303924	9907.611265	65535.000000	4951.830829	42808.135963
52.537000	-0.003902	-0.039771	-0.006241	-0.177829	8277.721890	59632.916298	4490.701637	32741.047824
53.034500	-0.006188	-0.020028	-0.008012	-0.106823	7434.920272	53320.884190	4232.203801	28233.784964
53.535000	-0.019750	-0.024365	-0.019226	-0.132127	7560.556825	55812.809173	4278.927394	29756.192762
54.035500	-0.013486	-0.048571	-0.016180	-0.211181	8583.031241	62930.277119	4583.508471	35126.348153
54.536000	0.001555	-0.027371	-0.002916	-0.170735	8257.316001	60329.820883	4476.227869	32256.911192
55.036000	0.009324	-0.017480	0.010293	-0.125043	7805.188644	55788.616134	4356.525673	29321.002301
55.536000	0.009757	-0.012614	0.024604	-0.034824	6879.788991	46359.009347	4109.365721	24357.159693
56.036000	0.019203	-0.004383	0.023873	-0.024257	6869.401605	46126.197147	4076.136156	23840.386451
56.536500	0.028200	0.002373	0.034584	0.009431	6647.286996	43529.366845	4011.158633	22274.328472
57.037000	0.041341	0.014199	0.047101	0.039752	6500.019966	41837.185701	3963.126691	20965.046075
57.537500	0.053326	0.022375	0.058851	0.058148	6446.543568	40932.538137	3945.694651	20214.074960
58.035000	0.063737	0.030327	0.067632	0.083964	6321.215620	39401.461812	3902.213322	19212.468231
58.535500	0.070714	0.035861	0.079947	0.102818	6227.577463	38300.122260	3885.968688	18517.655723
59.037000	0.081122	0.042179	0.084049	0.123809	6146.282031	37125.433389	3845.130982	17778.792333
59.535500	0.090027	0.046195	0.096042	0.137568	6109.649320	36367.103142	3840.952632	17313.519560
60.036000	0.096464	0.049715	0.102712	0.151742	6052.105272	35557.026205	3823.381677	16849.362990
60.536000	0.098834	0.050214	0.107929	0.170224	5935.488578	34234.001502	3793.054629	16266.420635
61.036500	0.103609	0.055841	0.119548	0.201039	5755.948392	32470.696244	3750.777611	15348.047520
61.537000	0.103030	0.055649	0.120134	0.223536	5605.597435	30967.461141	3704.751021	14717.532532
62.037000	0.107490	0.065258	0.120367	0.212305	5706.960801	32345.201007	3728.542723	15028.210009
62.534500	0.109748	0.069927	0.113518	0.197522	5821.273975	33692.178146	3745.379407	15449.582933
63.049000	0.115718	0.072127	0.114249	0.199878	5846.100042	33681.162844	3741.906633	15381.474526
63.538000	0.117555	0.073923	0.127093	0.203967	5830.605798	33519.243017	3760.775507	15264.106263
64.035500	0.117411	0.073897	0.127468	0.207069	5808.414140	33299.808616	3754.857912	15175.817605
64.536000	0.119900	0.076847	0.122596	0.210970	5798.815906	33233.409975	3736.067326	15065.676215
65.036000	0.119633	0.076891	0.119987	0.214852	5770.780365	32966.853007	3722.406875	14957.048779
65.536500	0.122828	0.078305	0.132953	0.215033	5791.113475	33052.239802	3749.509525	14951.996196
66.036500	0.124578	0.078866	0.133765	0.216344	5794.087517	33000.281549	3748.436556	14915.551080
66.536500	0.123197	0.079612	0.128416	0.222409	5744.056766	32634.390835	3724.231241	14748.355670
67.037000	0.128413	0.081341	0.131556	0.220220	5793.813547	32903.508442	3735.452898	14808.431795
67.534500	0.130584	0.083097	0.130579	0.222547	5792.752452	32864.061564	3728.477741	14744.554383
68.038000	0.132430	0.084005	0.135850	0.224673	5790.859614	32780.282282	3735.116300	14686.520096
68.535000	0.129783	0.085325	0.133564	0.232376	5721.612186	32344.964213	3714.202464	14478.587817
69.035000	0.133505	0.085866	0.142315	0.231088	5754.930776	32469.061888	3735.223438	14513.101459
69.536000	0.133779	0.086271	0.137731	0.229957	5764.341949	32573.638695	3727.938054	14543.490169
70.036000	0.137033	0.087453	0.141379	0.231825	5773.655789	32526.925518	3731.686645	14493.342905
70.536000	0.134111	0.088586	0.136080	0.238696	5708.473688	32138.547716	3706.361334	14310.698628
71.037000	0.136644	0.090012	0.142254	0.236780	5737.900325	32364.056739	3723.116202	14361.326191
71.537500	0.140746	0.090219	0.139757	0.235739	5772.303183	32448.797094	3720.077989	14388.950613
72.037500	0.140898	0.090794	0.143525	0.236710	5766.792510	32421.845478	3725.923303	14363.186077
72.538000	0.137955	0.089171	0.137239	0.235251	5756.844810	32410.772334	3715.858240	14401.909742
73.035500	0.139688	0.089673	0.137657	0.237156	5755.696706	32315.698915	3712.781106	14351.394681
73.535500	0.142003	0.090038	0.147747	0.237537	5768.663657	32314.656964	3733.071493	14341.315626
74.035500	0.144595	0.090874	0.140612	0.239128	5775.395608	32263.577240	3714.813072	14299.312599
74.536000	0.145355	0.090554	0.147074	0.239581	5777.460338	32211.400284	3727.346159	14287.382052
75.036500	0.143890	0.090239	0.147012	0.240715	5760.003937	32113.937541	3724.837786	14257.586680
75.536500	0.143591	0.090007	0.153480	0.240755	5757.730901	32095.639589	3738.400722	14256.530609
76.037000	0.146425	0.091254	0.151252	0.242784	5763.123685	32043.216355	3729.396233	14203.403768
76.537000	0.148399	0.092008	0.154314	0.244506	5764.813701	31978.437368	3732.220169	14158.509454
77.037000	0.147728	0.091846	0.147644	0.246047	5750.009595	31864.805454	3715.046663	14118.483779
77.535500	0.149149	0.093478	0.157415	0.246611	5755.733367	31936.009658	3734.326876	14103.870789
78.035500	0.147342	0.093804	0.156030	0.246978	5741.226106	31933.239435	3730.625176	14094.362090
78.535500	0.149572	0.093549	0.156348	0.246507	5759.265379	31947.708167	3732.290642	14106.567637
79.036000	0.151593	0.094660	0.157334	0.247918	5763.357239	31927.661765	3731.395956	14070.092048
79.536000	0.149933	0.093692	0.154241	0.247018	5758.259720	31923.106214	3726.779964	14093.343681
80.036000	0.149540	0.093140	0.153665	0.246476	5759.256140	31922.437692	3726.707614	14107.368985
80.537000	0.147936	0.094069	0.151870	0.252301	5709.921109	31597.525561	3710.855540	13957.491745
81.037000	0.156234	0.096195	0.154726	0.248731	5789.143263	31975.928438	3724.207125	14049.116857
81.537500	0.153037	0.094744	0.153033	0.247232	5777.676797	31979.143793	3723.799830	14087.810743
82.035000	0.148888	0.094678	0.156299	0.247128	5750.532880	31981.618262	3730.876497	14090.491468
82.535000	0.150836	0.095568	0.151498	0.248513	5754.293061	31948.569062	3717.926871	14054.723674
83.035500	0.151556	0.094729	0.156786	0.247781	5764.028403	31941.442674	3730.528934	14073.628630
83.535500	0.153175	0.095894	0.149166	0.248735	5768.487961	31955.481819	3712.634531	14049.001377
84.036000	0.152843	0.094594	0.160152	0.247647	5773.572535	31941.335575	3737.933695	14077.078725
84.536500	0.152506	0.095072	0.155939	0.248688	5764.311958	31903.782553	3726.837596	14050.212422
85.036500	0.153312	0.094922	0.155718	0.249276	5765.771089	31854.577127	3725.142521	14035.076874
85.540000	0.152355	0.094670	0.156099	0.248911	5761.799983	31862.083260	3726.705359	14044.473972
86.037000	0.152654	0.095603	0.159120	0.250407	5753.786377	31824.658413	3729.912543	14006.006144
86.535000	0.149262	0.093769	0.158664	0.254818	5702.093180	31412.294354	3719.720735	13893.364300
87.035000	0.152733	0.095111	0.155423	0.250837	5751.443725	31763.351405	3721.261557	13994.970072
87.535000	0.150339	0.093668	0.155869	0.250384	5738.505479	31697.729376	3723.139940	14006.596838
88.035000	0.151815	0.095209	0.159477	0.252517	5734.144195	31658.628295	3726.229244	13951.991955
88.536000	0.150512	0.094051	0.154252	0.256740	5697.682191	31304.984495	3706.624671	13844.632810
89.036500	0.150988	0.094553	0.156548	0.254238	5717.273383	31501.793068	3716.525945	13908.097820
89.536500	0.152548	0.094662	0.162955	0.254994	5722.588053	31459.349447	3728.329874	13888.893926
90.039500	0.153026	0.094841	0.161467	0.256446	5716.147661	31375.828491	3722.168929	13852.058933
90.536500	0.150551	0.093228	0.155934	0.255958	5703.071072	31302.308792	3711.695296	13864.432271
91.037000	0.152628	0.092450	0.159105	0.257237	5708.316224	31168.258567	3715.610379	13832.064430
91.535000	0.150598	0.093940	0.156244	0.259286	5681.597467	31131.971966	3705.488218	13780.417738
92.034500	0.152193	0.093307	0.156505	0.259953	5687.655091	31047.638915	3704.655605	13763.642917
92.535000	0.150046	0.091696	0.155921	0.260820	5668.035094	30887.793192	3701.690120	13741.902473
93.036000	0.151867	0.092132	0.162668	0.263104	5665.025477	30769.101489	3710.844867	13684.807607
93.536000	0.150519	0.092471	0.158414	0.264050	5650.200372	30730.180860	3700.185585	13661.246804
94.036500	0.150732	0.091750	0.158941	0.264360	5649.579308	30664.346885	3700.629098	13653.557473
94.539000	0.150772	0.090970	0.160633	0.265525	5642.333756	30540.471977	3701.703185	13624.628001
95.038000	0.150413	0.090657	0.160711	0.267450	5627.685237	30398.563176	3697.940169	13577.003088
95.533500	0.150030	0.092177	0.165232	0.269486	5612.263574	30365.970004	3703.005837	13526.881633
96.041000	0.152601	0.092135	0.161186	0.271131	5618.162894	30259.664815	3691.450819	13486.552293
