sample name	sample
index	1384
start time	 05-03-2021  03:02:29 PM


Wavelength (nm)	Absorbance
494.344910	0.044957
494.563924	0.044957
494.782919	0.044957
495.001897	-0.082147
495.220856	0.051382
495.439797	0.043702
495.658719	0.024811
495.877624	0.014427
496.096510	0.068548
496.315378	0.003951
496.534227	0.013539
496.753059	0.019454
496.971872	0.087132
497.190667	0.147741
497.409444	0.163919
497.628203	0.163674
497.846943	0.165230
498.065665	0.160369
498.284369	0.163552
498.503055	0.164747
498.721723	0.163946
498.940372	0.163857
499.159003	0.162685
499.377616	0.161194
499.596210	0.162831
499.814787	0.162624
500.033345	0.164729
500.251885	0.164772
500.470406	0.165488
500.688910	0.166440
500.907395	0.166261
501.125862	0.167709
501.344311	0.168029
501.562742	0.167917
501.781154	0.166598
501.999548	0.166969
502.217924	0.166112
502.436282	0.166651
502.654621	0.167504
502.872942	0.166113
503.091245	0.166209
503.309530	0.166417
503.527797	0.165935
503.746045	0.167829
503.964275	0.166349
504.182487	0.167146
504.400681	0.165685
504.618856	0.164447
504.837013	0.165676
505.055152	0.165027
505.273273	0.166257
505.491376	0.167361
505.709460	0.167106
505.927526	0.168322
506.145574	0.167718
506.363604	0.167995
506.581615	0.168001
506.799608	0.168849
507.017583	0.169237
507.235540	0.168586
507.453478	0.167498
507.671399	0.168343
507.889301	0.167242
508.107185	0.167178
508.325050	0.167097
508.542898	0.167168
508.760727	0.167015
508.978538	0.167091
509.196330	0.167041
509.414105	0.167407
509.631861	0.166539
509.849599	0.167161
510.067319	0.167605
510.285021	0.166528
510.502704	0.166298
510.720369	0.166530
510.938016	0.167763
511.155645	0.169080
511.373255	0.168146
511.590848	0.167817
511.808422	0.168283
512.025977	0.168739
512.243515	0.170193
512.461034	0.170084
512.678536	0.169751
512.896018	0.168685
513.113483	0.167665
513.330930	0.168398
513.548358	0.168889
513.765768	0.168781
513.983160	0.169456
514.200533	0.169661
514.417889	0.170416
514.635226	0.170405
514.852545	0.169873
515.069845	0.169820
515.287128	0.170577
515.504392	0.171439
515.721638	0.172097
515.938866	0.171959
516.156075	0.171134
516.373267	0.171651
516.590440	0.172276
516.807594	0.173152
517.024731	0.172859
517.241850	0.173327
517.458950	0.173485
517.676032	0.172497
517.893095	0.172437
518.110141	0.173134
518.327168	0.173129
518.544177	0.173925
518.761168	0.173805
518.978141	0.174526
519.195095	0.174104
519.412031	0.174078
519.628949	0.174237
519.845849	0.174618
520.062731	0.174372
520.279594	0.174167
520.496439	0.174626
520.713266	0.175160
520.930074	0.174588
521.146865	0.175310
521.363637	0.176023
521.580391	0.177754
521.797127	0.177041
522.013844	0.176955
522.230543	0.177509
522.447224	0.176143
522.663887	0.176633
522.880532	0.177498
523.097158	0.177483
523.313766	0.176427
523.530356	0.176173
523.746928	0.176367
523.963481	0.178289
524.180017	0.178863
524.396534	0.179749
524.613032	0.180340
524.829513	0.180735
525.045975	0.180286
525.262420	0.181011
525.478845	0.181663
525.695253	0.182203
525.911643	0.181488
526.128014	0.181753
526.344367	0.181774
526.560702	0.182117
526.777018	0.182333
526.993316	0.182592
527.209597	0.182251
527.425858	0.181363
527.642102	0.181975
527.858328	0.181970
528.074535	0.182775
528.290724	0.183290
528.506894	0.182689
528.723047	0.183996
528.939181	0.185051
529.155297	0.185713
529.371395	0.186045
529.587475	0.185527
529.803536	0.186181
530.019579	0.186064
530.235604	0.187115
530.451611	0.187524
530.667600	0.187182
530.883570	0.187170
531.099522	0.188279
531.315456	0.189308
531.531372	0.190215
531.747269	0.190808
531.963148	0.190932
532.179009	0.190307
532.394852	0.190613
532.610676	0.190841
532.826482	0.191202
533.042271	0.191592
533.258040	0.191651
533.473792	0.191955
533.689525	0.192105
533.905240	0.192368
534.120937	0.192766
534.336616	0.193279
534.552277	0.193689
534.767919	0.193833
534.983543	0.193645
535.199149	0.194211
535.414736	0.194462
535.630306	0.194539
535.845857	0.195227
536.061390	0.196045
536.276904	0.195752
536.492401	0.196099
536.707879	0.196526
536.923339	0.197130
537.138781	0.197661
537.354204	0.198293
537.569610	0.199070
537.784997	0.199278
538.000366	0.199500
538.215716	0.200345
538.431049	0.200287
538.646363	0.200815
538.861659	0.200496
539.076937	0.200475
539.292196	0.200419
539.507438	0.200731
539.722661	0.200912
539.937866	0.201284
540.153052	0.201880
540.368221	0.202531
540.583371	0.202803
540.798503	0.203749
541.013617	0.204111
541.228712	0.204686
541.443789	0.204278
541.658848	0.205325
541.873889	0.205145
542.088912	0.205371
542.303916	0.204948
542.518902	0.204578
542.733870	0.204452
542.948820	0.204833
543.163752	0.204336
543.378665	0.204647
543.593560	0.204281
543.808437	0.204614
544.023295	0.205098
544.238136	0.205405
544.452958	0.206533
544.667762	0.207200
544.882548	0.207093
545.097315	0.207968
545.312064	0.208173
545.526795	0.207728
545.741508	0.207958
545.956203	0.207336
546.170879	0.207584
546.385537	0.207413
546.600177	0.207607
546.814799	0.207667
547.029402	0.207474
547.243988	0.207720
547.458555	0.208225
547.673103	0.208476
547.887634	0.209638
548.102146	0.210386
548.316640	0.210862
548.531116	0.210387
548.745574	0.211379
548.960013	0.212357
549.174435	0.212520
549.388838	0.212573
549.603222	0.212447
549.817589	0.212000
550.031937	0.211902
550.246267	0.212472
550.460579	0.212888
550.674873	0.212640
550.889148	0.212365
551.103405	0.213369
551.317644	0.213661
551.531865	0.214414
551.746068	0.214442
551.960252	0.214624
552.174418	0.213900
552.388566	0.214147
552.602696	0.214402
552.816807	0.214966
553.030900	0.214686
553.244975	0.214962
553.459032	0.215458
553.673070	0.216282
553.887091	0.216075
554.101093	0.216603
554.315077	0.216956
554.529042	0.216905
554.742990	0.216720
554.956919	0.216837
555.170830	0.216934
555.384722	0.216876
555.598597	0.217053
555.812453	0.217897
556.026291	0.218274
556.240111	0.218553
556.453913	0.219092
556.667696	0.219541
556.881461	0.219973
557.095208	0.220289
557.308937	0.220369
557.522647	0.220212
557.736339	0.220569
557.950013	0.220665
558.163669	0.220882
558.377307	0.221007
558.590926	0.220858
558.804527	0.221144
559.018110	0.221204
559.231675	0.221027
559.445221	0.221496
559.658749	0.221019
559.872259	0.221154
560.085751	0.221536
560.299225	0.221059
560.512680	0.221262
560.726117	0.220589
560.939536	0.221114
561.152937	0.221340
561.366319	0.220705
561.579683	0.220876
561.793029	0.220922
562.006357	0.220948
562.219667	0.221291
562.432958	0.221223
562.646231	0.221679
562.859486	0.221602
563.072723	0.221872
563.285941	0.222424
563.499141	0.222991
563.712323	0.222845
563.925487	0.222597
564.138632	0.222952
564.351760	0.223425
564.564869	0.223474
564.777960	0.223435
564.991032	0.223716
565.204087	0.223970
565.417123	0.223803
565.630141	0.224287
565.843140	0.224761
566.056122	0.224665
566.269085	0.224525
566.482030	0.224972
566.694957	0.224899
566.907866	0.225031
567.120756	0.225317
567.333628	0.225349
567.546482	0.225179
567.759318	0.224639
567.972135	0.224898
568.184935	0.224688
568.397716	0.224647
568.610478	0.225172
568.823223	0.225431
569.035949	0.225356
569.248657	0.225713
569.461347	0.226343
569.674019	0.226661
569.886672	0.227088
570.099308	0.228109
570.311925	0.228438
570.524523	0.228492
570.737104	0.228387
570.949666	0.228591
571.162210	0.229014
571.374736	0.228747
571.587244	0.229352
571.799733	0.229470
572.012205	0.229306
572.224658	0.229254
572.437092	0.229273
572.649509	0.229267
572.861907	0.229402
573.074287	0.228987
573.286649	0.229311
573.498993	0.228832
573.711318	0.228467
573.923625	0.228815
574.135914	0.229454
574.348185	0.229640
574.560438	0.229804
574.772672	0.229949
574.984888	0.230193
575.197086	0.230192
575.409266	0.230503
575.621427	0.231298
575.833570	0.231464
576.045695	0.231329
576.257802	0.231790
576.469890	0.232107
576.681961	0.232232
576.894013	0.232237
577.106046	0.232419
577.318062	0.232773
577.530059	0.232170
577.742039	0.232083
577.954000	0.232110
578.165942	0.231809
578.377867	0.231814
578.589773	0.232037
578.801661	0.232284
579.013531	0.232486
579.225382	0.232906
579.437216	0.233345
579.649031	0.233547
579.860828	0.233419
580.072606	0.233972
580.284367	0.234068
580.496109	0.233854
580.707833	0.234142
580.919539	0.234447
581.131227	0.234526
581.342896	0.234238
581.554547	0.234081
581.766180	0.234516
581.977795	0.234283
582.189391	0.234595
582.400969	0.235099
582.612529	0.235323
582.824071	0.235533
583.035595	0.235231
583.247100	0.235914
583.458587	0.236133
583.670056	0.236028
583.881506	0.236443
584.092939	0.236393
584.304353	0.236581
584.515749	0.236470
584.727127	0.236346
584.938486	0.236812
585.149828	0.236977
585.361151	0.237416
585.572456	0.237676
585.783742	0.237520
585.995011	0.237721
586.206261	0.237797
586.417493	0.237969
586.628706	0.238051
586.839902	0.237998
587.051079	0.238241
587.262238	0.238378
587.473379	0.238701
587.684502	0.239168
587.895606	0.239248
588.106692	0.239521
588.317760	0.240037
588.528810	0.240494
588.739841	0.240589
588.950855	0.240851
589.161850	0.240880
589.372827	0.240905
589.583785	0.240879
589.794726	0.241187
590.005648	0.241032
590.216552	0.241043
590.427437	0.241241
590.638305	0.241670
590.849154	0.242135
591.059985	0.242367
591.270798	0.242528
591.481592	0.242859
591.692369	0.243274
591.903127	0.243704
592.113867	0.243890
592.324588	0.243479
592.535292	0.243374
592.745977	0.243255
592.956644	0.243402
593.167293	0.243604
593.377923	0.243777
593.588536	0.243784
593.799130	0.243500
594.009706	0.243759
594.220263	0.244235
594.430803	0.244496
594.641324	0.244526
594.851827	0.244640
595.062312	0.244687
595.272778	0.244871
595.483227	0.244727
595.693657	0.245531
595.904069	0.245823
596.114462	0.245954
596.324838	0.245808
596.535195	0.245588
596.745534	0.245858
596.955855	0.246304
597.166157	0.246533
597.376441	0.246818
597.586707	0.246380
597.796955	0.246115
598.007185	0.246518
598.217396	0.246848
598.427589	0.247731
598.637764	0.247784
598.847921	0.247690
599.058060	0.247707
599.268180	0.248228
599.478282	0.248909
599.688366	0.249462
599.898431	0.249597
600.108479	0.250163
600.318508	0.249972
600.528519	0.250318
600.738511	0.250515
600.948486	0.250790
601.158442	0.250758
601.368380	0.250722
601.578300	0.250500
601.788202	0.250341
601.998085	0.250394
602.207950	0.250776
602.417797	0.250640
602.627626	0.250857
602.837436	0.250723
603.047228	0.250852
603.257002	0.250825
603.466758	0.250778
603.676496	0.250965
603.886215	0.251042
604.095916	0.250717
604.305599	0.250936
604.515264	0.250955
604.724910	0.251588
604.934538	0.251471
605.144148	0.251745
605.353740	0.252508
605.563314	0.252824
605.772869	0.252828
605.982406	0.253365
606.191925	0.253466
606.401425	0.253438
606.610908	0.253247
606.820372	0.253409
607.029818	0.253800
607.239246	0.253305
607.448655	0.253301
607.658047	0.253352
607.867420	0.253395
608.076775	0.253823
608.286111	0.253952
608.495430	0.254113
608.704730	0.253926
608.914012	0.253616
609.123275	0.254119
609.332521	0.254269
609.541748	0.254716
609.750957	0.254775
609.960148	0.254807
610.169321	0.255231
610.378475	0.255322
610.587611	0.255702
610.796729	0.256062
611.005829	0.255982
611.214910	0.256452
611.423974	0.256650
611.633019	0.256577
611.842045	0.256395
612.051054	0.256730
612.260044	0.257048
612.469017	0.257781
612.677970	0.257906
612.886906	0.258324
613.095824	0.258231
613.304723	0.258185
613.513604	0.258843
613.722467	0.259248
613.931311	0.259095
614.140138	0.258783
614.348946	0.258719
614.557736	0.258916
614.766507	0.258700
614.975261	0.258690
615.183996	0.258443
615.392713	0.258072
615.601412	0.258114
615.810092	0.258230
616.018754	0.258479
616.227399	0.258541
616.436024	0.258491
616.644632	0.258825
616.853222	0.259392
617.061793	0.259608
617.270346	0.259891
617.478880	0.259846
617.687397	0.260019
617.895895	0.260382
618.104375	0.260319
618.312837	0.260116
618.521281	0.260259
618.729706	0.259703
618.938113	0.259999
619.146502	0.259866
619.354873	0.260253
619.563226	0.260397
619.771560	0.260413
619.979876	0.260692
620.188174	0.261185
620.396453	0.261356
620.604715	0.261959
620.812958	0.262025
621.021183	0.262508
621.229390	0.262256
621.437578	0.262423
621.645748	0.262168
621.853900	0.262072
622.062034	0.261984
622.270150	0.262053
622.478247	0.262026
622.686326	0.262221
622.894387	0.262212
623.102430	0.262498
623.310454	0.262592
623.518461	0.263201
623.726449	0.263401
623.934418	0.263466
624.142370	0.263755
624.350303	0.264005
624.558218	0.264314
624.766115	0.264289
624.973994	0.264829
625.181855	0.264872
625.389697	0.264800
625.597521	0.265254
625.805327	0.265653
626.013114	0.265678
626.220883	0.265626
626.428634	0.265434
626.636367	0.265868
626.844082	0.265591
627.051778	0.265648
627.259457	0.265836
627.467117	0.265625
627.674758	0.265662
627.882382	0.265989
628.089987	0.266391
628.297574	0.266746
628.505143	0.266722
628.712694	0.267268
628.920226	0.267457
629.127740	0.267746
629.335236	0.268248
629.542714	0.268839
629.750174	0.268946
629.957615	0.268916
630.165038	0.268991
630.372443	0.269225
630.579829	0.269218
630.787198	0.269561
630.994548	0.269501
631.201880	0.269334
631.409194	0.269021
631.616489	0.269087
631.823766	0.269350
632.031025	0.269535
632.238266	0.270009
632.445489	0.270213
632.652693	0.270403
632.859879	0.270667
633.067047	0.270936
633.274197	0.271121
633.481329	0.271175
633.688442	0.270947
633.895537	0.271145
634.102614	0.271158
634.309672	0.271133
634.516713	0.271370
634.723735	0.271420
634.930739	0.271627
635.137724	0.271996
635.344692	0.272059
635.551641	0.272426
635.758572	0.272537
635.965485	0.272268
636.172379	0.272375
636.379256	0.272233
636.586114	0.272175
636.792954	0.272134
636.999775	0.272283
637.206579	0.272443
637.413364	0.272202
637.620131	0.272464
637.826880	0.272778
638.033610	0.272852
638.240323	0.273079
638.447017	0.273361
638.653692	0.273651
638.860350	0.273514
639.066990	0.273469
639.273611	0.273917
639.480214	0.273911
639.686798	0.274034
639.893365	0.274041
640.099913	0.274430
640.306443	0.274644
640.512955	0.274549
640.719449	0.274703
640.925924	0.275107
641.132381	0.275275
641.338820	0.275486
641.545241	0.275726
641.751644	0.276320
641.958028	0.275997
642.164394	0.276162
642.370742	0.276502
642.577071	0.276750
642.783383	0.277081
642.989676	0.277375
643.195951	0.277627
643.402207	0.277691
643.608446	0.277759
643.814666	0.278139
644.020868	0.278371
644.227052	0.278399
644.433218	0.278913
644.639365	0.278992
644.845494	0.279177
645.051605	0.279341
645.257698	0.279665
645.463772	0.279384
645.669828	0.279640
645.875866	0.279592
646.081886	0.279766
646.287888	0.279377
646.493871	0.279423
646.699836	0.279681
646.905783	0.279910
647.111712	0.279811
647.317622	0.280123
647.523514	0.280189
647.729388	0.280688
647.935244	0.280804
648.141082	0.281048
648.346901	0.281431
648.552702	0.281287
648.758485	0.281455
648.964250	0.281679
649.169996	0.282002
649.375724	0.282289
649.581434	0.282180
649.787126	0.282464
649.992800	0.282733
650.198455	0.282551
650.404092	0.282847
650.609711	0.282754
650.815311	0.282857
651.020894	0.283264
651.226458	0.283254
651.432004	0.283480
651.637532	0.283648
651.843041	0.283928
652.048532	0.284185
652.254006	0.284090
652.459460	0.284294
652.664897	0.284580
652.870315	0.284467
653.075716	0.284728
653.281097	0.285228
653.486461	0.285434
653.691807	0.285489
653.897134	0.285623
654.102443	0.286049
654.307734	0.286136
654.513006	0.286303
654.718261	0.286608
654.923497	0.286993
655.128715	0.286853
655.333915	0.287086
655.539096	0.287521
655.744259	0.287648
655.949404	0.287921
656.154531	0.288147
656.359640	0.288630
656.564730	0.288671
656.769802	0.288457
656.974856	0.288614
657.179892	0.288601
657.384909	0.288762
657.589908	0.289021
657.794889	0.288887
657.999852	0.288995
658.204797	0.288794
658.409723	0.288932
658.614631	0.289222
658.819521	0.289187
659.024393	0.289210
659.229246	0.289037
659.434081	0.288982
659.638898	0.289370
659.843697	0.289344
660.048478	0.289382
660.253240	0.289560
660.457984	0.289584
660.662710	0.289905
660.867417	0.290088
661.072107	0.290082
661.276778	0.290439
661.481431	0.290327
661.686066	0.290359
661.890682	0.290599
662.095281	0.290587
662.299861	0.290782
662.504422	0.290814
662.708966	0.291122
662.913491	0.291545
663.117999	0.291528
663.322488	0.291967
663.526958	0.292572
663.731411	0.292649
663.935845	0.292912
664.140261	0.293038
664.344659	0.293425
664.549038	0.293949
664.753400	0.294141
664.957743	0.294615
665.162068	0.294607
665.366375	0.294568
665.570663	0.294998
665.774933	0.295389
665.979185	0.295501
666.183419	0.295750
666.387635	0.295554
666.591832	0.296017
666.796011	0.296401
667.000172	0.296760
667.204315	0.297271
667.408439	0.297412
667.612545	0.297620
667.816634	0.298056
668.020703	0.298375
668.224755	0.298620
668.428788	0.298834
668.632803	0.298785
668.836800	0.299135
669.040779	0.299346
669.244739	0.299481
669.448681	0.299493
669.652605	0.299790
669.856511	0.299721
670.060399	0.300108
670.264268	0.299882
670.468119	0.300153
670.671952	0.300286
670.875767	0.300476
671.079563	0.300677
671.283341	0.301039
671.487101	0.301238
671.690843	0.301544
671.894567	0.301595
672.098272	0.301987
672.301959	0.302254
672.505628	0.302317
672.709278	0.302568
672.912911	0.302980
673.116525	0.303276
673.320121	0.303490
673.523699	0.303852
673.727258	0.304216
673.930799	0.304380
674.134322	0.304470
674.337827	0.304660
674.541314	0.304763
674.744782	0.304807
674.948232	0.304698
675.151664	0.304877
675.355078	0.305229
675.558474	0.305423
675.761851	0.305687
675.965210	0.305954
676.168551	0.306039
676.371873	0.306022
676.575178	0.306066
676.778464	0.306507
676.981732	0.306366
677.184981	0.306254
677.388213	0.306287
677.591426	0.306560
677.794621	0.306623
677.997798	0.307053
678.200956	0.307346
678.404097	0.307599
678.607219	0.307748
678.810323	0.308149
679.013408	0.308201
679.216476	0.308176
679.419525	0.308269
679.622556	0.308381
679.825569	0.308302
680.028563	0.308605
680.231540	0.308976
680.434498	0.308937
680.637438	0.309039
680.840359	0.309336
681.043263	0.309846
681.246148	0.310180
681.449015	0.310432
681.651864	0.311011
681.854694	0.311128
682.057506	0.311233
682.260301	0.311707
682.463076	0.312067
682.665834	0.312266
682.868573	0.312528
683.071295	0.312646
683.273998	0.312997
683.476682	0.313058
683.679349	0.313191
683.881997	0.313604
684.084627	0.313706
684.287239	0.313977
684.489833	0.314337
684.692408	0.314274
684.894965	0.314433
685.097504	0.314686
685.300025	0.315107
685.502527	0.315570
685.705012	0.315502
685.907478	0.315573
686.109925	0.315662
686.312355	0.315595
686.514766	0.315871
686.717159	0.316115
686.919534	0.316109
687.121891	0.316062
687.324230	0.315941
687.526550	0.316186
687.728852	0.316196
687.931136	0.316351
688.133401	0.316486
688.335649	0.316495
688.537878	0.316447
688.740089	0.316887
688.942281	0.316769
689.144456	0.316971
689.346612	0.317198
689.548750	0.317237
689.750870	0.317552
689.952971	0.317827
690.155055	0.318107
690.357120	0.318343
690.559167	0.318111
690.761195	0.318680
690.963206	0.319072
691.165198	0.319028
691.367172	0.319503
691.569128	0.319605
691.771065	0.319925
691.972984	0.320007
692.174885	0.320163
692.376768	0.320543
692.578633	0.320600
692.780479	0.320766
692.982308	0.320938
693.184118	0.321056
693.385909	0.321253
693.587683	0.321168
693.789438	0.321537
693.991175	0.321844
694.192894	0.322032
694.394595	0.322268
694.596277	0.322261
694.797941	0.322851
694.999587	0.323169
695.201215	0.323166
695.402824	0.323366
695.604416	0.323558
695.805989	0.323512
696.007543	0.323555
696.209080	0.323812
696.410598	0.324059
696.612099	0.323961
696.813580	0.323951
697.015044	0.324062
697.216490	0.324381
697.417917	0.324335
697.619326	0.324511
697.820717	0.324595
698.022089	0.324548
698.223444	0.324637
698.424780	0.324846
698.626098	0.325422
698.827397	0.325742
699.028679	0.325973
699.229942	0.326531
699.431187	0.326763
699.632414	0.327106
699.833622	0.327325
700.034813	0.327478
700.235985	0.327558
700.437139	0.327560
700.638274	0.327389
700.839392	0.327357
701.040491	0.327306
701.241572	0.327241
701.442635	0.327161
701.643679	0.327224
701.844706	0.327388
702.045714	0.327337
702.246704	0.327313
702.447675	0.327389
702.648629	0.327446
702.849564	0.327200
703.050481	0.327432
703.251380	0.327391
703.452260	0.327061
703.653122	0.326865
703.853966	0.326921
704.054792	0.326775
704.255600	0.326780
704.456389	0.326632
704.657160	0.326735
704.857913	0.326466
705.058648	0.326598
705.259365	0.326798
705.460063	0.326819
705.660743	0.326869
705.861405	0.327129
706.062048	0.327072
706.262674	0.326887
706.463281	0.326866
706.663870	0.326983
706.864441	0.326780
707.064993	0.326799
707.265527	0.326676
707.466043	0.326485
707.666541	0.326368
707.867021	0.326495
708.067482	0.326859
708.267925	0.326870
708.468350	0.327060
708.668757	0.327128
708.869145	0.327240
709.069516	0.327221
709.269868	0.327364
709.470201	0.327251
709.670517	0.327168
709.870814	0.327207
710.071093	0.327012
710.271354	0.326930
710.471597	0.327091
710.671821	0.327095
710.872028	0.327259
711.072216	0.327470
711.272385	0.327355
711.472537	0.327403
711.672670	0.327185
711.872785	0.327294
712.072882	0.327654
712.272961	0.327540
712.473021	0.327623
712.673063	0.327708
712.873087	0.327637
713.073093	0.328161
713.273081	0.328292
713.473050	0.328563
713.673001	0.328780
713.872934	0.328320
714.072849	0.328400
714.272745	0.328390
714.472623	0.328269
714.672483	0.328275
714.872325	0.328217
715.072148	0.328407
715.271954	0.328457
715.471741	0.328474
715.671509	0.328657
715.871260	0.328715
716.070992	0.328405
716.270707	0.328382
716.470403	0.328325
716.670080	0.328033
716.869740	0.327990
717.069381	0.327871
717.269004	0.327882
717.468609	0.327803
717.668195	0.327961
717.867764	0.328158
718.067314	0.328144
718.266846	0.328229
718.466360	0.328146
718.665855	0.328022
718.865332	0.328059
719.064791	0.327887
719.264232	0.328093
719.463655	0.327708
719.663059	0.327628
719.862445	0.327657
720.061813	0.327338
720.261163	0.327207
720.460494	0.327067
720.659807	0.326498
720.859102	0.326200
721.058379	0.325769
721.257638	0.325678
721.456878	0.325456
721.656100	0.325209
721.855304	0.325025
722.054490	0.324819
722.253657	0.324814
722.452806	0.324882
722.651937	0.325133
722.851050	0.324974
723.050145	0.324551
723.249221	0.324350
723.448279	0.324197
723.647319	0.324023
723.846340	0.323852
724.045344	0.323327
724.244329	0.323137
724.443296	0.322794
724.642245	0.322608
724.841175	0.322687
725.040088	0.322653
725.238982	0.322507
725.437857	0.322322
725.636715	0.322236
725.835554	0.322361
726.034376	0.322552
726.233179	0.322317
726.431963	0.322415
726.630730	0.322498
726.829478	0.322560
727.028208	0.322684
727.226920	0.322323
727.425614	0.322222
727.624289	0.321964
727.822946	0.321556
728.021585	0.321651
728.220206	0.321243
728.418808	0.320982
728.617392	0.320509
728.815958	0.320523
729.014506	0.320741
729.213036	0.320651
729.411547	0.320712
729.610040	0.320636
729.808515	0.320666
730.006972	0.320674
730.205410	0.320641
730.403831	0.320729
730.602233	0.320236
730.800616	0.320559
730.998982	0.320479
731.197329	0.320215
731.395658	0.320191
731.593969	0.319675
731.792262	0.319535
731.990536	0.319395
732.188793	0.319356
732.387031	0.319313
732.585250	0.318733
732.783452	0.318691
732.981635	0.318645
733.179800	0.318751
733.377947	0.318618
733.576076	0.318411
733.774186	0.318143
733.972278	0.317809
734.170352	0.317808
734.368408	0.317940
734.566446	0.317932
734.764465	0.317951
734.962466	0.317624
735.160449	0.317742
735.358413	0.317755
735.556360	0.317894
735.754288	0.318100
735.952198	0.317952
736.150090	0.317887
736.347963	0.317834
736.545818	0.317880
736.743655	0.317957
736.941474	0.317683
737.139275	0.317742
737.337057	0.317753
737.534821	0.317586
737.732567	0.317526
737.930295	0.317458
738.128005	0.317189
738.325696	0.316760
738.523369	0.316354
738.721024	0.316379
738.918660	0.316396
739.116279	0.316019
739.313879	0.315660
739.511461	0.315452
739.709024	0.315170
739.906570	0.315144
740.104097	0.315249
740.301606	0.315174
740.499097	0.315026
740.696569	0.314568
740.894024	0.314573
741.091460	0.314481
741.288878	0.314404
741.486277	0.314000
741.683659	0.313618
741.881022	0.313278
742.078367	0.313177
742.275694	0.313158
742.473002	0.313094
742.670293	0.312482
742.867565	0.312157
743.064819	0.311868
743.262054	0.311973
743.459272	0.311996
743.656471	0.311761
743.853652	0.311690
744.050815	0.311514
744.247959	0.311243
744.445085	0.311426
744.642194	0.311503
744.839283	0.311320
745.036355	0.311241
745.233408	0.310978
745.430444	0.310971
745.627461	0.310624
745.824459	0.310062
746.021440	0.309561
746.218402	0.309171
746.415346	0.308773
746.612272	0.308546
746.809180	0.308015
747.006069	0.307693
747.202940	0.307268
747.399793	0.306960
747.596628	0.306939
747.793444	0.307307
747.990243	0.307369
748.187023	0.307264
748.383784	0.306989
748.580528	0.306928
748.777253	0.306953
748.973960	0.307219
749.170649	0.307055
749.367320	0.306817
749.563973	0.306611
749.760607	0.306445
749.957223	0.306339
750.153821	0.306387
750.350400	0.306443
750.546962	0.306599
750.743505	0.306246
750.940030	0.306389
751.136536	0.306279
751.333025	0.306058
751.529495	0.305727
751.725947	0.305632
751.922381	0.305547
752.118796	0.305741
752.315194	0.305165
752.511573	0.304841
752.707934	0.304556
752.904276	0.304437
753.100601	0.304145
753.296907	0.304090
753.493195	0.303861
753.689465	0.303738
753.885716	0.303032
754.081949	0.302896
754.278164	0.302793
754.474361	0.302776
754.670540	0.302628
754.866700	0.302390
755.062843	0.302250
755.258967	0.302003
755.455072	0.301541
755.651160	0.301355
755.847229	0.301233
756.043280	0.301030
756.239313	0.300798
756.435328	0.300604
756.631324	0.300683
756.827302	0.300522
757.023262	0.300547
757.219204	0.300623
757.415127	0.300535
757.611033	0.300386
757.806920	0.300693
758.002788	0.300890
758.198639	0.300893
758.394471	0.300783
758.590286	0.300622
758.786081	0.300522
758.981859	0.300358
759.177619	0.300309
759.373360	0.300023
759.569083	0.299430
759.764788	0.298957
759.960474	0.298836
760.156143	0.298381
760.351793	0.298408
760.547425	0.298276
760.743038	0.298280
760.938634	0.298118
761.134211	0.298227
761.329770	0.298105
761.525311	0.297816
761.720833	0.297508
761.916338	0.297557
762.111824	0.297401
762.307292	0.297201
762.502741	0.296818
762.698173	0.296589
762.893586	0.296438
763.088981	0.296358
763.284358	0.296110
763.479716	0.296135
763.675057	0.295817
763.870379	0.295506
764.065683	0.295329
764.260968	0.295334
764.456236	0.295283
764.651485	0.295052
764.846716	0.295058
765.041929	0.294817
765.237123	0.294751
765.432299	0.294802
765.627457	0.294665
765.822597	0.294494
766.017719	0.294303
766.212822	0.294335
766.407907	0.294177
766.602974	0.293768
766.798023	0.293903
766.993054	0.293493
767.188066	0.293096
767.383060	0.293012
767.578036	0.292832
767.772993	0.292768
767.967933	0.292234
768.162854	0.291966
768.357757	0.291905
768.552642	0.291634
768.747508	0.291515
768.942356	0.291713
769.137186	0.291465
769.331998	0.291266
769.526792	0.290963
769.721567	0.290871
769.916324	0.291257
770.111063	0.291465
770.305784	0.291476
770.500486	0.291376
770.695171	0.291166
770.889837	0.291181
771.084484	0.291299
771.279114	0.291246
771.473725	0.291315
771.668318	0.291097
771.862893	0.290748
772.057450	0.290611
772.251988	0.290588
772.446509	0.290777
772.641011	0.290912
772.835494	0.290708
773.029960	0.290914
773.224407	0.290900
773.418836	0.290679
773.613247	0.290608
773.807640	0.290479
774.002014	0.290483
774.196370	0.290173
774.390708	0.290164
774.585028	0.290365
774.779330	0.290018
774.973613	0.289975
775.167878	0.289725
775.362125	0.289856
775.556354	0.289965
775.750564	0.289926
775.944756	0.290035
776.138930	0.289698
776.333086	0.289611
776.527223	0.289800
776.721343	0.289906
776.915444	0.290101
777.109526	0.289999
777.303591	0.290140
777.497637	0.290155
777.691666	0.290130
777.885676	0.290327
778.079667	0.290313
778.273641	0.290312
778.467596	0.290133
778.661533	0.289926
778.855452	0.289882
779.049352	0.289584
779.243235	0.289534
779.437099	0.289653
779.630945	0.289697
779.824773	0.289473
780.018582	0.289418
780.212373	0.289615
780.406146	0.290077
780.599901	0.290180
780.793638	0.290559
780.987356	0.290758
781.181056	0.290791
781.374738	0.291000
781.568402	0.291472
781.762047	0.291726
781.955674	0.291669
782.149283	0.291228
782.342874	0.291263
782.536447	0.291093
782.730001	0.290967
782.923537	0.291023
783.117055	0.290785
783.310555	0.290640
783.504036	0.290746
783.697499	0.290883
783.890944	0.291326
784.084371	0.291613
784.277780	0.291835
784.471170	0.292467
784.664542	0.292387
784.857896	0.292820
785.051231	0.293037
785.244549	0.292980
785.437848	0.293060
785.631129	0.293035
785.824392	0.292811
786.017636	0.292935
786.210863	0.292487
786.404071	0.292438
786.597260	0.292096
786.790432	0.291962
786.983585	0.291825
787.176721	0.291992
787.369838	0.292001
787.562936	0.291989
787.756017	0.291840
787.949079	0.291803
788.142123	0.292070
788.335149	0.292254
788.528156	0.292538
788.721146	0.292867
788.914117	0.293032
789.107070	0.293488
789.300005	0.294032
789.492921	0.294367
789.685819	0.294663
789.878699	0.294975
790.071561	0.295256
790.264405	0.295390
790.457230	0.295589
790.650037	0.295642
790.842826	0.295683
791.035597	0.295520
791.228349	0.295823
791.421084	0.295906
791.613800	0.296080
791.806497	0.296277
791.999177	0.296364
792.191838	0.296614
792.384481	0.296741
792.577106	0.296624
792.769713	0.296789
792.962301	0.296846
793.154871	0.297067
793.347423	0.297068
793.539957	0.297300
793.732473	0.297538
793.924970	0.297535
794.117449	0.297508
794.309910	0.297697
794.502353	0.297838
794.694777	0.297757
794.887183	0.297944
795.079571	0.298068
795.271941	0.298011
795.464293	0.298164
795.656626	0.298228
795.848941	0.298217
796.041238	0.298461
796.233516	0.298881
796.425777	0.299218
796.618019	0.299654
796.810243	0.299870
797.002449	0.300013
797.194636	0.299986
797.386805	0.300234
797.578956	0.301060
797.771089	0.301156
797.963204	0.300829
798.155300	0.300952
798.347378	0.301166
798.539438	0.301448
798.731480	0.301862
798.923503	0.302420
799.115509	0.302569
799.307496	0.302520
799.499465	0.303050
799.691415	0.303484
799.883348	0.303703
800.075262	0.303580
800.267158	0.303663
800.459035	0.303749
800.650895	0.303688
800.842736	0.303918
801.034559	0.303863
801.226364	0.303546
801.418150	0.303789
801.609919	0.304139
801.801669	0.304445
801.993401	0.304522
802.185114	0.304934
802.376810	0.305201
802.568487	0.305302
802.760146	0.305751
802.951787	0.306417
803.143409	0.306681
803.335014	0.306688
803.526600	0.307035
803.718168	0.307297
803.909717	0.307261
804.101249	0.307540
804.292762	0.308140
804.484257	0.308292
804.675734	0.308463
804.867192	0.308793
805.058632	0.309427
805.250054	0.309696
805.441458	0.310240
805.632844	0.310546
805.824211	0.310793
806.015561	0.310965
806.206891	0.311385
806.398204	0.311651
806.589499	0.311696
806.780775	0.311645
806.972033	0.311914
807.163273	0.311684
807.354495	0.311851
807.545698	0.311974
807.736883	0.312018
807.928050	0.312272
808.119199	0.312572
808.310329	0.313154
808.501441	0.313325
808.692535	0.313819
808.883611	0.314186
809.074669	0.314400
809.265708	0.314988
809.456729	0.315313
809.647732	0.315514
809.838717	0.315756
810.029683	0.315912
810.220632	0.316439
810.411562	0.316290
810.602474	0.316660
810.793367	0.317156
810.984242	0.317049
811.175100	0.317278
811.365938	0.317650
811.556759	0.317823
811.747562	0.317945
811.938346	0.317874
812.129112	0.318319
812.319860	0.318722
812.510589	0.318965
812.701300	0.319416
812.891994	0.319867
813.082668	0.319995
813.273325	0.320270
813.463964	0.320629
813.654584	0.320964
813.845186	0.320879
814.035769	0.321132
814.226335	0.321235
814.416882	0.321374
814.607411	0.321527
814.797922	0.321785
814.988415	0.322139
815.178889	0.322535
815.369345	0.323181
815.559783	0.323464
815.750203	0.323755
815.940605	0.324152
816.130988	0.324694
816.321353	0.325059
816.511700	0.325353
816.702028	0.325452
816.892339	0.325914
817.082631	0.326272
817.272905	0.327002
817.463161	0.327304
817.653398	0.327826
817.843617	0.328044
818.033819	0.328466
818.224001	0.329003
818.414166	0.329280
818.604312	0.329751
818.794440	0.329995
818.984550	0.329975
819.174642	0.330356
819.364716	0.330605
819.554771	0.330992
819.744808	0.331480
819.934827	0.331865
820.124827	0.332439
820.314810	0.332173
820.504774	0.332563
820.694720	0.333136
820.884647	0.333574
821.074557	0.333510
821.264448	0.334292
821.454321	0.334487
821.644176	0.334481
821.834012	0.334914
822.023831	0.335624
822.213631	0.335766
822.403413	0.336231
822.593176	0.336554
822.782922	0.337612
822.972649	0.337563
823.162358	0.338064
823.352049	0.338787
823.541721	0.339323
823.731376	0.339798
823.921012	0.340427
824.110629	0.340729
824.300229	0.341321
824.489811	0.341293
824.679374	0.342168
824.868919	0.342302
825.058445	0.342784
825.247954	0.343206
825.437444	0.343868
825.626916	0.344186
825.816370	0.344590
826.005806	0.345059
826.195223	0.345485
826.384622	0.345476
826.574003	0.345939
826.763366	0.346334
826.952711	0.346491
827.142037	0.346428
827.331345	0.346816
827.520635	0.347224
827.709906	0.347444
827.899160	0.347663
828.088395	0.347882
828.277612	0.348303
828.466810	0.348520
828.655991	0.348899
828.845153	0.349366
829.034297	0.349591
829.223423	0.349869
829.412531	0.349855
829.601620	0.350187
829.790691	0.350508
829.979744	0.350900
830.168779	0.351319
830.357795	0.351735
830.546793	0.352172
830.735773	0.352695
830.924735	0.353192
831.113679	0.353767
831.302604	0.354475
831.491511	0.355408
831.680400	0.355647
831.869271	0.355789
832.058123	0.356021
832.246957	0.356502
832.435773	0.357035
832.624571	0.357187
832.813351	0.357484
833.002112	0.357664
833.190855	0.357782
833.379580	0.358254
833.568287	0.358741
833.756975	0.359522
833.945645	0.360130
834.134297	0.360387
834.322931	0.360987
834.511547	0.361895
834.700144	0.362618
834.888723	0.362836
835.077284	0.363505
835.265826	0.364225
835.454351	0.364832
835.642857	0.364733
835.831345	0.365302
836.019815	0.365926
836.208266	0.366089
836.396699	0.366588
836.585114	0.367026
836.773511	0.367284
836.961890	0.368061
837.150250	0.368194
837.338592	0.368891
837.526916	0.369340
837.715222	0.369886
837.903510	0.370300
838.091779	0.371048
838.280030	0.371723
838.468263	0.372186
838.656477	0.372533
838.844674	0.373193
839.032852	0.373874
839.221012	0.374382
839.409153	0.374989
839.597277	0.375887
839.785382	0.376020
839.973469	0.376661
840.161538	0.377549
840.349589	0.377752
840.537621	0.377999
840.725635	0.378295
840.913631	0.378788
841.101609	0.379098
841.289568	0.379275
841.477509	0.380171
841.665432	0.380846
841.853337	0.381097
842.041224	0.381695
842.229092	0.382315
842.416942	0.382784
842.604774	0.383222
842.792588	0.383641
842.980383	0.384357
843.168160	0.384401
843.355919	0.384288
843.543660	0.384800
843.731382	0.385431
843.919087	0.386090
844.106773	0.386184
844.294441	0.386491
844.482090	0.387038
844.669722	0.387131
844.857335	0.387871
845.044930	0.388494
845.232507	0.389116
845.420065	0.389347
845.607605	0.389333
845.795127	0.389985
845.982631	0.390233
846.170117	0.390601
846.357584	0.391396
846.545033	0.391839
846.732464	0.392150
846.919877	0.392295
847.107272	0.392634
847.294648	0.393419
847.482006	0.394001
847.669346	0.394595
847.856667	0.395371
848.043971	0.395450
848.231256	0.395993
848.418523	0.396831
848.605771	0.397158
848.793002	0.397843
848.980214	0.398257
849.167408	0.399060
849.354584	0.399718
849.541742	0.399991
849.728881	0.400811
849.916002	0.401010
850.103105	0.401468
850.290190	0.401862
850.477256	0.402015
850.664304	0.402335
850.851334	0.402507
851.038346	0.403037
851.225340	0.403190
851.412315	0.403326
851.599272	0.404028
851.786211	0.404196
851.973132	0.404726
852.160034	0.405184
852.346918	0.405800
852.533784	0.406392
852.720632	0.406724
852.907462	0.407302
853.094273	0.407740
853.281066	0.407900
853.467841	0.408138
853.654598	0.408801
853.841336	0.409146
854.028056	0.409340
854.214758	0.409658
854.401442	0.409760
854.588107	0.410619
854.774755	0.411284
854.961384	0.411659
855.147995	0.412502
855.334587	0.412713
855.521162	0.413452
855.707718	0.413956
855.894256	0.414144
856.080775	0.415086
856.267277	0.414774
856.453760	0.414843
856.640225	0.415166
856.826672	0.415292
857.013101	0.415725
857.199511	0.415762
857.385903	0.416189
857.572277	0.416998
857.758633	0.417350
857.944970	0.418244
858.131290	0.418409
858.317591	0.418696
858.503873	0.419326
858.690138	0.419911
858.876384	0.420555
859.062612	0.420899
859.248822	0.421237
859.435014	0.421770
859.621188	0.422039
859.807343	0.423043
859.993480	0.423440
860.179599	0.423799
860.365699	0.423924
860.551781	0.424534
860.737846	0.425473
860.923891	0.426287
861.109919	0.426297
861.295929	0.427427
861.481920	0.427841
861.667893	0.428706
861.853848	0.429284
862.039784	0.430014
862.225702	0.429847
862.411603	0.429996
862.597484	0.430118
862.783348	0.430650
862.969193	0.430037
863.155021	0.430265
863.340830	0.430430
863.526620	0.430595
863.712393	0.430964
863.898147	0.431886
864.083883	0.432684
864.269601	0.433015
864.455301	0.433489
864.640982	0.434222
864.826645	0.434955
865.012290	0.435383
865.197917	0.435656
865.383526	0.435712
865.569116	0.436203
865.754688	0.435884
865.940242	0.436327
866.125777	0.436526
866.311295	0.436306
866.496794	0.436563
866.682275	0.436796
866.867737	0.437279
867.053182	0.438097
867.238608	0.437816
867.424016	0.437914
867.609406	0.438168
867.794778	0.438849
867.980131	0.440246
868.165466	0.440075
868.350783	0.440184
868.536082	0.440121
868.721362	0.440158
868.906625	0.440665
869.091869	0.441498
869.277094	0.441900
869.462302	0.441737
869.647491	0.441362
869.832662	0.442009
870.017815	0.442414
870.202950	0.442923
870.388066	0.443458
870.573165	0.444312
870.758245	0.444589
870.943306	0.444720
871.128350	0.445034
871.313375	0.445318
871.498382	0.445645
871.683371	0.446094
871.868342	0.446756
872.053294	0.446937
872.238229	0.446789
872.423144	0.447009
872.608042	0.447085
872.792922	0.447232
872.977783	0.447122
873.162626	0.447431
873.347451	0.447883
873.532258	0.447853
873.717046	0.447967
873.901816	0.448241
874.086568	0.447800
874.271302	0.447824
874.456017	0.447939
874.640715	0.448495
874.825394	0.448657
875.010055	0.449175
875.194697	0.449594
875.379322	0.449963
875.563928	0.450391
875.748516	0.451055
875.933085	0.451561
876.117637	0.452318
876.302170	0.453171
876.486685	0.453194
876.671182	0.452736
876.855661	0.452840
877.040121	0.452630
877.224563	0.452558
877.408987	0.452692
877.593393	0.452574
877.777780	0.452844
877.962150	0.451979
878.146501	0.452235
878.330833	0.452421
878.515148	0.451869
878.699444	0.452566
878.883722	0.452911
879.067982	0.453265
879.252224	0.453553
879.436447	0.453459
879.620653	0.454671
879.804840	0.455181
879.989008	0.454789
880.173159	0.455556
880.357291	0.455328
880.541405	0.455300
880.725501	0.455507
880.909579	0.455878
881.093638	0.456108
881.277680	0.455539
881.461703	0.455244
881.645707	0.456028
881.829694	0.456111
882.013662	0.456551
882.197612	0.456295
882.381544	0.456056
882.565458	0.455967
882.749353	0.455591
882.933230	0.455843
883.117089	0.455857
883.300930	0.456250
883.484753	0.456051
883.668557	0.456142
883.852343	0.456758
884.036111	0.457279
884.219861	0.457484
884.403592	0.457440
884.587305	0.457695
884.771000	0.457931
884.954677	0.457845
885.138335	0.458611
885.321976	0.458361
885.505598	0.458562
885.689201	0.458661
885.872787	0.459440
886.056354	0.460003
886.239904	0.459965
886.423434	0.460112
886.606947	0.460711
886.790442	0.460704
886.973918	0.460868
887.157376	0.460434
887.340816	0.460309
887.524237	0.459245
887.707641	0.459629
887.891026	0.459606
888.074393	0.459287
888.257741	0.458757
888.441072	0.458523
888.624384	0.458242
888.807678	0.458500
888.990954	0.458051
889.174211	0.457879
889.357451	0.457543
889.540672	0.457342
889.723875	0.457629
889.907059	0.457490
890.090226	0.457089
890.273374	0.457497
890.456504	0.457530
890.639616	0.457770
890.822709	0.457906
891.005785	0.457658
891.188842	0.457649
891.371881	0.457566
891.554901	0.457522
891.737904	0.458013
891.920888	0.457414
892.103854	0.457063
892.286802	0.457209
892.469731	0.456837
892.652643	0.456988
892.835536	0.456919
893.018410	0.456995
893.201267	0.456714
893.384106	0.456514
893.566926	0.456614
893.749728	0.456529
893.932511	0.456045
894.115277	0.456411
894.298024	0.456337
894.480753	0.456576
894.663464	0.456069
894.846157	0.456459
895.028831	0.456512
895.211487	0.457080
895.394125	0.456811
895.576745	0.457309
895.759346	0.456986
895.941930	0.456754
896.124495	0.456345
896.307041	0.456247
896.489570	0.455308
896.672080	0.455040
896.854573	0.454588
897.037046	0.454794
897.219502	0.454356
897.401940	0.454825
897.584359	0.454720
897.766760	0.454111
897.949143	0.454259
898.131507	0.454775
898.313854	0.454340
898.496182	0.454068
898.678492	0.453819
898.860783	0.453519
899.043057	0.452582
899.225312	0.452072
899.407549	0.452361
899.589768	0.452158
899.771968	0.451573
899.954151	0.451173
900.136315	0.450788
900.318461	0.450191
900.500588	0.449704
900.682698	0.449617
900.864789	0.449927
901.046862	0.449380
901.228917	0.448562
901.410953	0.448627
901.592971	0.448852
901.774972	0.448135
901.956953	0.447986
902.138917	0.447819
902.320862	0.447639
902.502790	0.446753
902.684699	0.446010
902.866589	0.445898
903.048462	0.445285
903.230316	0.444306
903.412152	0.444453
903.593970	0.444416
903.775770	0.444135
903.957551	0.444217
904.139314	0.443959
904.321059	0.444684
904.502786	0.444160
904.684494	0.443185
904.866185	0.442958
905.047857	0.442851
905.229510	0.442591
905.411146	0.442145
905.592763	0.441333
905.774363	0.441057
905.955943	0.440180
906.137506	0.439897
906.319051	0.440024
906.500577	0.439543
906.682085	0.438433
906.863575	0.437305
907.045046	0.436232
907.226500	0.435826
907.407935	0.435529
907.589352	0.435033
907.770750	0.434444
907.952131	0.434098
908.133493	0.433475
908.314837	0.433449
908.496163	0.432909
908.677470	0.433347
908.858760	0.433390
909.040031	0.433029
909.221284	0.432675
909.402518	0.432340
909.583735	0.431505
909.764933	0.431722
909.946113	0.431091
910.127275	0.430812
910.308418	0.430340
910.489544	0.429853
910.670651	0.429040
910.851740	0.428540
911.032810	0.428191
911.213863	0.427795
911.394897	0.427227
911.575913	0.426570
911.756911	0.426418
911.937890	0.425702
912.118851	0.424617
912.299794	0.423924
912.480719	0.423599
912.661626	0.422982
912.842514	0.422402
913.023384	0.421785
913.204236	0.421093
913.385070	0.420143
913.565886	0.419065
913.746683	0.418383
913.927462	0.417638
914.108223	0.416528
914.288965	0.415537
914.469690	0.415043
914.650396	0.414359
914.831084	0.414562
915.011754	0.413998
915.192405	0.414131
915.373038	0.412948
915.553653	0.412527
915.734250	0.411130
915.914829	0.410840
916.095389	0.409704
916.275931	0.408589
916.456455	0.406779
916.636961	0.405391
916.817448	0.404315
916.997917	0.403681
917.178368	0.403439
917.358801	0.402937
917.539216	0.401870
917.719612	0.401357
917.899990	0.401220
918.080350	0.400839
918.260692	0.400591
918.441015	0.399759
918.621320	0.399589
918.801607	0.398616
918.981876	0.398384
919.162127	0.397363
919.342359	0.396881
919.522573	0.395663
919.702769	0.395187
919.882947	0.395006
920.063106	0.394710
920.243247	0.393819
920.423370	0.392663
920.603475	0.392032
920.783562	0.391183
920.963630	0.390888
921.143680	0.389657
921.323712	0.388928
921.503725	0.387725
921.683721	0.386359
921.863698	0.385183
922.043657	0.384327
922.223598	0.383930
922.403520	0.383723
922.583424	0.382907
922.763311	0.382257
922.943178	0.381274
923.123028	0.380560
923.302859	0.379437
923.482673	0.379840
923.662467	0.379104
923.842244	0.377399
924.022003	0.376998
924.201743	0.375430
924.381465	0.374854
924.561169	0.374376
924.740854	0.373840
924.920522	0.373755
925.100171	0.372392
925.279802	0.371284
925.459414	0.371659
925.639009	0.370794
925.818585	0.369992
925.998143	0.368771
926.177683	0.367945
926.357205	0.366894
926.536708	0.365817
926.716193	0.364830
926.895660	0.364779
927.075109	0.363001
927.254539	0.361068
927.433951	0.360297
927.613345	0.359643
927.792721	0.358049
927.972079	0.356565
928.151418	0.355801
928.330739	0.354468
928.510042	0.352917
928.689327	0.351793
928.868593	0.350704
929.047841	0.349119
929.227071	0.349107
929.406283	0.348411
929.585476	0.347350
929.764652	0.345844
929.943809	0.345628
930.122948	0.344263
930.302068	0.343505
930.481171	0.343234
930.660255	0.343160
930.839321	0.341002
931.018369	0.340237
931.197398	0.339650
931.376409	0.338561
931.555402	0.336473
931.734377	0.335512
931.913334	0.334156
932.092272	0.333622
932.271192	0.331401
932.450094	0.330818
932.628978	0.328964
932.807844	0.327591
932.986691	0.327241
933.165520	0.327362
933.344331	0.326963
933.523123	0.326441
933.701898	0.324636
933.880654	0.324642
934.059392	0.323344
934.238111	0.322395
934.416813	0.321665
934.595496	0.319716
934.774161	0.318258
934.952808	0.317364
935.131437	0.315719
935.310047	0.314954
935.488639	0.313409
935.667213	0.312527
935.845769	0.311497
936.024306	0.311268
936.202825	0.310949
936.381326	0.308856
936.559809	0.308175
936.738274	0.308408
936.916720	0.307416
937.095148	0.306550
937.273558	0.305466
937.451950	0.304722
937.630323	0.303125
937.808678	0.302643
937.987015	0.302821
938.165334	0.300918
938.343635	0.297868
938.521917	0.295148
938.700181	0.294125
938.878427	0.293697
939.056655	0.292749
939.234864	0.290321
939.413055	0.288876
939.591228	0.287419
939.769383	0.286148
939.947519	0.285702
940.125638	0.286186
940.303738	0.285936
940.481820	0.283010
940.659883	0.279908
940.837929	0.279878
941.015956	0.278397
941.193965	0.276129
941.371955	0.274995
941.549928	0.274079
941.727882	0.272808
941.905818	0.269700
942.083736	0.269084
942.261636	0.269682
942.439517	0.268361
942.617380	0.266622
942.795225	0.265254
942.973052	0.263375
943.150860	0.261993
943.328651	0.261301
943.506423	0.261289
943.684176	0.262041
943.861912	0.260395
944.039629	0.259679
944.217328	0.259247
944.395009	0.258869
944.572672	0.258063
944.750317	0.257185
944.927943	0.255792
945.105551	0.254339
945.283141	0.251636
945.460712	0.251531
945.638265	0.248531
945.815801	0.246765
945.993317	0.245595
946.170816	0.243716
946.348297	0.243457
946.525759	0.242792
946.703203	0.241678
946.880629	0.240090
947.058036	0.236785
947.235425	0.236516
947.412797	0.233553
947.590149	0.232884
947.767484	0.232646
947.944800	0.229758
948.122099	0.227338
948.299379	0.225733
948.476640	0.224854
948.653884	0.223890
948.831109	0.222171
949.008316	0.221530
949.185505	0.220468
949.362676	0.218518
949.539828	0.217991
949.716962	0.218274
949.894078	0.217747
950.071176	0.216432
950.248256	0.217258
950.425317	0.216898
950.602360	0.216359
950.779385	0.215512
950.956391	0.215611
951.133380	0.213871
951.310350	0.212389
951.487302	0.210196
951.664235	0.211728
951.841151	0.209682
952.018048	0.208446
952.194927	0.206554
952.371788	0.202976
952.548631	0.201920
952.725455	0.202416
952.902261	0.202016
953.079049	0.202865
953.255819	0.199825
953.432570	0.199385
953.609303	0.197173
953.786018	0.198352
953.962715	0.198511
954.139394	0.196152
954.316054	0.193449
954.492696	0.190987
954.669320	0.188359
954.845926	0.187511
955.022513	0.186303
955.199083	0.187254
955.375634	0.185882
955.552166	0.185606
955.728681	0.186159
955.905177	0.188900
956.081655	0.187902
956.258115	0.188899
956.434557	0.187901
956.610980	0.184562
956.787385	0.183749
956.963772	0.182172
957.140141	0.179537
957.316492	0.178919
957.492824	0.175669
957.669138	0.175255
957.845434	0.176080
958.021712	0.176931
958.197971	0.180222
958.374212	0.179298
958.550435	0.181265
958.726640	0.184078
958.902826	0.181887
959.078995	0.179757
959.255145	0.179271
959.431277	0.176916
959.607390	0.174925
959.783486	0.174059
959.959563	0.171515
960.135622	0.170220
960.311662	0.167888
960.487685	0.168585
960.663689	0.168557
960.839675	0.166621
961.015643	0.163210
961.191593	0.164006
961.367524	0.162161
961.543437	0.163946
961.719332	0.164369
961.895209	0.163911
962.071067	0.164964
962.246907	0.163542
962.422730	0.164839
962.598533	0.166038
962.774319	0.164235
962.950086	0.165505
963.125835	0.166036
963.301566	0.164193
963.477279	0.163379
963.652973	0.160909
963.828650	0.161892
964.004308	0.162762
964.179947	0.163792
964.355569	0.159817
964.531172	0.159170
964.706757	0.158777
964.882324	0.155760
965.057873	0.157521
965.233403	0.158544
965.408916	0.159646
965.584410	0.156929
965.759885	0.155603
965.935343	0.157391
966.110782	0.159774
966.286203	0.158390
966.461606	0.158990
966.636991	0.154800
966.812357	0.153394
966.987705	0.152892
967.163035	0.151418
967.338347	0.152670
967.513641	0.151520
967.688916	0.147774
967.864173	0.148701
968.039412	0.151158
968.214632	0.155152
968.389835	0.156261
968.565019	0.155710
968.740185	0.156741
968.915333	0.154877
969.090462	0.160037
969.265573	0.159531
969.440667	0.157917
969.615741	0.155625
969.790798	0.152342
969.965836	0.152480
970.140856	0.151981
970.315858	0.153767
970.490842	0.154391
970.665808	0.154391
970.840755	0.158886
971.015684	0.159956
971.190595	0.159613
971.365487	0.161431
971.540362	0.160529
971.715218	0.159841
971.890056	0.160400
972.064875	0.161675
972.239677	0.157613
972.414460	0.156708
972.589225	0.153475
972.763972	0.156314
972.938700	0.159015
973.113411	0.159459
973.288103	0.159654
973.462777	0.159676
973.637432	0.158293
973.812070	0.160222
973.986689	0.156906
974.161290	0.158875
974.335873	0.159539
974.510437	0.157757
974.684984	0.160339
974.859512	0.160583
975.034022	0.158803
975.208513	0.158638
975.382987	0.157062
975.557442	0.158142
975.731879	0.158519
975.906298	0.156687
976.080698	0.156865
976.255080	0.151226
976.429445	0.151894
976.603790	0.153440
976.778118	0.152818
976.952427	0.151758
977.126719	0.150476
977.300992	0.150569
977.475246	0.153940
977.649483	0.153348
977.823701	0.156722
977.997901	0.156024
978.172083	0.153673
978.346247	0.155654
978.520392	0.157761
978.694519	0.157892
978.868628	0.158495
979.042719	0.156940
979.216791	0.158391
979.390845	0.157897
979.564882	0.157951
979.738899	0.159469
979.912899	0.156846
980.086880	0.156425
980.260843	0.158021
980.434788	0.156066
980.608715	0.157139
980.782623	0.155115
980.956514	0.154730
981.130386	0.156815
981.304240	0.156246
981.478075	0.156712
981.651892	0.157327
981.825692	0.155851
981.999472	0.158724
982.173235	0.157095
982.346980	0.156833
982.520706	0.156352
982.694414	0.153159
982.868104	0.155524
983.041775	0.156461
983.215428	0.153837
983.389064	0.155022
983.562680	0.154624
983.736279	0.153992
983.909860	0.152473
984.083422	0.155035
984.256966	0.157184
984.430491	0.152121
984.603999	0.152744
984.777488	0.153853
984.950959	0.152457
985.124412	0.154383
985.297847	0.153242
985.471263	0.153640
985.644661	0.152076
985.818041	0.151015
985.991403	0.153826
986.164747	0.153600
986.338072	0.154043
986.511379	0.155347
986.684668	0.151805
986.857938	0.151043
987.031191	0.152313
987.204425	0.150238
987.377641	0.149863
987.550839	0.149817
987.724018	0.148766
987.897179	0.149811
988.070322	0.149750
988.243447	0.150820
988.416554	0.151775
988.589642	0.150935
988.762712	0.154769
988.935764	0.156327
989.108798	0.152713
989.281813	0.152111
989.454811	0.151454
989.627790	0.153194
989.800751	0.154066
989.973693	0.152661
990.146617	0.152830
990.319524	0.149945
990.492412	0.149598
990.665281	0.153272
990.838133	0.154115
991.010966	0.153553
991.183781	0.150577
991.356578	0.148982
991.529356	0.150554
991.702117	0.152566
991.874859	0.153387
992.047583	0.152053
992.220288	0.151899
992.392976	0.150784
992.565645	0.149880
992.738296	0.150240
992.910929	0.150521
993.083543	0.151611
993.256139	0.151507
993.428718	0.152497
993.601277	0.153441
993.773819	0.153074
993.946342	0.154689
994.118848	0.156710
994.291335	0.156137
994.463803	0.155486
994.636254	0.154803
994.808686	0.153973
994.981100	0.150908
995.153496	0.150792
995.325874	0.151574
995.498233	0.152750
995.670574	0.152103
995.842897	0.151381
996.015202	0.152548
996.187488	0.150351
996.359757	0.150859
996.532007	0.153215
996.704239	0.153576
996.876452	0.154271
997.048648	0.153974
997.220825	0.152582
997.392984	0.154113
997.565124	0.152414
997.737247	0.155441
997.909351	0.156287
998.081437	0.158224
998.253505	0.158327
998.425554	0.158014
998.597586	0.158501
998.769599	0.160021
998.941594	0.159588
999.113571	0.160558
999.285529	0.157898
999.457469	0.156575
999.629391	0.155754
999.801295	0.155282
999.973181	0.153496
1000.145048	0.152415
1000.316897	0.152151
1000.488728	0.152802
1000.660541	0.155377
1000.832335	0.155794
1001.004111	0.156076
1001.175869	0.154503
1001.347609	0.156176
1001.519331	0.157532
1001.691034	0.156929
1001.862719	0.156111
1002.034386	0.156926
1002.206035	0.155576
1002.377665	0.156636
1002.549277	0.156615
1002.720871	0.157659
1002.892447	0.155216
1003.064004	0.157487
1003.235544	0.157183
1003.407065	0.158693
1003.578568	0.156771
1003.750052	0.154038
1003.921519	0.153903
1004.092967	0.153405
1004.264397	0.152674
1004.435809	0.152092
1004.607202	0.150105
1004.778577	0.150720
1004.949934	0.150531
1005.121273	0.151135
1005.292594	0.152337
1005.463896	0.153636
1005.635180	0.153699
1005.806446	0.154700
1005.977694	0.155100
1006.148923	0.154509
1006.320135	0.153945
1006.491328	0.153754
1006.662503	0.154195
1006.833659	0.152796
1007.004798	0.151382
1007.175918	0.150903
1007.347020	0.147309
1007.518103	0.147841
1007.689169	0.147107
1007.860216	0.149055
1008.031245	0.147451
1008.202256	0.145691
1008.373248	0.147099
1008.544223	0.146969
1008.715179	0.146279
1008.886117	0.147555
1009.057036	0.148573
1009.227938	0.147998
1009.398821	0.147787
1009.569686	0.148087
1009.740533	0.150159
1009.911361	0.151434
1010.082172	0.152686
1010.252964	0.151380
1010.423738	0.154735
1010.594493	0.154160
1010.765231	0.154847
1010.935950	0.153976
1011.106651	0.155455
1011.277334	0.154370
1011.447998	0.156143
1011.618645	0.157000
1011.789273	0.159341
1011.959882	0.158325
1012.130474	0.157885
1012.301048	0.158814
1012.471603	0.159335
1012.642140	0.159182
1012.812658	0.157309
1012.983159	0.154391
1013.153641	0.153169
1013.324105	0.152208
1013.494551	0.151943
1013.664979	0.150467
1013.835388	0.151412
1014.005779	0.148776
1014.176152	0.150215
1014.346507	0.153010
1014.516843	0.153420
1014.687162	0.151855
1014.857462	0.154237
1015.027744	0.152672
1015.198007	0.154088
1015.368252	0.151736
1015.538480	0.153807
1015.708689	0.151573
1015.878879	0.151771
1016.049052	0.152213
1016.219206	0.152780
1016.389342	0.150607
1016.559460	0.152094
1016.729559	0.151630
1016.899641	0.151571
1017.069704	0.152255
1017.239749	0.151866
1017.409775	0.148851
1017.579784	0.148509
1017.749774	0.148185
1017.919746	0.149403
1018.089700	0.149216
1018.259635	0.149914
1018.429553	0.149600
1018.599452	0.146496
1018.769333	0.143545
1018.939195	0.146619
1019.109040	0.146728
1019.278866	0.145876
1019.448674	0.144992
1019.618464	0.144866
1019.788235	0.145942
1019.957989	0.145698
1020.127724	0.148895
1020.297441	0.153289
1020.467139	0.152032
1020.636820	0.152041
1020.806482	0.151683
1020.976126	0.152722
1021.145752	0.151424
1021.315359	0.150360
1021.484948	0.151706
1021.654519	0.149664
1021.824072	0.147993
1021.993607	0.148183
1022.163123	0.147597
1022.332621	0.150212
1022.502101	0.148671
1022.671563	0.150370
1022.841007	0.149580
1023.010432	0.148084
1023.179839	0.147779
1023.349228	0.148011
1023.518598	0.148581
1023.687951	0.150253
1023.857285	0.149265
1024.026601	0.148298
1024.195899	0.148211
1024.365178	0.149688
1024.534439	0.150001
1024.703682	0.150961
1024.872907	0.152158
1025.042114	0.149902
1025.211302	0.148215
1025.380472	0.149117
1025.549624	0.149308
1025.718758	0.148358
1025.887873	0.147017
1026.056970	0.146824
1026.226049	0.145869
1026.395110	0.146632
1026.564153	0.147957
1026.733177	0.148130
1026.902183	0.147310
1027.071171	0.149436
1027.240141	0.148903
1027.409092	0.150382
1027.578026	0.151536
1027.746940	0.150817
1027.915837	0.148872
1028.084716	0.148243
1028.253576	0.149146
1028.422418	0.149071
1028.591242	0.146216
1028.760048	0.144004
1028.928835	0.143251
1029.097604	0.141943
1029.266355	0.144133
1029.435088	0.143216
1029.603803	0.143607
1029.772499	0.143759
1029.941177	0.142787
1030.109837	0.144358
1030.278478	0.147125
1030.447102	0.146500
1030.615707	0.146795
1030.784294	0.147583
1030.952863	0.147402
1031.121413	0.147851
1031.289945	0.145554
1031.458460	0.145713
1031.626955	0.145338
1031.795433	0.147121
1031.963892	0.145161
1032.132334	0.146995
1032.300756	0.147597
1032.469161	0.149792
1032.637548	0.149720
1032.805916	0.149555
1032.974266	0.151536
1033.142598	0.151698
1033.310911	0.150972
1033.479207	0.153283
1033.647484	0.152136
1033.815743	0.150747
1033.983983	0.149764
1034.152206	0.150178
1034.320410	0.150668
1034.488596	0.149583
1034.656764	0.150775
1034.824914	0.149668
1034.993045	0.149698
1035.161158	0.149160
1035.329253	0.150227
1035.497330	0.149392
1035.665388	0.147599
1035.833428	0.147381
1036.001450	0.147090
1036.169454	0.146319
1036.337440	0.146238
1036.505407	0.144704
1036.673356	0.144156
1036.841287	0.140289
1037.009200	0.143383
1037.177094	0.143797
1037.344970	0.144116
1037.512828	0.145784
1037.680668	0.147801
1037.848489	0.148865
1038.016293	0.148845
1038.184078	0.150527
1038.351845	0.152288
1038.519593	0.150850
1038.687324	0.151501
1038.855036	0.152031
1039.022730	0.148979
1039.190406	0.149027
1039.358063	0.145903
1039.525702	0.147030
1039.693323	0.147408
1039.860926	0.146472
1040.028511	0.145678
1040.196077	0.145978
1040.363625	0.146283
1040.531155	0.146585
1040.698667	0.144497
1040.866161	0.143598
1041.033636	0.143471
1041.201093	0.144730
1041.368532	0.145524
1041.535952	0.143771
1041.703355	0.143949
1041.870739	0.142555
1042.038105	0.144516
1042.205452	0.142398
1042.372782	0.145508
1042.540093	0.146358
1042.707386	0.143511
1042.874661	0.144859
1043.041918	0.145675
1043.209156	0.145743
1043.376376	0.146956
1043.543578	0.143858
1043.710762	0.145212
1043.877927	0.143887
1044.045074	0.144183
1044.212203	0.145591
1044.379314	0.145520
1044.546407	0.145764
1044.713481	0.145629
1044.880537	0.144304
1045.047575	0.147423
1045.214595	0.148522
1045.381596	0.150890
1045.548579	0.148771
1045.715544	0.150056
1045.882491	0.150615
1046.049420	0.150637
1046.216330	0.149560
1046.383222	0.149903
1046.550096	0.150359
1046.716951	0.148684
1046.883789	0.145345
1047.050608	0.145779
1047.217409	0.144250
1047.384192	0.140124
1047.550956	0.140689
1047.717703	0.141214
1047.884431	0.143324
1048.051140	0.143376
1048.217832	0.145627
1048.384505	0.146291
1048.551161	0.148841
1048.717798	0.152030
1048.884416	0.153764
1049.051017	0.153036
1049.217599	0.152876
1049.384163	0.151429
1049.550709	0.149225
1049.717237	0.148640
1049.883746	0.151372
1050.050237	0.149333
1050.216710	0.146646
1050.383165	0.147946
1050.549601	0.148970
1050.716019	0.148382
1050.882420	0.148239
1051.048801	0.148406
1051.215165	0.148603
1051.381510	0.146636
1051.547837	0.147454
1051.714146	0.147534
1051.880437	0.148847
1052.046709	0.146858
1052.212964	0.146382
1052.379200	0.144391
1052.545417	0.146160
1052.711617	0.146134
1052.877798	0.145296
1053.043961	0.145190
1053.210106	0.143664
1053.376233	0.143053
1053.542341	0.146142
1053.708432	0.144990
1053.874504	0.147309
1054.040557	0.145019
1054.206593	0.145361
1054.372610	0.147753
1054.538609	0.146780
1054.704590	0.146369
1054.870553	0.146573
1055.036497	0.147653
1055.202424	0.150420
1055.368331	0.150033
1055.534221	0.150001
1055.700093	0.150001
1055.865946	0.148235
1056.031781	0.149184
1056.197598	0.148207
1056.363397	0.148415
1056.529177	0.147036
1056.694939	0.145399
1056.860683	0.147449
1057.026409	0.147840
1057.192116	0.147178
1057.357806	0.147690
1057.523477	0.148802
1057.689130	0.151984
1057.854764	0.149483
1058.020381	0.149512
1058.185979	0.150979
1058.351559	0.150769
1058.517120	0.152160
1058.682664	0.151315
1058.848189	0.150808
1059.013696	0.150246
1059.179185	0.149051
1059.344656	0.148934
1059.510108	0.146324
1059.675542	0.145197
1059.840958	0.143497
1060.006356	0.142402
1060.171735	0.143527
1060.337096	0.144174
1060.502439	0.141760
1060.667764	0.141817
1060.833071	0.143147
1060.998359	0.144589
1061.163629	0.144476
1061.328881	0.145399
1061.494115	0.145658
1061.659330	0.147437
1061.824527	0.146121
1061.989706	0.147460
1062.154867	0.146925
1062.320010	0.146054
1062.485134	0.145767
1062.650240	0.146401
1062.815328	0.144958
1062.980398	0.147229
1063.145449	0.146328
1063.310482	0.146773
1063.475497	0.145019
1063.640494	0.145840
1063.805473	0.147917
1063.970433	0.147637
1064.135375	0.148978
1064.300299	0.150059
1064.465204	0.147890
1064.630092	0.146264
1064.794961	0.148015
1064.959812	0.149229
1065.124645	0.150209
1065.289459	0.149225
1065.454256	0.148167
1065.619034	0.147005
1065.783793	0.149311
1065.948535	0.150250
1066.113258	0.148411
1066.277964	0.147665
1066.442651	0.148085
1066.607319	0.145915
1066.771970	0.145050
1066.936602	0.149554
1067.101216	0.149905
1067.265812	0.146906
1067.430389	0.146254
1067.594949	0.146890
1067.759490	0.147920
1067.924013	0.149331
1068.088518	0.151773
1068.253004	0.153267
1068.417472	0.149623
1068.581922	0.151221
1068.746354	0.153733
1068.910768	0.152681
1069.075163	0.155045
1069.239540	0.153901
1069.403899	0.153751
1069.568240	0.151040
1069.732562	0.149309
1069.896866	0.150696
1070.061152	0.149662
1070.225420	0.147021
1070.389670	0.149054
1070.553901	0.150604
1070.718114	0.151235
1070.882309	0.151753
1071.046486	0.153248
1071.210644	0.153344
1071.374784	0.153562
1071.538906	0.153668
1071.703010	0.156295
1071.867096	0.155033
1072.031163	0.154984
1072.195212	0.155216
1072.359243	0.154701
1072.523256	0.154785
1072.687250	0.156774
1072.851226	0.156127
1073.015184	0.157538
1073.179124	0.158387
1073.343045	0.157711
1073.506949	0.154637
1073.670834	0.155701
1073.834701	0.154460
1073.998549	0.155045
1074.162380	0.154775
1074.326192	0.153392
1074.489986	0.151430
1074.653761	0.149217
1074.817519	0.153750
1074.981258	0.156168
1075.144979	0.155291
1075.308682	0.155992
1075.472367	0.153596
1075.636033	0.155153
1075.799681	0.158258
1075.963311	0.157816
1076.126923	0.160699
1076.290516	0.157202
1076.454092	0.155691
1076.617649	0.157480
1076.781187	0.158818
1076.944708	0.161759
1077.108210	0.159042
1077.271695	0.159021
1077.435160	0.160520
1077.598608	0.156760
1077.762038	0.157270
1077.925449	0.157856
1078.088842	0.155666
1078.252217	0.153536
1078.415573	0.151768
1078.578912	0.152751
1078.742232	0.151208
1078.905534	0.148782
1079.068817	0.150651
1079.232083	0.151213
1079.395330	0.150586
1079.558559	0.147421
1079.721770	0.148730
1079.884962	0.151015
1080.048136	0.150288
1080.211293	0.152619
1080.374430	0.155931
1080.537550	0.157221
1080.700651	0.155596
1080.863735	0.156144
1081.026800	0.161011
1081.189846	0.161198
1081.352875	0.160586
1081.515885	0.162527
1081.678877	0.161879
1081.841851	0.163070
1082.004807	0.161671
1082.167744	0.159884
1082.330663	0.163364
1082.493564	0.162257
1082.656447	0.163245
1082.819312	0.163075
1082.982158	0.161597
1083.144986	0.163649
1083.307796	0.164076
1083.470587	0.164039
1083.633361	0.168472
1083.796116	0.166232
1083.958853	0.164000
1084.121571	0.164208
1084.284272	0.162837
1084.446954	0.159219
1084.609618	0.155968
1084.772264	0.150355
1084.934892	0.148522
1085.097501	0.146015
1085.260092	0.145783
1085.422665	0.149379
1085.585220	0.146471
1085.747756	0.145531
1085.910274	0.153295
1086.072774	0.155528
1086.235256	0.160265
1086.397720	0.162658
1086.560165	0.163284
1086.722592	0.162483
1086.885001	0.163018
1087.047392	0.167640
1087.209764	0.170241
1087.372119	0.166846
1087.534455	0.165356
1087.696772	0.166604
1087.859072	0.165483
1088.021353	0.166178
1088.183616	0.164624
1088.345861	0.163167
1088.508088	0.161529
1088.670296	0.161036
1088.832486	0.164241
1088.994658	0.164614
1089.156812	0.161645
1089.318948	0.162715
1089.481065	0.163465
1089.643164	0.168580
1089.805245	0.170991
1089.967308	0.171684
1090.129352	0.172033
1090.291378	0.169838
1090.453386	0.167940
1090.615376	0.169539
1090.777347	0.166921
1090.939301	0.166946
1091.101236	0.164250
1091.263153	0.161630
1091.425051	0.160233
1091.586932	0.160056
1091.748794	0.156927
1091.910638	0.163035
1092.072463	0.165383
1092.234271	0.167153
1092.396060	0.167323
1092.557831	0.166880
1092.719584	0.166036
1092.881319	0.164345
1093.043035	0.164825
1093.204733	0.164741
1093.366413	0.160195
1093.528075	0.159223
1093.689718	0.157336
1093.851343	0.161135
1094.012950	0.162091
1094.174539	0.159629
1094.336110	0.164149
1094.497662	0.166312
1094.659196	0.166664
1094.820712	0.168501
1094.982210	0.164411
1095.143689	0.165097
1095.305151	0.162228
1095.466594	0.162684
1095.628018	0.168312
1095.789425	0.168235
1095.950813	0.167959
1096.112183	0.173882
1096.273535	0.173062
1096.434869	0.177854
1096.596184	0.183224
1096.757482	0.182445
1096.918761	0.181970
1097.080021	0.177898
1097.241264	0.176997
1097.402488	0.174911
1097.563694	0.170548
1097.724882	0.169221
1097.886052	0.167002
1098.047203	0.162657
1098.208336	0.162743
1098.369451	0.157591
1098.530548	0.158798
1098.691627	0.159166
1098.852687	0.161292
1099.013729	0.159704
1099.174753	0.160927
1099.335758	0.160760
1099.496746	0.160289
1099.657715	0.159162
1099.818666	0.160086
1099.979599	0.161555
1100.140513	0.158754
1100.301409	0.153840
1100.462287	0.157216
1100.623147	0.156620
1100.783989	0.159020
1100.944812	0.163749
1101.105617	0.162796
1101.266404	0.168271
1101.427173	0.167175
1101.587923	0.168324
1101.748656	0.171086
1101.909370	0.169404
1102.070066	0.174670
1102.230743	0.172514
1102.391403	0.172161
1102.552044	0.169813
1102.712667	0.167394
1102.873271	0.165363
1103.033858	0.167524
1103.194426	0.170530
1103.354976	0.177120
1103.515508	0.175956
1103.676021	0.179697
1103.836517	0.176632
1103.996994	0.181025
1104.157453	0.181867
1104.317893	0.187577
1104.478316	0.184185
1104.638720	0.180541
1104.799106	0.173792
1104.959474	0.172308
1105.119823	0.166087
1105.280155	0.174370
1105.440468	0.173257
1105.600763	0.177524
1105.761039	0.174977
1105.921298	0.176265
1106.081538	0.175899
1106.241760	0.173692
1106.401964	0.177196
1106.562149	0.184987
1106.722316	0.175599
1106.882465	0.176437
1107.042596	0.174247
1107.202709	0.173101
1107.362803	0.174180
1107.522879	0.180958
1107.682937	0.182501
1107.842977	0.176725
1108.002999	0.169359
1108.163002	0.166518
1108.322987	0.168675
1108.482954	0.167058
1108.642902	0.175008
1108.802833	0.175468
1108.962745	0.170116
1109.122639	0.170670
1109.282515	0.172582
1109.442372	0.174794
1109.602211	0.180030
1109.762032	0.176008
1109.921835	0.172738
1110.081620	0.161522
1110.241386	0.159117
1110.401134	0.157949
1110.560864	0.163048
1110.720576	0.161092
1110.880269	0.156921
1111.039945	0.154727
1111.199602	0.154648
1111.359240	0.161863
1111.518861	0.164613
1111.678463	0.165946
1111.838047	0.169489
1111.997613	0.164578
1112.157161	0.169076
1112.316690	0.174230
1112.476202	0.180790
1112.635695	0.189790
1112.795169	0.184341
1112.954626	0.189225
1113.114064	0.192387
1113.273484	0.187339
1113.432886	0.193977
1113.592270	0.187293
1113.751635	0.187045
1113.910983	0.183308
1114.070312	0.176708
1114.229622	0.176139
1114.388915	0.177635
1114.548189	0.170192
1114.707445	0.177237
1114.866683	0.175944
1115.025903	0.177234
1115.185104	0.176893
1115.344287	0.176688
1115.503452	0.175719
1115.662599	0.177849
1115.821727	0.171999
1115.980838	0.184480
1116.139930	0.180869
1116.299004	0.175824
1116.458059	0.179016
1116.617097	0.176629
1116.776116	0.175262
1116.935117	0.178285
1117.094099	0.179927
1117.253064	0.178255
1117.412010	0.173273
1117.570938	0.175156
1117.729848	0.175395
1117.888740	0.176840
1118.047613	0.178522
1118.206468	0.180652
1118.365305	0.179990
1118.524124	0.182584
1118.682924	0.185568
1118.841707	0.177100
1119.000471	0.173103
1119.159216	0.173721
1119.317944	0.173652
1119.476653	0.175242
1119.635344	0.173224
1119.794017	0.170424
1119.952672	0.169783
1120.111308	0.172207
1120.269927	0.172652
1120.428527	0.178184
1120.587108	0.179483
1120.745672	0.177838
1120.904217	0.177356
1121.062744	0.180666
1121.221253	0.187014
1121.379744	0.181446
1121.538216	0.186736
1121.696671	0.195934
1121.855107	0.191273
1122.013524	0.189590
1122.171924	0.185369
1122.330305	0.183888
1122.488668	0.178251
1122.647013	0.176632
1122.805340	0.176966
1122.963648	0.172154
1123.121938	0.167743
1123.280210	0.170280
1123.438464	0.177902
1123.596700	0.180655
1123.754917	0.187693
1123.913116	0.195817
1124.071297	0.195175
1124.229459	0.199310
1124.387604	0.200094
1124.545730	0.205953
1124.703838	0.205344
1124.861928	0.200410
1125.019999	0.203379
1125.178052	0.195894
1125.336088	0.194404
1125.494104	0.195106
1125.652103	0.192973
1125.810083	0.190223
1125.968045	0.186669
1126.125989	0.176719
1126.283915	0.170006
1126.441823	0.166652
1126.599712	0.173964
1126.757583	0.174147
1126.915436	0.168864
1127.073270	0.174339
1127.231087	0.175823
1127.388885	0.172154
1127.546665	0.187336
1127.704426	0.192575
1127.862170	0.196902
1128.019895	0.187227
1128.177602	0.182942
1128.335291	0.190033
1128.492961	0.183260
1128.650614	0.185196
1128.808248	0.191140
1128.965864	0.183520
1129.123461	0.183970
1129.281041	0.177857
1129.438602	0.188357
1129.596145	0.198294
1129.753670	0.197111
1129.911176	0.196573
1130.068665	0.195448
1130.226135	0.188729
1130.383587	0.188909
1130.541020	0.187363
1130.698436	0.187801
1130.855833	0.180090
1131.013212	0.169227
1131.170573	0.170010
1131.327915	0.171833
1131.485239	0.169593
1131.642545	0.175267
1131.799833	0.178436
1131.957103	0.184264
1132.114354	0.184213
1132.271588	0.183051
1132.428803	0.183122
1132.585999	0.184839
1132.743178	0.185155
1132.900338	0.180093
1133.057480	0.176686
1133.214604	0.172365
1133.371710	0.169572
1133.528797	0.172899
1133.685866	0.169674
1133.842917	0.178219
1133.999950	0.174044
1134.156964	0.180311
1134.313960	0.183742
1134.470938	0.193834
1134.627898	0.193680
1134.784840	0.187273
1134.941763	0.179855
1135.098668	0.186720
1135.255555	0.181585
1135.412424	0.179623
1135.569274	0.180535
1135.726107	0.180415
1135.882921	0.171855
1136.039716	0.178493
1136.196494	0.179803
1136.353253	0.190728
1136.509995	0.181025
1136.666717	0.184647
1136.823422	0.181495
1136.980109	0.176453
1137.136777	0.174717
1137.293427	0.176106
1137.450059	0.175124
1137.606672	0.177039
1137.763267	0.172880
1137.919844	0.183871
1138.076403	0.173667
1138.232944	0.185332
1138.389466	0.187362
1138.545971	0.188278
1138.702457	0.188985
1138.858924	0.195455
1139.015374	0.200638
1139.171805	0.197790
1139.328218	0.199192
1139.484613	0.205680
1139.640990	0.198234
1139.797348	0.197890
1139.953688	0.191263
1140.110010	0.190426
1140.266314	0.187343
1140.422600	0.185135
1140.578867	0.183027
1140.735116	0.179901
1140.891347	0.193194
1141.047559	0.196328
1141.203754	0.194697
1141.359930	0.207582
1141.516088	0.209075
1141.672228	0.202521
1141.828349	0.205783
1141.984452	0.208595
1142.140537	0.214299
1142.296604	0.210480
1142.452653	0.208188
1142.608683	0.207324
1142.764695	0.222288
1142.920689	0.218491
1143.076665	0.216731
1143.232622	0.212088
1143.388562	0.217088
1143.544483	0.215499
1143.700385	0.201290
1143.856270	0.201347
1144.012136	0.198207
1144.167985	0.184332
1144.323814	0.186842
1144.479626	0.181467
1144.635420	0.185726
1144.791195	0.180730
1144.946952	0.175679
1145.102691	0.184975
1145.258411	0.178188
1145.414113	0.188846
1145.569798	0.184783
1145.725463	0.180780
1145.881111	0.190544
1146.036741	0.185142
1146.192352	0.185220
1146.347945	0.174843
1146.503519	0.169867
1146.659076	0.172631
1146.814614	0.173864
1146.970134	0.167619
1147.125636	0.177835
1147.281120	0.173647
1147.436585	0.175676
1147.592032	0.177161
1147.747461	0.192115
1147.902872	0.190153
1148.058265	0.190328
1148.213639	0.183914
1148.368995	0.197868
1148.524333	0.195285
1148.679653	0.196363
1148.834954	0.204887
1148.990237	0.209020
1149.145502	0.203634
1149.300749	0.200780
1149.455977	0.196801
1149.611188	0.188680
1149.766380	0.180458
1149.921553	0.166879
1150.076709	0.168666
1150.231846	0.162321
1150.386966	0.163068
1150.542066	0.165807
1150.697149	0.170309
1150.852214	0.178761
1151.007260	0.192759
1151.162288	0.206741
1151.317298	0.214439
1151.472289	0.214589
1151.627263	0.210155
1151.782218	0.203345
1151.937155	0.196568
1152.092073	0.202497
1152.246974	0.203947
1152.401856	0.193489
1152.556720	0.185843
1152.711566	0.186235
1152.866393	0.190435
1153.021203	0.192478
1153.175994	0.193358
1153.330767	0.188237
1153.485521	0.190656
1153.640258	0.189688
1153.794976	0.185367
1153.949676	0.184464
1154.104358	0.176199
1154.259021	0.166085
1154.413667	0.172231
1154.568294	0.163528
1154.722903	0.167265
1154.877493	0.163201
1155.032066	0.154807
1155.186620	0.160083
1155.341156	0.156883
1155.495674	0.177540
1155.650173	0.178353
1155.804654	0.164442
1155.959118	0.170992
1156.113562	0.178906
1156.267989	0.175639
1156.422397	0.193610
1156.576788	0.190648
1156.731160	0.200504
1156.885513	0.188751
1157.039849	0.194760
1157.194166	0.181174
1157.348465	0.192549
1157.502746	0.192753
1157.657009	0.185423
1157.811253	0.180534
1157.965479	0.182464
1158.119687	0.172316
1158.273877	0.178824
1158.428048	0.177974
1158.582201	0.200177
1158.736337	0.198459
1158.890453	0.188757
1159.044552	0.200872
1159.198632	0.197088
1159.352694	0.188062
1159.506738	0.185604
1159.660764	0.164445
1159.814771	0.176455
1159.968761	0.179123
1160.122732	0.180384
1160.276685	0.191249
1160.430619	0.191328
1160.584535	0.191404
1160.738434	0.197981
1160.892313	0.203295
1161.046175	0.227948
1161.200019	0.210359
1161.353844	0.221661
1161.507651	0.224329
1161.661440	0.240460
1161.815210	0.237176
1161.968962	0.247643
1162.122697	0.267762
1162.276412	0.257075
1162.430110	0.236083
1162.583789	0.257379
1162.737451	0.239320
1162.891094	0.231263
1163.044718	0.224245
1163.198325	0.225614
1163.351913	0.203792
1163.505483	0.182026
1163.659035	0.192557
1163.812569	0.202586
1163.966084	0.183014
1164.119581	0.185770
1164.273060	0.187772
1164.426521	0.155844
1164.579964	0.149196
1164.733388	0.146711
1164.886794	0.148048
1165.040182	0.143906
1165.193551	0.141400
1165.346903	0.137621
1165.500236	0.141640
1165.653551	0.137902
1165.806848	0.156970
1165.960126	0.145372
1166.113386	0.151200
1166.266628	0.149452
1166.419852	0.138482
1166.573058	0.144691
1166.726245	0.139604
1166.879414	0.130276
1167.032565	0.110691
1167.185698	0.105503
1167.338812	0.109511
1167.491909	0.102116
1167.644987	0.098569
1167.798046	0.098336
1167.951088	0.074776
1168.104111	0.081290
1168.257117	0.088575
1168.410103	0.103406
1168.563072	0.107371
1168.716023	0.122495
1168.868955	0.134029
1169.021869	0.150697
1169.174765	0.164732
1169.327642	0.180795
1169.480501	0.180828
1169.633343	0.190587
1169.786165	0.190712
1169.938970	0.193262
1170.091757	0.182797
1170.244525	0.176726
1170.397275	0.182736
1170.550007	0.179053
1170.702720	0.192547
1170.855415	0.195989
1171.008092	0.172227
1171.160751	0.166135
1171.313392	0.159713
1171.466014	0.148992
1171.618619	0.114302
1171.771205	0.114302
1171.923772	0.114302
