sample name	sample
index	951
start time	 04-12-2021  02:50:46 PM


Wavelength (nm)	Absorbance
494.344910	1.000000
494.563924	1.000000
494.782919	1.000000
495.001897	0.018309
495.220856	0.037403
495.439797	0.000026
495.658719	-0.074130
495.877624	-0.103999
496.096510	-0.124069
496.315378	-0.108099
496.534227	-0.080636
496.753059	-0.056066
496.971872	-0.035191
497.190667	0.133306
497.409444	0.149292
497.628203	0.155880
497.846943	0.156368
498.065665	0.160001
498.284369	0.160175
498.503055	0.159701
498.721723	0.159563
498.940372	0.161137
499.159003	0.159476
499.377616	0.159931
499.596210	0.160762
499.814787	0.161533
500.033345	0.161210
500.251885	0.161427
500.470406	0.163117
500.688910	0.164318
500.907395	0.164182
501.125862	0.165912
501.344311	0.165854
501.562742	0.166927
501.781154	0.167982
501.999548	0.168035
502.217924	0.168395
502.436282	0.167928
502.654621	0.167773
502.872942	0.168053
503.091245	0.166774
503.309530	0.167609
503.527797	0.167058
503.746045	0.167138
503.964275	0.166953
504.182487	0.167287
504.400681	0.167312
504.618856	0.167063
504.837013	0.166711
505.055152	0.168860
505.273273	0.168691
505.491376	0.168802
505.709460	0.168493
505.927526	0.168847
506.145574	0.169496
506.363604	0.170444
506.581615	0.171779
506.799608	0.173435
507.017583	0.173230
507.235540	0.173873
507.453478	0.174916
507.671399	0.174686
507.889301	0.174969
508.107185	0.174322
508.325050	0.173851
508.542898	0.173957
508.760727	0.173293
508.978538	0.173743
509.196330	0.173982
509.414105	0.173635
509.631861	0.174833
509.849599	0.175008
510.067319	0.175122
510.285021	0.175400
510.502704	0.175645
510.720369	0.175269
510.938016	0.175198
511.155645	0.175288
511.373255	0.174700
511.590848	0.174466
511.808422	0.175903
512.025977	0.177323
512.243515	0.177877
512.461034	0.178249
512.678536	0.178783
512.896018	0.178295
513.113483	0.179036
513.330930	0.180167
513.548358	0.180582
513.765768	0.180044
513.983160	0.179863
514.200533	0.179920
514.417889	0.179835
514.635226	0.180218
514.852545	0.181656
515.069845	0.181652
515.287128	0.182051
515.504392	0.182914
515.721638	0.183603
515.938866	0.183949
516.156075	0.183891
516.373267	0.184373
516.590440	0.185498
516.807594	0.185149
517.024731	0.184754
517.241850	0.184455
517.458950	0.184116
517.676032	0.185064
517.893095	0.185431
518.110141	0.186363
518.327168	0.186629
518.544177	0.186663
518.761168	0.187572
518.978141	0.188167
519.195095	0.188701
519.412031	0.189016
519.628949	0.187512
519.845849	0.187899
520.062731	0.187716
520.279594	0.188340
520.496439	0.188135
520.713266	0.187957
520.930074	0.188752
521.146865	0.189259
521.363637	0.190027
521.580391	0.191155
521.797127	0.191279
522.013844	0.191860
522.230543	0.192139
522.447224	0.192729
522.663887	0.193668
522.880532	0.192809
523.097158	0.192288
523.313766	0.192362
523.530356	0.192708
523.746928	0.192602
523.963481	0.192982
524.180017	0.192379
524.396534	0.192909
524.613032	0.192262
524.829513	0.193591
525.045975	0.194959
525.262420	0.195502
525.478845	0.195658
525.695253	0.196805
525.911643	0.197113
526.128014	0.198094
526.344367	0.198020
526.560702	0.198914
526.777018	0.199132
526.993316	0.199831
527.209597	0.200194
527.425858	0.200945
527.642102	0.200312
527.858328	0.200419
528.074535	0.200635
528.290724	0.201421
528.506894	0.201688
528.723047	0.201990
528.939181	0.201829
529.155297	0.201938
529.371395	0.202276
529.587475	0.204089
529.803536	0.205110
530.019579	0.205865
530.235604	0.205825
530.451611	0.206528
530.667600	0.207847
530.883570	0.208519
531.099522	0.208533
531.315456	0.209508
531.531372	0.209007
531.747269	0.208867
531.963148	0.208977
532.179009	0.209182
532.394852	0.209393
532.610676	0.208321
532.826482	0.208005
533.042271	0.209136
533.258040	0.209176
533.473792	0.209664
533.689525	0.210712
533.905240	0.211749
534.120937	0.212939
534.336616	0.212935
534.552277	0.214325
534.767919	0.215471
534.983543	0.215234
535.199149	0.214832
535.414736	0.215341
535.630306	0.215496
535.845857	0.214951
536.061390	0.215005
536.276904	0.215490
536.492401	0.216098
536.707879	0.216399
536.923339	0.217411
537.138781	0.218679
537.354204	0.218986
537.569610	0.219001
537.784997	0.220088
538.000366	0.220718
538.215716	0.220945
538.431049	0.220909
538.646363	0.221164
538.861659	0.220828
539.076937	0.220736
539.292196	0.220937
539.507438	0.221171
539.722661	0.221424
539.937866	0.221368
540.153052	0.221580
540.368221	0.221504
540.583371	0.221776
540.798503	0.221846
541.013617	0.222124
541.228712	0.221739
541.443789	0.221937
541.658848	0.222063
541.873889	0.222308
542.088912	0.222751
542.303916	0.223427
542.518902	0.223950
542.733870	0.224886
542.948820	0.225669
543.163752	0.226496
543.378665	0.227162
543.593560	0.227654
543.808437	0.228032
544.023295	0.228605
544.238136	0.228721
544.452958	0.228330
544.667762	0.228175
544.882548	0.228429
545.097315	0.228981
545.312064	0.229572
545.526795	0.229834
545.741508	0.229913
545.956203	0.229892
546.170879	0.230217
546.385537	0.230938
546.600177	0.231454
546.814799	0.231852
547.029402	0.232055
547.243988	0.231866
547.458555	0.231661
547.673103	0.232720
547.887634	0.233668
548.102146	0.234048
548.316640	0.234535
548.531116	0.235459
548.745574	0.235144
548.960013	0.235595
549.174435	0.236082
549.388838	0.236735
549.603222	0.236684
549.817589	0.236346
550.031937	0.236574
550.246267	0.236649
550.460579	0.236808
550.674873	0.237407
550.889148	0.237653
551.103405	0.237557
551.317644	0.238080
551.531865	0.238723
551.746068	0.239267
551.960252	0.239477
552.174418	0.240088
552.388566	0.240003
552.602696	0.240293
552.816807	0.240131
553.030900	0.240466
553.244975	0.240188
553.459032	0.240276
553.673070	0.240465
553.887091	0.241126
554.101093	0.241359
554.315077	0.241333
554.529042	0.241617
554.742990	0.242084
554.956919	0.242609
555.170830	0.243094
555.384722	0.242927
555.598597	0.242756
555.812453	0.242891
556.026291	0.242688
556.240111	0.242775
556.453913	0.242580
556.667696	0.243296
556.881461	0.243332
557.095208	0.243362
557.308937	0.243869
557.522647	0.244337
557.736339	0.244628
557.950013	0.244770
558.163669	0.245145
558.377307	0.245848
558.590926	0.245487
558.804527	0.246091
559.018110	0.246516
559.231675	0.246556
559.445221	0.246892
559.658749	0.246705
559.872259	0.247375
560.085751	0.247466
560.299225	0.247588
560.512680	0.247829
560.726117	0.247751
560.939536	0.248180
561.152937	0.248290
561.366319	0.248694
561.579683	0.249222
561.793029	0.249181
562.006357	0.249620
562.219667	0.249775
562.432958	0.250161
562.646231	0.250520
562.859486	0.250002
563.072723	0.249964
563.285941	0.249748
563.499141	0.249704
563.712323	0.249646
563.925487	0.249821
564.138632	0.249844
564.351760	0.249848
564.564869	0.250191
564.777960	0.251096
564.991032	0.251699
565.204087	0.252167
565.417123	0.252298
565.630141	0.252466
565.843140	0.252875
566.056122	0.253205
566.269085	0.253580
566.482030	0.253636
566.694957	0.253534
566.907866	0.253503
567.120756	0.253590
567.333628	0.253827
567.546482	0.254012
567.759318	0.254140
567.972135	0.254371
568.184935	0.254498
568.397716	0.254712
568.610478	0.255140
568.823223	0.255437
569.035949	0.255587
569.248657	0.255253
569.461347	0.255538
569.674019	0.255637
569.886672	0.255778
570.099308	0.256128
570.311925	0.256172
570.524523	0.255790
570.737104	0.256157
570.949666	0.256533
571.162210	0.257286
571.374736	0.257816
571.587244	0.257808
571.799733	0.258307
572.012205	0.257845
572.224658	0.258032
572.437092	0.258736
572.649509	0.258672
572.861907	0.258959
573.074287	0.258792
573.286649	0.258522
573.498993	0.259015
573.711318	0.258594
573.923625	0.259032
574.135914	0.259011
574.348185	0.258840
574.560438	0.259522
574.772672	0.259168
574.984888	0.259846
575.197086	0.260383
575.409266	0.260601
575.621427	0.260860
575.833570	0.261293
576.045695	0.261636
576.257802	0.261711
576.469890	0.261461
576.681961	0.261698
576.894013	0.261881
577.106046	0.261810
577.318062	0.262099
577.530059	0.262250
577.742039	0.262316
577.954000	0.262671
578.165942	0.263376
578.377867	0.263724
578.589773	0.264585
578.801661	0.264367
579.013531	0.264770
579.225382	0.264982
579.437216	0.265341
579.649031	0.265543
579.860828	0.265539
580.072606	0.265431
580.284367	0.265972
580.496109	0.265565
580.707833	0.265889
580.919539	0.266498
581.131227	0.266572
581.342896	0.266524
581.554547	0.266561
581.766180	0.266945
581.977795	0.267050
582.189391	0.266449
582.400969	0.266891
582.612529	0.267333
582.824071	0.267571
583.035595	0.267816
583.247100	0.268169
583.458587	0.268727
583.670056	0.268979
583.881506	0.269116
584.092939	0.269094
584.304353	0.269341
584.515749	0.269218
584.727127	0.268286
584.938486	0.268319
585.149828	0.268765
585.361151	0.269244
585.572456	0.268939
585.783742	0.269340
585.995011	0.270232
586.206261	0.270595
586.417493	0.271016
586.628706	0.271608
586.839902	0.271577
587.051079	0.271605
587.262238	0.271382
587.473379	0.271636
587.684502	0.271782
587.895606	0.271731
588.106692	0.271605
588.317760	0.271603
588.528810	0.271941
588.739841	0.272444
588.950855	0.272487
589.161850	0.272567
589.372827	0.272803
589.583785	0.272845
589.794726	0.272620
590.005648	0.272521
590.216552	0.272783
590.427437	0.272948
590.638305	0.273113
590.849154	0.273286
591.059985	0.273347
591.270798	0.273843
591.481592	0.274246
591.692369	0.274751
591.903127	0.275500
592.113867	0.275394
592.324588	0.275667
592.535292	0.275473
592.745977	0.275752
592.956644	0.276296
593.167293	0.276611
593.377923	0.276883
593.588536	0.277051
593.799130	0.276804
594.009706	0.277211
594.220263	0.277041
594.430803	0.277787
594.641324	0.277671
594.851827	0.277619
595.062312	0.277451
595.272778	0.277311
595.483227	0.277345
595.693657	0.277687
595.904069	0.277828
596.114462	0.278337
596.324838	0.278211
596.535195	0.278672
596.745534	0.278995
596.955855	0.279259
597.166157	0.279327
597.376441	0.279809
597.586707	0.279880
597.796955	0.280280
598.007185	0.280572
598.217396	0.280576
598.427589	0.280676
598.637764	0.280718
598.847921	0.280691
599.058060	0.280849
599.268180	0.280906
599.478282	0.281112
599.688366	0.281025
599.898431	0.281060
600.108479	0.281282
600.318508	0.281530
600.528519	0.282091
600.738511	0.282399
600.948486	0.282973
601.158442	0.282951
601.368380	0.283028
601.578300	0.283289
601.788202	0.283216
601.998085	0.283594
602.207950	0.283650
602.417797	0.283293
602.627626	0.283571
602.837436	0.283917
603.047228	0.284431
603.257002	0.284576
603.466758	0.284552
603.676496	0.284650
603.886215	0.284833
604.095916	0.285385
604.305599	0.285492
604.515264	0.285649
604.724910	0.285332
604.934538	0.285350
605.144148	0.285491
605.353740	0.286219
605.563314	0.286593
605.772869	0.286686
605.982406	0.286841
606.191925	0.287505
606.401425	0.287738
606.610908	0.287815
606.820372	0.287640
607.029818	0.287608
607.239246	0.287265
607.448655	0.287671
607.658047	0.287671
607.867420	0.287857
608.076775	0.287573
608.286111	0.287782
608.495430	0.288085
608.704730	0.288580
608.914012	0.289275
609.123275	0.289798
609.332521	0.289951
609.541748	0.290239
609.750957	0.290083
609.960148	0.290503
610.169321	0.290242
610.378475	0.290427
610.587611	0.290947
610.796729	0.290847
611.005829	0.290893
611.214910	0.290744
611.423974	0.290838
611.633019	0.291058
611.842045	0.291138
612.051054	0.291481
612.260044	0.291646
612.469017	0.291344
612.677970	0.291436
612.886906	0.291554
613.095824	0.291960
613.304723	0.292228
613.513604	0.292565
613.722467	0.292797
613.931311	0.292991
614.140138	0.293121
614.348946	0.293162
614.557736	0.293303
614.766507	0.293295
614.975261	0.293148
615.183996	0.292828
615.392713	0.292975
615.601412	0.293262
615.810092	0.293433
616.018754	0.293942
616.227399	0.294213
616.436024	0.294627
616.644632	0.294931
616.853222	0.295070
617.061793	0.295648
617.270346	0.295356
617.478880	0.295381
617.687397	0.295671
617.895895	0.295292
618.104375	0.295427
618.312837	0.295281
618.521281	0.295239
618.729706	0.295819
618.938113	0.295737
619.146502	0.296254
619.354873	0.296610
619.563226	0.296854
619.771560	0.297317
619.979876	0.297574
620.188174	0.298026
620.396453	0.298443
620.604715	0.298221
620.812958	0.298626
621.021183	0.298690
621.229390	0.298329
621.437578	0.298269
621.645748	0.298150
621.853900	0.298464
622.062034	0.298385
622.270150	0.298675
622.478247	0.299361
622.686326	0.299534
622.894387	0.299670
623.102430	0.299964
623.310454	0.300186
623.518461	0.300546
623.726449	0.300630
623.934418	0.301030
624.142370	0.300730
624.350303	0.300459
624.558218	0.300675
624.766115	0.300850
624.973994	0.301026
625.181855	0.301190
625.389697	0.301290
625.597521	0.301385
625.805327	0.301483
626.013114	0.301972
626.220883	0.302151
626.428634	0.302279
626.636367	0.302604
626.844082	0.302891
627.051778	0.302839
627.259457	0.303137
627.467117	0.303348
627.674758	0.303378
627.882382	0.303247
628.089987	0.303441
628.297574	0.303302
628.505143	0.303353
628.712694	0.303428
628.920226	0.303445
629.127740	0.303550
629.335236	0.303567
629.542714	0.303837
629.750174	0.304191
629.957615	0.304395
630.165038	0.304871
630.372443	0.304909
630.579829	0.304840
630.787198	0.305202
630.994548	0.305024
631.201880	0.305443
631.409194	0.305755
631.616489	0.305940
631.823766	0.305935
632.031025	0.306022
632.238266	0.306587
632.445489	0.306761
632.652693	0.307013
632.859879	0.307593
633.067047	0.307724
633.274197	0.307641
633.481329	0.307910
633.688442	0.308352
633.895537	0.308644
634.102614	0.308528
634.309672	0.309099
634.516713	0.309345
634.723735	0.309574
634.930739	0.309574
635.137724	0.309915
635.344692	0.310034
635.551641	0.310199
635.758572	0.310253
635.965485	0.310497
636.172379	0.310851
636.379256	0.310892
636.586114	0.311177
636.792954	0.311492
636.999775	0.311446
637.206579	0.311610
637.413364	0.311813
637.620131	0.312276
637.826880	0.312207
638.033610	0.312128
638.240323	0.312186
638.447017	0.312108
638.653692	0.312220
638.860350	0.312511
639.066990	0.312495
639.273611	0.312545
639.480214	0.312509
639.686798	0.312993
639.893365	0.313143
640.099913	0.313391
640.306443	0.313533
640.512955	0.313687
640.719449	0.313818
640.925924	0.314074
641.132381	0.314324
641.338820	0.314721
641.545241	0.314836
641.751644	0.314983
641.958028	0.315249
642.164394	0.315577
642.370742	0.315563
642.577071	0.315660
642.783383	0.315921
642.989676	0.316099
643.195951	0.315784
643.402207	0.315661
643.608446	0.315687
643.814666	0.315817
644.020868	0.315924
644.227052	0.316042
644.433218	0.316200
644.639365	0.316530
644.845494	0.316563
645.051605	0.316962
645.257698	0.317298
645.463772	0.317465
645.669828	0.317530
645.875866	0.317679
646.081886	0.318044
646.287888	0.318573
646.493871	0.318613
646.699836	0.319107
646.905783	0.319581
647.111712	0.319856
647.317622	0.320529
647.523514	0.320863
647.729388	0.321039
647.935244	0.321208
648.141082	0.321373
648.346901	0.321692
648.552702	0.321913
648.758485	0.321982
648.964250	0.322021
649.169996	0.322160
649.375724	0.322201
649.581434	0.322411
649.787126	0.322799
649.992800	0.322787
650.198455	0.322934
650.404092	0.322818
650.609711	0.322852
650.815311	0.323336
651.020894	0.323309
651.226458	0.323768
651.432004	0.324071
651.637532	0.324347
651.843041	0.324629
652.048532	0.324742
652.254006	0.324865
652.459460	0.325037
652.664897	0.325286
652.870315	0.325876
653.075716	0.326315
653.281097	0.326615
653.486461	0.326840
653.691807	0.327279
653.897134	0.327658
654.102443	0.328119
654.307734	0.328464
654.513006	0.328535
654.718261	0.328347
654.923497	0.328368
655.128715	0.328454
655.333915	0.328912
655.539096	0.328808
655.744259	0.328988
655.949404	0.329394
656.154531	0.329496
656.359640	0.329693
656.564730	0.329996
656.769802	0.330227
656.974856	0.330555
657.179892	0.330541
657.384909	0.330822
657.589908	0.331095
657.794889	0.331028
657.999852	0.331069
658.204797	0.331480
658.409723	0.331749
658.614631	0.331829
658.819521	0.332050
659.024393	0.332284
659.229246	0.332410
659.434081	0.332536
659.638898	0.332920
659.843697	0.333377
660.048478	0.333650
660.253240	0.333665
660.457984	0.333960
660.662710	0.334128
660.867417	0.334123
661.072107	0.334375
661.276778	0.334538
661.481431	0.334513
661.686066	0.334825
661.890682	0.334701
662.095281	0.335085
662.299861	0.335367
662.504422	0.335495
662.708966	0.335824
662.913491	0.336214
663.117999	0.336467
663.322488	0.336751
663.526958	0.336895
663.731411	0.337389
663.935845	0.337665
664.140261	0.338144
664.344659	0.338538
664.549038	0.338666
664.753400	0.338813
664.957743	0.339162
665.162068	0.339539
665.366375	0.339628
665.570663	0.339569
665.774933	0.339743
665.979185	0.339733
666.183419	0.339878
666.387635	0.340237
666.591832	0.340653
666.796011	0.340542
667.000172	0.340731
667.204315	0.341207
667.408439	0.341758
667.612545	0.341984
667.816634	0.342030
668.020703	0.342193
668.224755	0.342499
668.428788	0.342489
668.632803	0.342984
668.836800	0.343079
669.040779	0.343343
669.244739	0.343403
669.448681	0.343621
669.652605	0.343955
669.856511	0.344255
670.060399	0.344347
670.264268	0.344787
670.468119	0.345129
670.671952	0.345586
670.875767	0.345986
671.079563	0.346320
671.283341	0.346556
671.487101	0.347173
671.690843	0.347376
671.894567	0.347790
672.098272	0.347856
672.301959	0.347959
672.505628	0.348057
672.709278	0.348242
672.912911	0.348542
673.116525	0.348715
673.320121	0.348812
673.523699	0.349157
673.727258	0.349323
673.930799	0.349880
674.134322	0.350594
674.337827	0.350702
674.541314	0.350893
674.744782	0.351109
674.948232	0.351395
675.151664	0.351509
675.355078	0.351928
675.558474	0.351896
675.761851	0.352113
675.965210	0.352064
676.168551	0.352306
676.371873	0.352434
676.575178	0.352625
676.778464	0.352701
676.981732	0.352794
677.184981	0.352814
677.388213	0.353248
677.591426	0.353346
677.794621	0.353364
677.997798	0.353739
678.200956	0.353873
678.404097	0.354138
678.607219	0.354768
678.810323	0.355113
679.013408	0.355330
679.216476	0.355633
679.419525	0.355806
679.622556	0.356026
679.825569	0.356233
680.028563	0.356629
680.231540	0.356619
680.434498	0.356705
680.637438	0.356608
680.840359	0.356957
681.043263	0.357294
681.246148	0.357871
681.449015	0.358112
681.651864	0.358446
681.854694	0.358654
682.057506	0.358984
682.260301	0.359251
682.463076	0.359899
682.665834	0.360045
682.868573	0.360235
683.071295	0.360199
683.273998	0.360666
683.476682	0.360854
683.679349	0.360927
683.881997	0.361380
684.084627	0.361402
684.287239	0.361653
684.489833	0.362066
684.692408	0.362341
684.894965	0.362515
685.097504	0.362661
685.300025	0.363095
685.502527	0.363404
685.705012	0.363372
685.907478	0.363668
686.109925	0.363894
686.312355	0.364031
686.514766	0.364241
686.717159	0.364510
686.919534	0.364568
687.121891	0.364756
687.324230	0.365027
687.526550	0.365363
687.728852	0.365910
687.931136	0.366024
688.133401	0.366055
688.335649	0.365967
688.537878	0.365998
688.740089	0.366142
688.942281	0.366093
689.144456	0.366166
689.346612	0.366357
689.548750	0.366385
689.750870	0.366825
689.952971	0.367374
690.155055	0.367993
690.357120	0.368114
690.559167	0.368579
690.761195	0.368821
690.963206	0.368975
691.165198	0.369159
691.367172	0.369268
691.569128	0.369341
691.771065	0.369037
691.972984	0.368920
692.174885	0.369520
692.376768	0.369589
692.578633	0.369901
692.780479	0.370125
692.982308	0.370228
693.184118	0.370480
693.385909	0.370406
693.587683	0.370825
693.789438	0.370959
693.991175	0.370585
694.192894	0.370838
694.394595	0.371202
694.596277	0.371216
694.797941	0.371632
694.999587	0.371739
695.201215	0.371912
695.402824	0.371899
695.604416	0.372331
695.805989	0.372821
696.007543	0.372812
696.209080	0.372582
696.410598	0.373137
696.612099	0.373208
696.813580	0.373237
697.015044	0.373580
697.216490	0.373893
697.417917	0.373915
697.619326	0.374176
697.820717	0.374442
698.022089	0.374785
698.223444	0.374776
698.424780	0.375168
698.626098	0.375414
698.827397	0.375563
699.028679	0.375718
699.229942	0.375998
699.431187	0.375899
699.632414	0.376248
699.833622	0.376397
700.034813	0.376607
700.235985	0.376338
700.437139	0.376592
700.638274	0.376715
700.839392	0.376805
701.040491	0.376801
701.241572	0.377495
701.442635	0.377476
701.643679	0.377593
701.844706	0.377626
702.045714	0.377800
702.246704	0.377826
702.447675	0.377900
702.648629	0.378341
702.849564	0.378148
703.050481	0.377840
703.251380	0.377845
703.452260	0.378064
703.653122	0.378305
703.853966	0.378684
704.054792	0.378925
704.255600	0.378838
704.456389	0.378706
704.657160	0.379191
704.857913	0.379185
705.058648	0.379482
705.259365	0.379163
705.460063	0.379066
705.660743	0.378899
705.861405	0.378675
706.062048	0.378843
706.262674	0.378667
706.463281	0.378346
706.663870	0.378589
706.864441	0.378340
707.064993	0.378859
707.265527	0.378959
707.466043	0.378897
707.666541	0.379064
707.867021	0.379332
708.067482	0.379259
708.267925	0.379569
708.468350	0.379570
708.668757	0.379541
708.869145	0.379236
709.069516	0.379209
709.269868	0.379115
709.470201	0.379128
709.670517	0.379033
709.870814	0.379063
710.071093	0.379000
710.271354	0.378896
710.471597	0.378985
710.671821	0.379041
710.872028	0.378948
711.072216	0.378957
711.272385	0.378874
711.472537	0.378596
711.672670	0.378775
711.872785	0.378736
712.072882	0.378904
712.272961	0.378974
712.473021	0.378738
712.673063	0.378711
712.873087	0.378529
713.073093	0.378693
713.273081	0.378800
713.473050	0.378761
713.673001	0.378834
713.872934	0.378359
714.072849	0.378037
714.272745	0.378260
714.472623	0.378222
714.672483	0.378497
714.872325	0.378452
715.072148	0.378605
715.271954	0.378660
715.471741	0.378596
715.671509	0.378827
715.871260	0.378958
716.070992	0.378869
716.270707	0.378859
716.470403	0.378870
716.670080	0.378757
716.869740	0.378430
717.069381	0.378436
717.269004	0.378264
717.468609	0.378048
717.668195	0.377812
717.867764	0.377965
718.067314	0.377970
718.266846	0.377828
718.466360	0.377676
718.665855	0.377755
718.865332	0.377653
719.064791	0.377692
719.264232	0.377554
719.463655	0.377414
719.663059	0.376841
719.862445	0.376764
720.061813	0.376525
720.261163	0.376273
720.460494	0.375926
720.659807	0.375539
720.859102	0.375184
721.058379	0.375111
721.257638	0.375344
721.456878	0.375670
721.656100	0.375436
721.855304	0.375340
722.054490	0.375480
722.253657	0.375576
722.452806	0.375472
722.651937	0.375536
722.851050	0.375556
723.050145	0.375588
723.249221	0.375295
723.448279	0.375143
723.647319	0.375279
723.846340	0.375176
724.045344	0.375121
724.244329	0.375207
724.443296	0.374990
724.642245	0.374944
724.841175	0.374647
725.040088	0.374157
725.238982	0.374041
725.437857	0.373651
725.636715	0.373443
725.835554	0.373313
726.034376	0.373098
726.233179	0.373086
726.431963	0.372870
726.630730	0.372477
726.829478	0.372430
727.028208	0.372447
727.226920	0.372319
727.425614	0.371978
727.624289	0.371506
727.822946	0.371055
728.021585	0.370660
728.220206	0.370134
728.418808	0.369856
728.617392	0.369740
728.815958	0.369464
729.014506	0.369158
729.213036	0.368983
729.411547	0.368703
729.610040	0.368888
729.808515	0.368660
730.006972	0.368831
730.205410	0.368738
730.403831	0.368506
730.602233	0.368299
730.800616	0.368455
730.998982	0.368530
731.197329	0.368401
731.395658	0.368041
731.593969	0.367949
731.792262	0.367623
731.990536	0.367364
732.188793	0.367123
732.387031	0.366748
732.585250	0.366482
732.783452	0.366181
732.981635	0.366096
733.179800	0.365697
733.377947	0.365458
733.576076	0.365282
733.774186	0.365264
733.972278	0.365258
734.170352	0.365116
734.368408	0.364889
734.566446	0.364693
734.764465	0.364478
734.962466	0.364554
735.160449	0.364512
735.358413	0.364495
735.556360	0.364263
735.754288	0.364128
735.952198	0.364165
736.150090	0.363941
736.347963	0.363907
736.545818	0.363787
736.743655	0.363594
736.941474	0.363264
737.139275	0.363049
737.337057	0.362777
737.534821	0.362547
737.732567	0.362112
737.930295	0.361926
738.128005	0.361529
738.325696	0.361197
738.523369	0.360690
738.721024	0.360449
738.918660	0.359884
739.116279	0.359651
739.313879	0.359247
739.511461	0.359016
739.709024	0.358757
739.906570	0.358628
740.104097	0.358378
740.301606	0.358325
740.499097	0.358360
740.696569	0.358134
740.894024	0.357960
741.091460	0.357699
741.288878	0.357434
741.486277	0.356886
741.683659	0.356483
741.881022	0.356563
742.078367	0.356353
742.275694	0.356005
742.473002	0.355621
742.670293	0.355328
742.867565	0.354981
743.064819	0.354560
743.262054	0.354623
743.459272	0.354392
743.656471	0.353837
743.853652	0.353290
744.050815	0.352640
744.247959	0.352753
744.445085	0.352319
744.642194	0.352179
744.839283	0.352258
745.036355	0.351767
745.233408	0.351284
745.430444	0.351051
745.627461	0.351168
745.824459	0.351043
746.021440	0.350698
746.218402	0.350669
746.415346	0.350501
746.612272	0.350234
746.809180	0.349995
747.006069	0.349876
747.202940	0.349818
747.399793	0.349251
747.596628	0.349253
747.793444	0.349124
747.990243	0.348550
748.187023	0.348364
748.383784	0.348178
748.580528	0.348031
748.777253	0.347496
748.973960	0.347182
749.170649	0.347231
749.367320	0.346942
749.563973	0.346423
749.760607	0.346358
749.957223	0.346164
750.153821	0.345557
750.350400	0.345177
750.546962	0.345172
750.743505	0.344910
750.940030	0.344633
751.136536	0.344197
751.333025	0.344202
751.529495	0.344169
751.725947	0.343629
751.922381	0.343580
752.118796	0.343496
752.315194	0.343006
752.511573	0.342447
752.707934	0.342019
752.904276	0.341807
753.100601	0.341434
753.296907	0.340962
753.493195	0.340756
753.689465	0.340755
753.885716	0.340583
754.081949	0.340433
754.278164	0.340176
754.474361	0.339914
754.670540	0.339947
754.866700	0.339785
755.062843	0.339852
755.258967	0.339937
755.455072	0.339567
755.651160	0.339521
755.847229	0.339912
756.043280	0.339984
756.239313	0.340042
756.435328	0.339491
756.631324	0.339178
756.827302	0.338890
757.023262	0.338745
757.219204	0.338660
757.415127	0.338151
757.611033	0.337591
757.806920	0.337219
758.002788	0.336854
758.198639	0.336710
758.394471	0.336642
758.590286	0.336363
758.786081	0.335907
758.981859	0.335543
759.177619	0.335549
759.373360	0.335088
759.569083	0.335016
759.764788	0.335080
759.960474	0.335167
760.156143	0.335196
760.351793	0.335100
760.547425	0.334908
760.743038	0.334952
760.938634	0.334721
761.134211	0.334504
761.329770	0.334607
761.525311	0.334502
761.720833	0.334251
761.916338	0.333947
762.111824	0.333777
762.307292	0.333776
762.502741	0.333325
762.698173	0.333285
762.893586	0.333404
763.088981	0.333083
763.284358	0.332861
763.479716	0.332569
763.675057	0.332532
763.870379	0.332240
764.065683	0.331891
764.260968	0.331951
764.456236	0.331794
764.651485	0.331544
764.846716	0.331057
765.041929	0.330469
765.237123	0.330264
765.432299	0.330003
765.627457	0.330018
765.822597	0.330089
766.017719	0.329954
766.212822	0.329676
766.407907	0.329778
766.602974	0.329855
766.798023	0.329993
766.993054	0.329676
767.188066	0.329634
767.383060	0.329354
767.578036	0.329161
767.772993	0.328717
767.967933	0.328413
768.162854	0.328005
768.357757	0.328181
768.552642	0.328039
768.747508	0.328118
768.942356	0.327753
769.137186	0.327730
769.331998	0.327695
769.526792	0.327984
769.721567	0.328134
769.916324	0.328322
770.111063	0.328182
770.305784	0.328182
770.500486	0.328289
770.695171	0.328245
770.889837	0.328426
771.084484	0.328359
771.279114	0.327931
771.473725	0.327714
771.668318	0.327698
771.862893	0.327394
772.057450	0.327308
772.251988	0.327072
772.446509	0.327082
772.641011	0.326907
772.835494	0.326688
773.029960	0.326834
773.224407	0.326708
773.418836	0.326603
773.613247	0.326682
773.807640	0.326189
774.002014	0.326139
774.196370	0.326293
774.390708	0.326077
774.585028	0.326060
774.779330	0.326005
774.973613	0.326034
775.167878	0.325702
775.362125	0.325601
775.556354	0.326078
775.750564	0.326171
775.944756	0.326091
776.138930	0.326122
776.333086	0.326260
776.527223	0.326182
776.721343	0.326104
776.915444	0.326356
777.109526	0.326024
777.303591	0.325669
777.497637	0.325561
777.691666	0.325364
777.885676	0.325175
778.079667	0.325152
778.273641	0.324865
778.467596	0.324911
778.661533	0.324701
778.855452	0.324952
779.049352	0.324983
779.243235	0.325020
779.437099	0.324807
779.630945	0.325255
779.824773	0.325086
780.018582	0.325292
780.212373	0.325110
780.406146	0.325384
780.599901	0.325259
780.793638	0.325392
780.987356	0.325315
781.181056	0.325272
781.374738	0.325132
781.568402	0.325030
781.762047	0.325075
781.955674	0.325582
782.149283	0.325232
782.342874	0.325348
782.536447	0.325358
782.730001	0.325505
782.923537	0.325914
783.117055	0.325821
783.310555	0.325881
783.504036	0.325869
783.697499	0.325476
783.890944	0.325680
784.084371	0.325814
784.277780	0.325721
784.471170	0.325797
784.664542	0.325891
784.857896	0.326104
785.051231	0.326336
785.244549	0.326542
785.437848	0.326717
785.631129	0.326729
785.824392	0.326863
786.017636	0.327112
786.210863	0.327067
786.404071	0.326649
786.597260	0.326495
786.790432	0.326487
786.983585	0.326388
787.176721	0.326306
787.369838	0.326538
787.562936	0.326586
787.756017	0.326791
787.949079	0.326873
788.142123	0.327424
788.335149	0.327342
788.528156	0.327305
788.721146	0.327250
788.914117	0.327460
789.107070	0.327130
789.300005	0.326972
789.492921	0.326766
789.685819	0.326777
789.878699	0.327008
790.071561	0.327397
790.264405	0.327580
790.457230	0.327728
790.650037	0.328117
790.842826	0.328563
791.035597	0.328792
791.228349	0.328963
791.421084	0.329446
791.613800	0.329260
791.806497	0.329240
791.999177	0.329472
792.191838	0.329882
792.384481	0.329839
792.577106	0.330158
792.769713	0.330197
792.962301	0.330617
793.154871	0.330695
793.347423	0.330994
793.539957	0.331041
793.732473	0.331308
793.924970	0.331290
794.117449	0.331577
794.309910	0.331501
794.502353	0.331551
794.694777	0.331580
794.887183	0.331826
795.079571	0.332028
795.271941	0.332650
795.464293	0.332770
795.656626	0.333183
795.848941	0.333329
796.041238	0.333753
796.233516	0.334299
796.425777	0.334578
796.618019	0.334586
796.810243	0.334634
797.002449	0.334450
797.194636	0.334338
797.386805	0.334476
797.578956	0.334536
797.771089	0.334356
797.963204	0.334596
798.155300	0.334557
798.347378	0.335052
798.539438	0.335326
798.731480	0.335714
798.923503	0.336057
799.115509	0.336439
799.307496	0.336737
799.499465	0.337072
799.691415	0.337399
799.883348	0.337810
800.075262	0.337666
800.267158	0.338180
800.459035	0.338430
800.650895	0.338904
800.842736	0.339217
801.034559	0.339405
801.226364	0.339716
801.418150	0.339720
801.609919	0.339932
801.801669	0.340250
801.993401	0.340281
802.185114	0.340292
802.376810	0.340482
802.568487	0.340580
802.760146	0.340956
802.951787	0.341317
803.143409	0.341591
803.335014	0.341812
803.526600	0.342231
803.718168	0.342695
803.909717	0.343508
804.101249	0.343774
804.292762	0.344099
804.484257	0.344577
804.675734	0.344786
804.867192	0.345172
805.058632	0.345558
805.250054	0.345795
805.441458	0.345868
805.632844	0.345789
805.824211	0.346128
806.015561	0.346360
806.206891	0.346378
806.398204	0.346773
806.589499	0.347251
806.780775	0.347697
806.972033	0.347778
807.163273	0.348205
807.354495	0.348491
807.545698	0.348904
807.736883	0.349292
807.928050	0.349832
808.119199	0.350223
808.310329	0.350607
808.501441	0.351119
808.692535	0.351820
808.883611	0.351943
809.074669	0.352274
809.265708	0.352505
809.456729	0.352769
809.647732	0.353012
809.838717	0.353351
810.029683	0.353490
810.220632	0.353280
810.411562	0.353470
810.602474	0.353724
810.793367	0.354138
810.984242	0.354327
811.175100	0.354667
811.365938	0.355209
811.556759	0.355499
811.747562	0.355844
811.938346	0.356790
812.129112	0.357151
812.319860	0.357818
812.510589	0.358308
812.701300	0.358751
812.891994	0.358949
813.082668	0.359070
813.273325	0.359683
813.463964	0.360112
813.654584	0.360312
813.845186	0.360818
814.035769	0.361031
814.226335	0.361482
814.416882	0.362110
814.607411	0.362553
814.797922	0.363079
814.988415	0.363340
815.178889	0.363359
815.369345	0.363770
815.559783	0.364104
815.750203	0.364978
815.940605	0.365495
816.130988	0.365962
816.321353	0.366585
816.511700	0.367131
816.702028	0.367649
816.892339	0.368380
817.082631	0.368965
817.272905	0.369474
817.463161	0.369547
817.653398	0.369946
817.843617	0.370232
818.033819	0.371049
818.224001	0.371108
818.414166	0.371489
818.604312	0.371741
818.794440	0.371976
818.984550	0.372212
819.174642	0.372541
819.364716	0.372823
819.554771	0.373212
819.744808	0.373217
819.934827	0.373917
820.124827	0.374428
820.314810	0.375203
820.504774	0.375927
820.694720	0.376513
820.884647	0.377044
821.074557	0.377691
821.264448	0.378208
821.454321	0.378440
821.644176	0.379043
821.834012	0.379452
822.023831	0.380013
822.213631	0.380372
822.403413	0.381076
822.593176	0.381802
822.782922	0.381867
822.972649	0.382280
823.162358	0.382736
823.352049	0.383199
823.541721	0.383421
823.731376	0.383800
823.921012	0.384363
824.110629	0.384465
824.300229	0.384504
824.489811	0.385312
824.679374	0.385826
824.868919	0.386659
825.058445	0.387081
825.247954	0.387677
825.437444	0.388121
825.626916	0.388455
825.816370	0.389281
826.005806	0.390023
826.195223	0.390379
826.384622	0.391109
826.574003	0.391571
826.763366	0.392042
826.952711	0.392572
827.142037	0.392821
827.331345	0.393331
827.520635	0.393674
827.709906	0.394289
827.899160	0.394865
828.088395	0.395132
828.277612	0.395448
828.466810	0.395888
828.655991	0.396713
828.845153	0.397421
829.034297	0.397850
829.223423	0.398190
829.412531	0.398517
829.601620	0.398895
829.790691	0.399535
829.979744	0.400175
830.168779	0.400657
830.357795	0.400946
830.546793	0.401563
830.735773	0.402335
830.924735	0.402884
831.113679	0.403526
831.302604	0.403849
831.491511	0.404110
831.680400	0.404331
831.869271	0.404913
832.058123	0.405448
832.246957	0.405966
832.435773	0.406043
832.624571	0.406567
832.813351	0.407179
833.002112	0.408223
833.190855	0.408956
833.379580	0.409977
833.568287	0.410375
833.756975	0.411013
833.945645	0.411714
834.134297	0.412443
834.322931	0.413275
834.511547	0.413712
834.700144	0.414075
834.888723	0.414530
835.077284	0.414987
835.265826	0.415956
835.454351	0.416371
835.642857	0.416928
835.831345	0.417602
836.019815	0.418035
836.208266	0.418610
836.396699	0.419172
836.585114	0.419991
836.773511	0.420859
836.961890	0.421493
837.150250	0.422220
837.338592	0.422558
837.526916	0.422948
837.715222	0.423567
837.903510	0.424093
838.091779	0.424936
838.280030	0.425383
838.468263	0.425808
838.656477	0.426096
838.844674	0.426996
839.032852	0.427598
839.221012	0.428144
839.409153	0.428867
839.597277	0.429711
839.785382	0.430026
839.973469	0.430920
840.161538	0.431187
840.349589	0.432069
840.537621	0.432356
840.725635	0.433208
840.913631	0.434102
841.101609	0.434348
841.289568	0.434730
841.477509	0.435458
841.665432	0.435883
841.853337	0.436758
842.041224	0.437041
842.229092	0.437426
842.416942	0.438161
842.604774	0.438753
842.792588	0.440027
842.980383	0.441106
843.168160	0.441961
843.355919	0.442389
843.543660	0.442875
843.731382	0.443991
843.919087	0.444810
844.106773	0.445140
844.294441	0.445670
844.482090	0.445788
844.669722	0.446104
844.857335	0.446248
845.044930	0.446815
845.232507	0.447605
845.420065	0.447778
845.607605	0.448543
845.795127	0.449122
845.982631	0.450052
846.170117	0.450496
846.357584	0.451149
846.545033	0.451846
846.732464	0.452869
846.919877	0.453265
847.107272	0.453777
847.294648	0.453717
847.482006	0.454771
847.669346	0.454634
847.856667	0.455479
848.043971	0.455969
848.231256	0.456491
848.418523	0.456732
848.605771	0.457607
848.793002	0.457868
848.980214	0.458550
849.167408	0.458691
849.354584	0.460080
849.541742	0.460878
849.728881	0.461681
849.916002	0.462404
850.103105	0.463173
850.290190	0.463066
850.477256	0.463955
850.664304	0.464961
850.851334	0.465680
851.038346	0.465598
851.225340	0.466366
851.412315	0.466599
851.599272	0.467610
851.786211	0.468127
851.973132	0.469292
852.160034	0.470158
852.346918	0.470607
852.533784	0.470987
852.720632	0.471909
852.907462	0.471976
853.094273	0.472579
853.281066	0.473085
853.467841	0.473570
853.654598	0.474122
853.841336	0.474561
854.028056	0.475429
854.214758	0.475955
854.401442	0.476358
854.588107	0.477178
854.774755	0.477877
854.961384	0.478268
855.147995	0.478717
855.334587	0.479158
855.521162	0.479407
855.707718	0.479125
855.894256	0.480174
856.080775	0.480879
856.267277	0.481145
856.453760	0.481830
856.640225	0.482348
856.826672	0.482675
857.013101	0.483287
857.199511	0.484392
857.385903	0.485650
857.572277	0.485742
857.758633	0.486450
857.944970	0.487137
858.131290	0.487826
858.317591	0.488298
858.503873	0.489085
858.690138	0.489465
858.876384	0.490068
859.062612	0.490522
859.248822	0.491057
859.435014	0.491267
859.621188	0.491965
859.807343	0.491997
859.993480	0.492447
860.179599	0.493656
860.365699	0.494410
860.551781	0.494928
860.737846	0.495498
860.923891	0.495751
861.109919	0.496315
861.295929	0.496885
861.481920	0.497553
861.667893	0.498466
861.853848	0.498501
862.039784	0.499171
862.225702	0.499456
862.411603	0.500348
862.597484	0.501317
862.783348	0.502195
862.969193	0.502421
863.155021	0.503377
863.340830	0.503860
863.526620	0.504476
863.712393	0.505066
863.898147	0.505454
864.083883	0.505457
864.269601	0.506219
864.455301	0.506604
864.640982	0.507207
864.826645	0.507650
865.012290	0.508131
865.197917	0.508259
865.383526	0.508780
865.569116	0.509639
865.754688	0.510193
865.940242	0.510242
866.125777	0.510335
866.311295	0.510593
866.496794	0.510691
866.682275	0.511032
866.867737	0.511681
867.053182	0.511829
867.238608	0.511737
867.424016	0.512020
867.609406	0.512033
867.794778	0.512431
867.980131	0.513317
868.165466	0.513618
868.350783	0.514013
868.536082	0.514206
868.721362	0.514743
868.906625	0.515049
869.091869	0.515791
869.277094	0.516673
869.462302	0.517346
869.647491	0.517766
869.832662	0.518617
870.017815	0.518720
870.202950	0.518925
870.388066	0.519428
870.573165	0.520206
870.758245	0.520479
870.943306	0.520848
871.128350	0.521191
871.313375	0.521193
871.498382	0.521280
871.683371	0.521903
871.868342	0.523204
872.053294	0.523294
872.238229	0.523511
872.423144	0.523444
872.608042	0.524186
872.792922	0.524728
872.977783	0.525005
873.162626	0.525249
873.347451	0.525513
873.532258	0.525374
873.717046	0.525857
873.901816	0.525801
874.086568	0.526380
874.271302	0.526317
874.456017	0.526301
874.640715	0.527004
874.825394	0.527078
875.010055	0.527337
875.194697	0.528313
875.379322	0.529113
875.563928	0.529611
875.748516	0.529786
875.933085	0.529980
876.117637	0.530759
876.302170	0.530815
876.486685	0.531131
876.671182	0.531060
876.855661	0.530571
877.040121	0.530082
877.224563	0.530388
877.408987	0.530403
877.593393	0.530359
877.777780	0.530471
877.962150	0.530799
878.146501	0.530931
878.330833	0.531910
878.515148	0.532720
878.699444	0.533757
878.883722	0.533882
879.067982	0.534580
879.252224	0.535549
879.436447	0.535897
879.620653	0.536232
879.804840	0.537098
879.989008	0.536791
880.173159	0.536716
880.357291	0.536200
880.541405	0.537302
880.725501	0.538084
880.909579	0.538437
881.093638	0.538384
881.277680	0.538492
881.461703	0.538774
881.645707	0.539234
881.829694	0.538943
882.013662	0.540001
882.197612	0.539856
882.381544	0.539863
882.565458	0.539865
882.749353	0.540128
882.933230	0.540234
883.117089	0.540114
883.300930	0.540116
883.484753	0.540879
883.668557	0.540093
883.852343	0.540153
884.036111	0.539746
884.219861	0.539733
884.403592	0.540168
884.587305	0.540244
884.771000	0.540026
884.954677	0.540288
885.138335	0.539792
885.321976	0.539408
885.505598	0.539124
885.689201	0.539636
885.872787	0.539562
886.056354	0.539355
886.239904	0.539335
886.423434	0.539014
886.606947	0.538898
886.790442	0.538938
886.973918	0.539749
887.157376	0.539594
887.340816	0.539552
887.524237	0.539331
887.707641	0.539915
887.891026	0.539845
888.074393	0.540942
888.257741	0.541091
888.441072	0.541215
888.624384	0.540993
888.807678	0.541483
888.990954	0.541438
889.174211	0.541746
889.357451	0.540723
889.540672	0.540358
889.723875	0.539506
889.907059	0.539385
890.090226	0.539730
890.273374	0.540115
890.456504	0.540334
890.639616	0.540371
890.822709	0.540311
891.005785	0.540358
891.188842	0.540705
891.371881	0.540758
891.554901	0.540580
891.737904	0.540640
891.920888	0.540035
892.103854	0.539846
892.286802	0.539744
892.469731	0.539598
892.652643	0.540002
892.835536	0.539766
893.018410	0.540120
893.201267	0.539875
893.384106	0.539455
893.566926	0.539405
893.749728	0.539199
893.932511	0.539418
894.115277	0.539540
894.298024	0.539108
894.480753	0.539395
894.663464	0.539305
894.846157	0.539768
895.028831	0.539303
895.211487	0.539344
895.394125	0.538854
895.576745	0.537995
895.759346	0.537450
895.941930	0.537349
896.124495	0.536726
896.307041	0.535738
896.489570	0.534492
896.672080	0.534143
896.854573	0.534203
897.037046	0.533855
897.219502	0.533371
897.401940	0.532765
897.584359	0.532389
897.766760	0.532362
897.949143	0.532415
898.131507	0.533162
898.313854	0.533238
898.496182	0.533128
898.678492	0.533149
898.860783	0.533509
899.043057	0.533206
899.225312	0.532831
899.407549	0.532550
899.589768	0.532675
899.771968	0.531638
899.954151	0.531232
900.136315	0.530616
900.318461	0.530411
900.500588	0.530190
900.682698	0.530262
900.864789	0.529831
901.046862	0.529411
901.228917	0.528898
901.410953	0.529446
901.592971	0.528865
901.774972	0.527746
901.956953	0.526980
902.138917	0.526459
902.320862	0.526114
902.502790	0.526104
902.684699	0.525343
902.866589	0.524783
903.048462	0.523180
903.230316	0.523036
903.412152	0.523488
903.593970	0.523276
903.775770	0.522542
903.957551	0.522148
904.139314	0.521295
904.321059	0.521775
904.502786	0.520793
904.684494	0.521074
904.866185	0.519923
905.047857	0.519426
905.229510	0.518702
905.411146	0.518504
905.592763	0.517867
905.774363	0.517630
905.955943	0.516992
906.137506	0.517040
906.319051	0.516893
906.500577	0.516780
906.682085	0.515902
906.863575	0.515886
907.045046	0.514365
907.226500	0.513405
907.407935	0.512915
907.589352	0.512349
907.770750	0.511725
907.952131	0.510621
908.133493	0.510622
908.314837	0.509336
908.496163	0.507791
908.677470	0.508086
908.858760	0.507955
909.040031	0.507081
909.221284	0.506279
909.402518	0.505718
909.583735	0.505035
909.764933	0.503649
909.946113	0.503657
910.127275	0.503813
910.308418	0.503172
910.489544	0.502717
910.670651	0.502272
910.851740	0.501125
911.032810	0.500553
911.213863	0.500269
911.394897	0.499860
911.575913	0.499009
911.756911	0.498384
911.937890	0.496874
912.118851	0.496023
912.299794	0.495521
912.480719	0.495276
912.661626	0.494556
912.842514	0.493653
913.023384	0.493570
913.204236	0.493223
913.385070	0.492421
913.565886	0.491840
913.746683	0.491870
913.927462	0.491018
914.108223	0.489966
914.288965	0.489301
914.469690	0.488794
914.650396	0.487020
914.831084	0.486277
915.011754	0.485588
915.192405	0.485450
915.373038	0.483637
915.553653	0.482354
915.734250	0.482744
915.914829	0.481948
916.095389	0.481135
916.275931	0.481241
916.456455	0.480571
916.636961	0.479301
916.817448	0.478507
916.997917	0.478461
917.178368	0.477908
917.358801	0.476632
917.539216	0.476162
917.719612	0.474956
917.899990	0.474063
918.080350	0.473092
918.260692	0.471495
918.441015	0.471098
918.621320	0.469839
918.801607	0.469817
918.981876	0.469114
919.162127	0.468176
919.342359	0.467405
919.522573	0.465594
919.702769	0.465350
919.882947	0.465421
920.063106	0.463471
920.243247	0.462872
920.423370	0.461743
920.603475	0.459531
920.783562	0.458011
920.963630	0.457083
921.143680	0.457076
921.323712	0.454851
921.503725	0.454657
921.683721	0.454276
921.863698	0.453063
922.043657	0.451934
922.223598	0.451851
922.403520	0.451553
922.583424	0.450421
922.763311	0.448518
922.943178	0.448313
923.123028	0.446562
923.302859	0.445628
923.482673	0.444575
923.662467	0.442883
923.842244	0.441587
924.022003	0.441101
924.201743	0.440047
924.381465	0.440022
924.561169	0.439489
924.740854	0.438674
924.920522	0.438223
925.100171	0.438448
925.279802	0.436980
925.459414	0.435648
925.639009	0.433603
925.818585	0.433208
925.998143	0.432061
926.177683	0.430500
926.357205	0.429827
926.536708	0.427866
926.716193	0.425683
926.895660	0.425350
927.075109	0.424836
927.254539	0.423385
927.433951	0.421875
927.613345	0.421110
927.792721	0.420077
927.972079	0.418232
928.151418	0.417200
928.330739	0.415903
928.510042	0.414686
928.689327	0.413016
928.868593	0.412386
929.047841	0.410372
929.227071	0.408021
929.406283	0.406692
929.585476	0.406462
929.764652	0.405772
929.943809	0.404025
930.122948	0.402385
930.302068	0.401490
930.481171	0.400081
930.660255	0.399276
930.839321	0.398943
931.018369	0.397313
931.197398	0.394870
931.376409	0.393473
931.555402	0.392376
931.734377	0.392037
931.913334	0.390096
932.092272	0.388452
932.271192	0.387568
932.450094	0.386602
932.628978	0.385905
932.807844	0.384784
932.986691	0.383117
933.165520	0.380996
933.344331	0.379396
933.523123	0.378370
933.701898	0.378566
933.880654	0.377416
934.059392	0.375848
934.238111	0.374601
934.416813	0.373768
934.595496	0.373238
934.774161	0.374610
934.952808	0.373197
935.131437	0.372075
935.310047	0.369696
935.488639	0.369025
935.667213	0.368249
935.845769	0.366869
936.024306	0.364774
936.202825	0.362427
936.381326	0.360146
936.559809	0.358797
936.738274	0.356829
936.916720	0.356233
937.095148	0.354454
937.273558	0.352113
937.451950	0.350931
937.630323	0.349905
937.808678	0.348717
937.987015	0.347817
938.165334	0.347835
938.343635	0.347197
938.521917	0.345089
938.700181	0.342905
938.878427	0.341796
939.056655	0.341107
939.234864	0.340854
939.413055	0.338502
939.591228	0.336545
939.769383	0.335058
939.947519	0.333823
940.125638	0.332311
940.303738	0.331283
940.481820	0.330129
940.659883	0.327513
940.837929	0.325340
941.015956	0.324588
941.193965	0.322285
941.371955	0.318625
941.549928	0.317534
941.727882	0.315246
941.905818	0.314201
942.083736	0.312973
942.261636	0.310405
942.439517	0.307852
942.617380	0.306660
942.795225	0.307203
942.973052	0.308286
943.150860	0.306998
943.328651	0.306434
943.506423	0.305548
943.684176	0.303140
943.861912	0.301808
944.039629	0.302175
944.217328	0.301381
944.395009	0.298974
944.572672	0.295271
944.750317	0.294769
944.927943	0.293348
945.105551	0.290805
945.283141	0.289932
945.460712	0.289023
945.638265	0.287525
945.815801	0.285586
945.993317	0.283625
946.170816	0.282565
946.348297	0.280380
946.525759	0.280046
946.703203	0.279414
946.880629	0.277807
947.058036	0.278037
947.235425	0.275411
947.412797	0.273796
947.590149	0.273040
947.767484	0.273016
947.944800	0.270175
948.122099	0.267454
948.299379	0.264985
948.476640	0.262796
948.653884	0.259557
948.831109	0.261690
949.008316	0.259386
949.185505	0.256813
949.362676	0.254098
949.539828	0.253164
949.716962	0.251166
949.894078	0.250113
950.071176	0.247833
950.248256	0.246227
950.425317	0.241350
950.602360	0.241218
950.779385	0.239155
950.956391	0.238141
951.133380	0.236930
951.310350	0.236205
951.487302	0.235613
951.664235	0.235267
951.841151	0.234461
952.018048	0.232333
952.194927	0.230411
952.371788	0.229257
952.548631	0.226150
952.725455	0.223989
952.902261	0.220338
953.079049	0.216931
953.255819	0.215730
953.432570	0.213855
953.609303	0.212349
953.786018	0.210820
953.962715	0.212746
954.139394	0.213331
954.316054	0.210949
954.492696	0.212468
954.669320	0.211964
954.845926	0.212350
955.022513	0.209874
955.199083	0.207824
955.375634	0.205859
955.552166	0.201121
955.728681	0.199721
955.905177	0.200681
956.081655	0.197745
956.258115	0.196713
956.434557	0.193420
956.610980	0.193652
956.787385	0.193151
956.963772	0.192340
957.140141	0.192598
957.316492	0.189720
957.492824	0.187149
957.669138	0.188312
957.845434	0.188621
958.021712	0.187158
958.197971	0.184118
958.374212	0.183765
958.550435	0.183790
958.726640	0.180043
958.902826	0.179758
959.078995	0.178233
959.255145	0.175748
959.431277	0.172140
959.607390	0.170688
959.783486	0.172255
959.959563	0.171081
960.135622	0.170143
960.311662	0.170672
960.487685	0.169153
960.663689	0.169829
960.839675	0.169697
961.015643	0.170349
961.191593	0.168838
961.367524	0.169305
961.543437	0.166090
961.719332	0.166597
961.895209	0.167717
962.071067	0.166736
962.246907	0.164852
962.422730	0.163904
962.598533	0.163849
962.774319	0.165144
962.950086	0.164847
963.125835	0.166634
963.301566	0.165465
963.477279	0.164739
963.652973	0.164516
963.828650	0.164930
964.004308	0.165453
964.179947	0.164774
964.355569	0.164264
964.531172	0.163152
964.706757	0.164616
964.882324	0.161487
965.057873	0.158836
965.233403	0.157981
965.408916	0.157479
965.584410	0.154547
965.759885	0.154153
965.935343	0.151683
966.110782	0.149435
966.286203	0.148407
966.461606	0.149766
966.636991	0.151495
966.812357	0.151846
966.987705	0.150520
967.163035	0.151779
967.338347	0.152025
967.513641	0.152388
967.688916	0.152325
967.864173	0.151918
968.039412	0.150275
968.214632	0.148910
968.389835	0.149957
968.565019	0.149401
968.740185	0.149250
968.915333	0.146415
969.090462	0.148194
969.265573	0.148078
969.440667	0.146216
969.615741	0.147497
969.790798	0.150773
969.965836	0.150417
970.140856	0.151885
970.315858	0.153196
970.490842	0.152741
970.665808	0.152069
970.840755	0.152178
971.015684	0.152453
971.190595	0.153122
971.365487	0.148503
971.540362	0.147104
971.715218	0.149120
971.890056	0.147796
972.064875	0.152302
972.239677	0.152282
972.414460	0.151868
972.589225	0.153853
972.763972	0.153276
972.938700	0.155657
973.113411	0.155190
973.288103	0.152467
973.462777	0.151074
973.637432	0.149570
973.812070	0.151235
973.986689	0.151126
974.161290	0.149555
974.335873	0.149001
974.510437	0.147832
974.684984	0.150369
974.859512	0.151219
975.034022	0.152433
975.208513	0.151514
975.382987	0.150967
975.557442	0.151405
975.731879	0.151268
975.906298	0.151046
976.080698	0.151312
976.255080	0.150717
976.429445	0.151148
976.603790	0.150368
976.778118	0.149880
976.952427	0.146973
977.126719	0.146383
977.300992	0.148845
977.475246	0.148840
977.649483	0.147832
977.823701	0.145454
977.997901	0.144059
978.172083	0.142258
978.346247	0.141924
978.520392	0.144929
978.694519	0.144738
978.868628	0.145023
979.042719	0.144008
979.216791	0.147208
979.390845	0.147692
979.564882	0.146484
979.738899	0.150104
979.912899	0.151910
980.086880	0.152903
980.260843	0.153731
980.434788	0.153193
980.608715	0.155356
980.782623	0.154164
980.956514	0.155180
981.130386	0.157887
981.304240	0.156828
981.478075	0.155785
981.651892	0.155258
981.825692	0.157041
981.999472	0.154042
982.173235	0.153613
982.346980	0.151892
982.520706	0.152026
982.694414	0.151019
982.868104	0.150919
983.041775	0.151637
983.215428	0.149877
983.389064	0.146979
983.562680	0.150201
983.736279	0.148151
983.909860	0.149941
984.083422	0.149401
984.256966	0.150198
984.430491	0.150083
984.603999	0.150713
984.777488	0.151768
984.950959	0.151258
985.124412	0.148351
985.297847	0.149689
985.471263	0.149364
985.644661	0.149978
985.818041	0.148634
985.991403	0.148415
986.164747	0.147378
986.338072	0.146402
986.511379	0.149788
986.684668	0.151130
986.857938	0.151742
987.031191	0.151879
987.204425	0.153490
987.377641	0.155424
987.550839	0.156679
987.724018	0.157101
987.897179	0.156381
988.070322	0.154577
988.243447	0.154359
988.416554	0.155569
988.589642	0.154646
988.762712	0.153930
988.935764	0.153057
989.108798	0.150054
989.281813	0.149365
989.454811	0.152202
989.627790	0.151222
989.800751	0.152283
989.973693	0.149948
990.146617	0.147492
990.319524	0.146754
990.492412	0.145793
990.665281	0.147438
990.838133	0.147812
991.010966	0.144294
991.183781	0.144530
991.356578	0.143031
991.529356	0.143993
991.702117	0.147599
991.874859	0.147795
992.047583	0.149736
992.220288	0.151139
992.392976	0.151401
992.565645	0.153366
992.738296	0.156996
992.910929	0.158578
993.083543	0.158884
993.256139	0.157132
993.428718	0.156266
993.601277	0.155990
993.773819	0.154164
993.946342	0.153446
994.118848	0.155751
994.291335	0.154176
994.463803	0.155734
994.636254	0.155989
994.808686	0.156406
994.981100	0.156588
995.153496	0.156308
995.325874	0.157244
995.498233	0.160015
995.670574	0.157911
995.842897	0.156258
996.015202	0.153594
996.187488	0.152741
996.359757	0.154917
996.532007	0.154481
996.704239	0.153637
996.876452	0.153163
997.048648	0.150210
997.220825	0.149766
997.392984	0.152335
997.565124	0.153401
997.737247	0.153819
997.909351	0.152133
998.081437	0.153106
998.253505	0.153115
998.425554	0.151895
998.597586	0.151175
998.769599	0.150951
998.941594	0.148208
999.113571	0.146932
999.285529	0.148391
999.457469	0.149649
999.629391	0.150298
999.801295	0.152560
999.973181	0.154375
1000.145048	0.155253
1000.316897	0.156194
1000.488728	0.156849
1000.660541	0.158335
1000.832335	0.156140
1001.004111	0.154518
1001.175869	0.154758
1001.347609	0.153286
1001.519331	0.154383
1001.691034	0.155669
1001.862719	0.156994
1002.034386	0.156935
1002.206035	0.157260
1002.377665	0.159774
1002.549277	0.160189
1002.720871	0.160133
1002.892447	0.161665
1003.064004	0.158805
1003.235544	0.158375
1003.407065	0.156994
1003.578568	0.157192
1003.750052	0.156744
1003.921519	0.155202
1004.092967	0.156488
1004.264397	0.157313
1004.435809	0.155631
1004.607202	0.156250
1004.778577	0.156565
1004.949934	0.157138
1005.121273	0.159312
1005.292594	0.158676
1005.463896	0.158895
1005.635180	0.158925
1005.806446	0.159111
1005.977694	0.160358
1006.148923	0.161698
1006.320135	0.162233
1006.491328	0.161130
1006.662503	0.160963
1006.833659	0.159764
1007.004798	0.160384
1007.175918	0.159524
1007.347020	0.157157
1007.518103	0.154903
1007.689169	0.154016
1007.860216	0.153025
1008.031245	0.151692
1008.202256	0.148153
1008.373248	0.147094
1008.544223	0.147226
1008.715179	0.145182
1008.886117	0.145493
1009.057036	0.146619
1009.227938	0.147019
1009.398821	0.148054
1009.569686	0.149224
1009.740533	0.150897
1009.911361	0.154161
1010.082172	0.153900
1010.252964	0.155370
1010.423738	0.154908
1010.594493	0.154883
1010.765231	0.154684
1010.935950	0.152804
1011.106651	0.153728
1011.277334	0.155355
1011.447998	0.153538
1011.618645	0.153408
1011.789273	0.151774
1011.959882	0.153382
1012.130474	0.152975
1012.301048	0.153940
1012.471603	0.154618
1012.642140	0.153356
1012.812658	0.152863
1012.983159	0.156234
1013.153641	0.155536
1013.324105	0.158515
1013.494551	0.158030
1013.664979	0.160810
1013.835388	0.160330
1014.005779	0.160339
1014.176152	0.162635
1014.346507	0.158801
1014.516843	0.155327
1014.687162	0.155471
1014.857462	0.153731
1015.027744	0.154724
1015.198007	0.151798
1015.368252	0.151447
1015.538480	0.152244
1015.708689	0.151177
1015.878879	0.153439
1016.049052	0.154230
1016.219206	0.155002
1016.389342	0.154701
1016.559460	0.152684
1016.729559	0.152567
1016.899641	0.152058
1017.069704	0.150307
1017.239749	0.151598
1017.409775	0.152648
1017.579784	0.153411
1017.749774	0.151202
1017.919746	0.152104
1018.089700	0.153616
1018.259635	0.153956
1018.429553	0.155398
1018.599452	0.156123
1018.769333	0.155451
1018.939195	0.154686
1019.109040	0.154853
1019.278866	0.156869
1019.448674	0.157134
1019.618464	0.156896
1019.788235	0.155825
1019.957989	0.155962
1020.127724	0.157589
1020.297441	0.157293
1020.467139	0.158053
1020.636820	0.158794
1020.806482	0.158338
1020.976126	0.158729
1021.145752	0.158543
1021.315359	0.159416
1021.484948	0.156208
1021.654519	0.154901
1021.824072	0.154108
1021.993607	0.153778
1022.163123	0.150989
1022.332621	0.150560
1022.502101	0.148826
1022.671563	0.148711
1022.841007	0.149619
1023.010432	0.152244
1023.179839	0.150763
1023.349228	0.150626
1023.518598	0.149083
1023.687951	0.150094
1023.857285	0.151426
1024.026601	0.153499
1024.195899	0.151886
1024.365178	0.152989
1024.534439	0.152168
1024.703682	0.154539
1024.872907	0.155425
1025.042114	0.155915
1025.211302	0.156608
1025.380472	0.156099
1025.549624	0.155995
1025.718758	0.157516
1025.887873	0.155959
1026.056970	0.156589
1026.226049	0.155913
1026.395110	0.155839
1026.564153	0.157239
1026.733177	0.158380
1026.902183	0.158651
1027.071171	0.160000
1027.240141	0.157818
1027.409092	0.158689
1027.578026	0.158821
1027.746940	0.157897
1027.915837	0.158597
1028.084716	0.157896
1028.253576	0.156493
1028.422418	0.155473
1028.591242	0.151967
1028.760048	0.152861
1028.928835	0.152260
1029.097604	0.152614
1029.266355	0.155534
1029.435088	0.153772
1029.603803	0.156524
1029.772499	0.156497
1029.941177	0.158977
1030.109837	0.161214
1030.278478	0.161143
1030.447102	0.160048
1030.615707	0.159243
1030.784294	0.159462
1030.952863	0.157934
1031.121413	0.156955
1031.289945	0.157002
1031.458460	0.155738
1031.626955	0.154980
1031.795433	0.156960
1031.963892	0.157745
1032.132334	0.157733
1032.300756	0.156585
1032.469161	0.158986
1032.637548	0.158372
1032.805916	0.160288
1032.974266	0.159339
1033.142598	0.157206
1033.310911	0.155264
1033.479207	0.156798
1033.647484	0.155947
1033.815743	0.154229
1033.983983	0.152565
1034.152206	0.154010
1034.320410	0.152176
1034.488596	0.153029
1034.656764	0.155364
1034.824914	0.155577
1034.993045	0.154731
1035.161158	0.156144
1035.329253	0.156525
1035.497330	0.157659
1035.665388	0.154653
1035.833428	0.154112
1036.001450	0.153329
1036.169454	0.152671
1036.337440	0.152582
1036.505407	0.151182
1036.673356	0.150238
1036.841287	0.149881
1037.009200	0.150290
1037.177094	0.151764
1037.344970	0.152958
1037.512828	0.152624
1037.680668	0.151787
1037.848489	0.153149
1038.016293	0.154382
1038.184078	0.154028
1038.351845	0.155559
1038.519593	0.153989
1038.687324	0.151899
1038.855036	0.151375
1039.022730	0.152840
1039.190406	0.154628
1039.358063	0.153630
1039.525702	0.153555
1039.693323	0.154753
1039.860926	0.153234
1040.028511	0.154474
1040.196077	0.156961
1040.363625	0.157299
1040.531155	0.155161
1040.698667	0.155078
1040.866161	0.155340
1041.033636	0.155522
1041.201093	0.153939
1041.368532	0.154519
1041.535952	0.154672
1041.703355	0.153169
1041.870739	0.153386
1042.038105	0.155882
1042.205452	0.155539
1042.372782	0.156646
1042.540093	0.154825
1042.707386	0.155803
1042.874661	0.156115
1043.041918	0.155080
1043.209156	0.155353
1043.376376	0.153825
1043.543578	0.154348
1043.710762	0.155279
1043.877927	0.154315
1044.045074	0.155663
1044.212203	0.155795
1044.379314	0.155131
1044.546407	0.157639
1044.713481	0.158174
1044.880537	0.159034
1045.047575	0.157416
1045.214595	0.156623
1045.381596	0.156222
1045.548579	0.155113
1045.715544	0.154441
1045.882491	0.153479
1046.049420	0.150492
1046.216330	0.148017
1046.383222	0.147708
1046.550096	0.149258
1046.716951	0.148124
1046.883789	0.147986
1047.050608	0.148937
1047.217409	0.150515
1047.384192	0.152169
1047.550956	0.154138
1047.717703	0.154975
1047.884431	0.155827
1048.051140	0.156192
1048.217832	0.158412
1048.384505	0.159386
1048.551161	0.159366
1048.717798	0.157681
1048.884416	0.156923
1049.051017	0.159128
1049.217599	0.159879
1049.384163	0.158147
1049.550709	0.157031
1049.717237	0.154934
1049.883746	0.154452
1050.050237	0.154726
1050.216710	0.155105
1050.383165	0.157189
1050.549601	0.153950
1050.716019	0.154123
1050.882420	0.155993
1051.048801	0.156521
1051.215165	0.155865
1051.381510	0.156597
1051.547837	0.156962
1051.714146	0.158107
1051.880437	0.158126
1052.046709	0.159982
1052.212964	0.161668
1052.379200	0.161154
1052.545417	0.160109
1052.711617	0.162298
1052.877798	0.160945
1053.043961	0.160639
1053.210106	0.161607
1053.376233	0.160102
1053.542341	0.160236
1053.708432	0.159596
1053.874504	0.160590
1054.040557	0.161151
1054.206593	0.160561
1054.372610	0.162253
1054.538609	0.160670
1054.704590	0.161006
1054.870553	0.160802
1055.036497	0.159309
1055.202424	0.158624
1055.368331	0.158494
1055.534221	0.156183
1055.700093	0.156094
1055.865946	0.155169
1056.031781	0.156827
1056.197598	0.156383
1056.363397	0.157542
1056.529177	0.159209
1056.694939	0.160347
1056.860683	0.159740
1057.026409	0.158788
1057.192116	0.160029
1057.357806	0.159875
1057.523477	0.160684
1057.689130	0.159322
1057.854764	0.157747
1058.020381	0.157770
1058.185979	0.155702
1058.351559	0.156196
1058.517120	0.159075
1058.682664	0.158692
1058.848189	0.158437
1059.013696	0.155565
1059.179185	0.157817
1059.344656	0.158620
1059.510108	0.160155
1059.675542	0.161610
1059.840958	0.158775
1060.006356	0.157662
1060.171735	0.155702
1060.337096	0.154680
1060.502439	0.155076
1060.667764	0.154119
1060.833071	0.152538
1060.998359	0.148373
1061.163629	0.147526
1061.328881	0.150598
1061.494115	0.150678
1061.659330	0.152942
1061.824527	0.158253
1061.989706	0.158688
1062.154867	0.158881
1062.320010	0.160237
1062.485134	0.161081
1062.650240	0.160722
1062.815328	0.159311
1062.980398	0.160361
1063.145449	0.159302
1063.310482	0.155766
1063.475497	0.157527
1063.640494	0.156638
1063.805473	0.158725
1063.970433	0.157548
1064.135375	0.158919
1064.300299	0.157122
1064.465204	0.159903
1064.630092	0.160528
1064.794961	0.162903
1064.959812	0.161349
1065.124645	0.165542
1065.289459	0.165133
1065.454256	0.166081
1065.619034	0.164715
1065.783793	0.166287
1065.948535	0.163070
1066.113258	0.163035
1066.277964	0.160005
1066.442651	0.160056
1066.607319	0.155876
1066.771970	0.154050
1066.936602	0.154357
1067.101216	0.155056
1067.265812	0.156192
1067.430389	0.154787
1067.594949	0.155384
1067.759490	0.155323
1067.924013	0.157639
1068.088518	0.158065
1068.253004	0.156796
1068.417472	0.158620
1068.581922	0.159864
1068.746354	0.161773
1068.910768	0.161630
1069.075163	0.162229
1069.239540	0.163385
1069.403899	0.161649
1069.568240	0.160232
1069.732562	0.161444
1069.896866	0.162539
1070.061152	0.160300
1070.225420	0.160140
1070.389670	0.161717
1070.553901	0.160644
1070.718114	0.161639
1070.882309	0.161992
1071.046486	0.164087
1071.210644	0.165833
1071.374784	0.162945
1071.538906	0.167251
1071.703010	0.166188
1071.867096	0.167535
1072.031163	0.169367
1072.195212	0.169282
1072.359243	0.168534
1072.523256	0.169948
1072.687250	0.169383
1072.851226	0.170599
1073.015184	0.169603
1073.179124	0.169202
1073.343045	0.168402
1073.506949	0.165584
1073.670834	0.165800
1073.834701	0.167794
1073.998549	0.166878
1074.162380	0.167987
1074.326192	0.169330
1074.489986	0.169310
1074.653761	0.171632
1074.817519	0.173053
1074.981258	0.173195
1075.144979	0.171105
1075.308682	0.170858
1075.472367	0.170279
1075.636033	0.169183
1075.799681	0.167658
1075.963311	0.166754
1076.126923	0.166061
1076.290516	0.163673
1076.454092	0.165666
1076.617649	0.167116
1076.781187	0.165223
1076.944708	0.166604
1077.108210	0.166980
1077.271695	0.169699
1077.435160	0.169634
1077.598608	0.167438
1077.762038	0.170383
1077.925449	0.169322
1078.088842	0.170426
1078.252217	0.173145
1078.415573	0.172707
1078.578912	0.175001
1078.742232	0.171228
1078.905534	0.172780
1079.068817	0.176800
1079.232083	0.175077
1079.395330	0.174890
1079.558559	0.172733
1079.721770	0.172762
1079.884962	0.169700
1080.048136	0.166076
1080.211293	0.168155
1080.374430	0.165316
1080.537550	0.163404
1080.700651	0.166546
1080.863735	0.168639
1081.026800	0.171843
1081.189846	0.170201
1081.352875	0.173181
1081.515885	0.174663
1081.678877	0.174272
1081.841851	0.173967
1082.004807	0.171735
1082.167744	0.167688
1082.330663	0.164694
1082.493564	0.161283
1082.656447	0.161311
1082.819312	0.163996
1082.982158	0.164732
1083.144986	0.163852
1083.307796	0.166328
1083.470587	0.167237
1083.633361	0.168545
1083.796116	0.170043
1083.958853	0.173738
1084.121571	0.175363
1084.284272	0.169699
1084.446954	0.170600
1084.609618	0.171259
1084.772264	0.170653
1084.934892	0.172664
1085.097501	0.173149
1085.260092	0.173605
1085.422665	0.171846
1085.585220	0.168326
1085.747756	0.168885
1085.910274	0.168483
1086.072774	0.170623
1086.235256	0.171371
1086.397720	0.170455
1086.560165	0.170825
1086.722592	0.168111
1086.885001	0.163272
1087.047392	0.164271
1087.209764	0.163306
1087.372119	0.161028
1087.534455	0.161037
1087.696772	0.159577
1087.859072	0.157417
1088.021353	0.159526
1088.183616	0.162651
1088.345861	0.168975
1088.508088	0.171924
1088.670296	0.174502
1088.832486	0.179991
1088.994658	0.181032
1089.156812	0.182637
1089.318948	0.187596
1089.481065	0.185033
1089.643164	0.186022
1089.805245	0.188234
1089.967308	0.188026
1090.129352	0.184683
1090.291378	0.180657
1090.453386	0.179146
1090.615376	0.176348
1090.777347	0.174883
1090.939301	0.174077
1091.101236	0.175731
1091.263153	0.175376
1091.425051	0.173067
1091.586932	0.175262
1091.748794	0.176903
1091.910638	0.176451
1092.072463	0.178328
1092.234271	0.176616
1092.396060	0.177486
1092.557831	0.175715
1092.719584	0.173225
1092.881319	0.174829
1093.043035	0.174353
1093.204733	0.174905
1093.366413	0.174176
1093.528075	0.176442
1093.689718	0.179043
1093.851343	0.176743
1094.012950	0.175363
1094.174539	0.177048
1094.336110	0.180340
1094.497662	0.184395
1094.659196	0.183934
1094.820712	0.186821
1094.982210	0.186299
1095.143689	0.186337
1095.305151	0.190879
1095.466594	0.193052
1095.628018	0.190288
1095.789425	0.187719
1095.950813	0.188591
1096.112183	0.186577
1096.273535	0.182362
1096.434869	0.182076
1096.596184	0.178843
1096.757482	0.177236
1096.918761	0.175521
1097.080021	0.177295
1097.241264	0.177397
1097.402488	0.174130
1097.563694	0.173776
1097.724882	0.174321
1097.886052	0.175298
1098.047203	0.174384
1098.208336	0.175591
1098.369451	0.177819
1098.530548	0.178111
1098.691627	0.177649
1098.852687	0.178422
1099.013729	0.179062
1099.174753	0.179719
1099.335758	0.179654
1099.496746	0.182097
1099.657715	0.182328
1099.818666	0.186848
1099.979599	0.186466
1100.140513	0.186561
1100.301409	0.187560
1100.462287	0.189216
1100.623147	0.188981
1100.783989	0.186915
1100.944812	0.184930
1101.105617	0.182786
1101.266404	0.177924
1101.427173	0.180354
1101.587923	0.180521
1101.748656	0.181410
1101.909370	0.179983
1102.070066	0.177356
1102.230743	0.174042
1102.391403	0.174632
1102.552044	0.175216
1102.712667	0.179379
1102.873271	0.179079
1103.033858	0.181984
1103.194426	0.179234
1103.354976	0.178038
1103.515508	0.180031
1103.676021	0.189007
1103.836517	0.191764
1103.996994	0.190184
1104.157453	0.189830
1104.317893	0.189759
1104.478316	0.188031
1104.638720	0.190014
1104.799106	0.197173
1104.959474	0.203835
1105.119823	0.201075
1105.280155	0.196633
1105.440468	0.201317
1105.600763	0.194076
1105.761039	0.195636
1105.921298	0.195287
1106.081538	0.194563
1106.241760	0.191904
1106.401964	0.189852
1106.562149	0.191341
1106.722316	0.192994
1106.882465	0.186015
1107.042596	0.191579
1107.202709	0.188129
1107.362803	0.185887
1107.522879	0.187170
1107.682937	0.184927
1107.842977	0.184074
1108.002999	0.180555
1108.163002	0.186042
1108.322987	0.191641
1108.482954	0.185698
1108.642902	0.186005
1108.802833	0.183721
1108.962745	0.181866
1109.122639	0.184437
1109.282515	0.188478
1109.442372	0.191857
1109.602211	0.190990
1109.762032	0.191692
1109.921835	0.198397
1110.081620	0.198962
1110.241386	0.204224
1110.401134	0.205510
1110.560864	0.202670
1110.720576	0.198680
1110.880269	0.195214
1111.039945	0.192540
1111.199602	0.192148
1111.359240	0.188581
1111.518861	0.185389
1111.678463	0.185794
1111.838047	0.183684
1111.997613	0.182270
1112.157161	0.177790
1112.316690	0.179350
1112.476202	0.180824
1112.635695	0.185339
1112.795169	0.180240
1112.954626	0.183973
1113.114064	0.182413
1113.273484	0.186571
1113.432886	0.190916
1113.592270	0.195716
1113.751635	0.193667
1113.910983	0.190553
1114.070312	0.184783
1114.229622	0.195023
1114.388915	0.191007
1114.548189	0.192081
1114.707445	0.190950
1114.866683	0.188853
1115.025903	0.188528
1115.185104	0.191101
1115.344287	0.193695
1115.503452	0.195242
1115.662599	0.190006
1115.821727	0.193167
1115.980838	0.191815
1116.139930	0.197065
1116.299004	0.194020
1116.458059	0.193253
1116.617097	0.192752
1116.776116	0.193267
1116.935117	0.188332
1117.094099	0.194716
1117.253064	0.197032
1117.412010	0.202916
1117.570938	0.197657
1117.729848	0.202054
1117.888740	0.204502
1118.047613	0.204520
1118.206468	0.202451
1118.365305	0.208742
1118.524124	0.201710
1118.682924	0.197239
1118.841707	0.193019
1119.000471	0.190476
1119.159216	0.192089
1119.317944	0.191883
1119.476653	0.196308
1119.635344	0.199958
1119.794017	0.200883
1119.952672	0.201002
1120.111308	0.205007
1120.269927	0.204653
1120.428527	0.205473
1120.587108	0.205277
1120.745672	0.204822
1120.904217	0.200472
1121.062744	0.195285
1121.221253	0.191177
1121.379744	0.194209
1121.538216	0.198015
1121.696671	0.198928
1121.855107	0.207701
1122.013524	0.202247
1122.171924	0.201324
1122.330305	0.202398
1122.488668	0.210847
1122.647013	0.210162
1122.805340	0.205507
1122.963648	0.198043
1123.121938	0.202095
1123.280210	0.200840
1123.438464	0.201955
1123.596700	0.206068
1123.754917	0.198128
1123.913116	0.193987
1124.071297	0.194620
1124.229459	0.199842
1124.387604	0.202872
1124.545730	0.203719
1124.703838	0.197048
1124.861928	0.200350
1125.019999	0.202250
1125.178052	0.211092
1125.336088	0.209344
1125.494104	0.209960
1125.652103	0.206840
1125.810083	0.204874
1125.968045	0.201913
1126.125989	0.197234
1126.283915	0.195560
1126.441823	0.192665
1126.599712	0.189159
1126.757583	0.192646
1126.915436	0.189866
1127.073270	0.194400
1127.231087	0.198095
1127.388885	0.201148
1127.546665	0.206991
1127.704426	0.207861
1127.862170	0.205916
1128.019895	0.207335
1128.177602	0.205943
1128.335291	0.207901
1128.492961	0.202440
1128.650614	0.196511
1128.808248	0.192489
1128.965864	0.199773
1129.123461	0.198481
1129.281041	0.200248
1129.438602	0.199312
1129.596145	0.197927
1129.753670	0.194438
1129.911176	0.191815
1130.068665	0.193172
1130.226135	0.188143
1130.383587	0.180253
1130.541020	0.184677
1130.698436	0.180091
1130.855833	0.181772
1131.013212	0.176240
1131.170573	0.177855
1131.327915	0.182993
1131.485239	0.182093
1131.642545	0.186705
1131.799833	0.190513
1131.957103	0.189962
1132.114354	0.186372
1132.271588	0.189397
1132.428803	0.195031
1132.585999	0.198576
1132.743178	0.199427
1132.900338	0.200486
1133.057480	0.201000
1133.214604	0.194371
1133.371710	0.191342
1133.528797	0.190434
1133.685866	0.186208
1133.842917	0.189817
1133.999950	0.190510
1134.156964	0.191184
1134.313960	0.190445
1134.470938	0.182599
1134.627898	0.181320
1134.784840	0.182930
1134.941763	0.193420
1135.098668	0.195219
1135.255555	0.191156
1135.412424	0.193654
1135.569274	0.195756
1135.726107	0.196918
1135.882921	0.208595
1136.039716	0.207534
1136.196494	0.208076
1136.353253	0.203745
1136.509995	0.204468
1136.666717	0.209738
1136.823422	0.199461
1136.980109	0.198940
1137.136777	0.205290
1137.293427	0.193216
1137.450059	0.206270
1137.606672	0.204801
1137.763267	0.201250
1137.919844	0.194283
1138.076403	0.193899
1138.232944	0.200758
1138.389466	0.198916
1138.545971	0.197271
1138.702457	0.205455
1138.858924	0.197602
1139.015374	0.199636
1139.171805	0.198724
1139.328218	0.205370
1139.484613	0.202489
1139.640990	0.205398
1139.797348	0.200808
1139.953688	0.199441
1140.110010	0.199826
1140.266314	0.197502
1140.422600	0.188890
1140.578867	0.201481
1140.735116	0.200187
1140.891347	0.192903
1141.047559	0.190447
1141.203754	0.191846
1141.359930	0.183298
1141.516088	0.177145
1141.672228	0.180954
1141.828349	0.184950
1141.984452	0.174982
1142.140537	0.181478
1142.296604	0.186605
1142.452653	0.184610
1142.608683	0.182935
1142.764695	0.188802
1142.920689	0.195861
1143.076665	0.190233
1143.232622	0.186602
1143.388562	0.181010
1143.544483	0.175201
1143.700385	0.177217
1143.856270	0.195444
1144.012136	0.188915
1144.167985	0.190475
1144.323814	0.182562
1144.479626	0.184780
1144.635420	0.193905
1144.791195	0.205612
1144.946952	0.203481
1145.102691	0.199827
1145.258411	0.191959
1145.414113	0.204348
1145.569798	0.205892
1145.725463	0.213154
1145.881111	0.219019
1146.036741	0.213205
1146.192352	0.209054
1146.347945	0.213543
1146.503519	0.206210
1146.659076	0.203591
1146.814614	0.209179
1146.970134	0.206736
1147.125636	0.200303
1147.281120	0.195503
1147.436585	0.204415
1147.592032	0.205183
1147.747461	0.202763
1147.902872	0.212121
1148.058265	0.209946
1148.213639	0.199513
1148.368995	0.202040
1148.524333	0.210553
1148.679653	0.213525
1148.834954	0.207342
1148.990237	0.206069
1149.145502	0.208918
1149.300749	0.210574
1149.455977	0.210047
1149.611188	0.212210
1149.766380	0.215756
1149.921553	0.210056
1150.076709	0.199928
1150.231846	0.204872
1150.386966	0.202880
1150.542066	0.203445
1150.697149	0.204644
1150.852214	0.204262
1151.007260	0.194584
1151.162288	0.187630
1151.317298	0.202237
1151.472289	0.207983
1151.627263	0.201851
1151.782218	0.207397
1151.937155	0.206015
1152.092073	0.211277
1152.246974	0.208295
1152.401856	0.216807
1152.556720	0.216224
1152.711566	0.213544
1152.866393	0.222695
1153.021203	0.215987
1153.175994	0.208031
1153.330767	0.212335
1153.485521	0.199311
1153.640258	0.202994
1153.794976	0.209663
1153.949676	0.202956
1154.104358	0.195510
1154.259021	0.180736
1154.413667	0.192246
1154.568294	0.197895
1154.722903	0.188478
1154.877493	0.187988
1155.032066	0.186814
1155.186620	0.182251
1155.341156	0.196085
1155.495674	0.196604
1155.650173	0.202140
1155.804654	0.190566
1155.959118	0.186509
1156.113562	0.190224
1156.267989	0.209893
1156.422397	0.205327
1156.576788	0.207702
1156.731160	0.209380
1156.885513	0.208393
1157.039849	0.204942
1157.194166	0.201253
1157.348465	0.211536
1157.502746	0.203218
1157.657009	0.183372
1157.811253	0.185071
1157.965479	0.179751
1158.119687	0.164075
1158.273877	0.163115
1158.428048	0.167607
1158.582201	0.184290
1158.736337	0.166402
1158.890453	0.160257
1159.044552	0.160465
1159.198632	0.147418
1159.352694	0.151302
1159.506738	0.159453
1159.660764	0.156788
1159.814771	0.157233
1159.968761	0.155847
1160.122732	0.155113
1160.276685	0.167645
1160.430619	0.169832
1160.584535	0.179920
1160.738434	0.180597
1160.892313	0.176213
1161.046175	0.182536
1161.200019	0.184032
1161.353844	0.170862
1161.507651	0.187050
1161.661440	0.188273
1161.815210	0.193214
1161.968962	0.207237
1162.122697	0.196659
1162.276412	0.203187
1162.430110	0.206428
1162.583789	0.197331
1162.737451	0.207895
1162.891094	0.202373
1163.044718	0.203619
1163.198325	0.198839
1163.351913	0.183206
1163.505483	0.188304
1163.659035	0.184017
1163.812569	0.182382
1163.966084	0.197357
1164.119581	0.195363
1164.273060	0.200684
1164.426521	0.200458
1164.579964	0.192417
1164.733388	0.194040
1164.886794	0.195405
1165.040182	0.201318
1165.193551	0.187286
1165.346903	0.190536
1165.500236	0.190514
1165.653551	0.181916
1165.806848	0.176909
1165.960126	0.187303
1166.113386	0.193741
1166.266628	0.178103
1166.419852	0.157788
1166.573058	0.165030
1166.726245	0.162357
1166.879414	0.164771
1167.032565	0.175379
1167.185698	0.180604
1167.338812	0.179639
1167.491909	0.172657
1167.644987	0.193826
1167.798046	0.203879
1167.951088	0.206527
1168.104111	0.184743
1168.257117	0.182068
1168.410103	0.166753
1168.563072	0.155248
1168.716023	0.154160
1168.868955	0.149619
1169.021869	0.156321
1169.174765	0.155353
1169.327642	0.153071
1169.480501	0.174650
1169.633343	0.176443
1169.786165	0.181034
1169.938970	0.193487
1170.091757	0.203508
1170.244525	0.221971
1170.397275	0.191929
1170.550007	0.195095
1170.702720	0.187067
1170.855415	0.185019
1171.008092	0.183634
1171.160751	0.189826
1171.313392	0.187156
1171.466014	0.235499
1171.618619	0.198876
1171.771205	0.198876
1171.923772	0.198876
